"success","ttype","start_time","trial_type","trial_index","time_elapsed","internal_node_id","warning","missed_checkup","PID","view_history","rt","responses","repeat_instructions","key_press","index","keypress_isi","keypress_S2","block","trial_num","phase","group_type","pair_type","S1_stim","S2_stim","S1_img","S2_img","S1_chosen","S1_higher","accuracy","keypress_iti","total_bonus_tally"
"true","full_screen","d08012022hr1621","fullscreen","0","8299","0.0-0.0","0","0","33660","","","","","","","","","","","","","","","","","","","","","",""
"","instructions","","instructions","1","43152","0.0-1.0-0.0-0.0","0","0","33660","[{""page_index"":0,""viewing_time"":5443},{""page_index"":1,""viewing_time"":17451},{""page_index"":2,""viewing_time"":9459},{""page_index"":3,""viewing_time"":2494}]","34848","","","","","","","","","","","","","","","","","","","",""
"","comprehension_check","","survey-multi-choice","2","66510","0.0-1.0-0.0-1.0","0","0","33660","","23350","{""Q0"":""True"",""Q1"":""D"",""Q2"":""When you see the prompt 'MAKE A CHOICE' after the second image was presented"",""Q3"":""Green mark"",""Q4"":""either D or K""}","0","","","","","","","","","","","","","","","","","",""
"","start_exp","","html-keyboard-response","3","69540","0.0-1.0-1.0","0","0","33660","","3025","","","32","","","","","","","","","","","","","","","","",""
"","S1","","html-keyboard-response","4","69794","0.0-1.0-2.0","0","0","33660","","null","","","null","0","","","","","","","","","","","","","","","",""
"","ISI","","html-keyboard-response","5","71797","0.0-1.0-3.0","0","0","33660","","null","","","null","0","NaN","","","","","","","","","","","","","","",""
"","S2","","html-keyboard-response","6","72050","0.0-1.0-4.0","0","0","33660","","null","","","null","0","","NaN","","","","","","","","","","","","","",""
"","response","","html-keyboard-response","7","73739","0.0-1.0-5.0","0","0","33660","","1686","","","68","0","","","1","0","training","adjacent","AB","1","2","P.jpg","R.jpg","1","1","1","",""
"","feedback","","html-keyboard-response","8","74742","0.0-1.0-6.0-0.0","0","0","33660","","null","","","null","0","","","","","","","","","","","","","","","",""
"","ITI","","html-keyboard-response","9","75745","0.0-1.0-9.0","0","0","33660","","null","","","null","0","","","","","","","","","","","","","","","NaN",""
"","S1","","html-keyboard-response","10","75998","0.0-1.0-11.0","0","0","33660","","null","","","null","1","","","","","","","","","","","","","","","",""
"","ISI","","html-keyboard-response","11","78001","0.0-1.0-12.0","0","0","33660","","null","","","null","1","NaN","","","","","","","","","","","","","","",""
"","S2","","html-keyboard-response","12","78254","0.0-1.0-13.0","0","0","33660","","null","","","null","1","","NaN","","","","","","","","","","","","","",""
"","response","","html-keyboard-response","13","79131","0.0-1.0-14.0","0","0","33660","","874","","","75","1","","","1","1","training","adjacent","ED","5","4","Q.jpg","N.jpg","0","0","1","",""
"","feedback","","html-keyboard-response","14","80134","0.0-1.0-15.0-0.0","0","0","33660","","null","","","null","1","","","","","","","","","","","","","","","",""
"","ITI","","html-keyboard-response","15","81137","0.0-1.0-18.0","0","0","33660","","null","","","null","1","","","","","","","","","","","","","","","NaN",""
"","S1","","html-keyboard-response","16","81390","0.0-1.0-20.0","0","0","33660","","null","","","null","2","","","","","","","","","","","","","","","",""
"","ISI","","html-keyboard-response","17","83392","0.0-1.0-21.0","0","0","33660","","null","","","null","2","NaN","","","","","","","","","","","","","","",""
"","S2","","html-keyboard-response","18","83645","0.0-1.0-22.0","0","0","33660","","null","","","null","2","","NaN","","","","","","","","","","","","","",""
"","response","","html-keyboard-response","19","84251","0.0-1.0-23.0","0","0","33660","","603","","","75","2","","","1","2","training","adjacent","EF","5","6","Q.jpg","O.jpg","0","1","0","",""
"","feedback","","html-keyboard-response","20","85254","0.0-1.0-24.0-0.0","0","0","33660","","null","","","null","2","","","","","","","","","","","","","","","",""
"","time_out","","html-keyboard-response","21","87257","0.0-1.0-26.0-0.0","0","0","33660","","null","","","null","2","","","","","","","","","","","","","","","",""
"","ITI","","html-keyboard-response","22","88260","0.0-1.0-27.0","0","0","33660","","null","","","null","2","","","","","","","","","","","","","","","NaN",""
"","S1","","html-keyboard-response","23","88513","0.0-1.0-29.0","0","0","33660","","null","","","null","3","","","","","","","","","","","","","","","",""
"","ISI","","html-keyboard-response","24","90515","0.0-1.0-30.0","0","0","33660","","null","","","null","3","NaN","","","","","","","","","","","","","","",""
"","S2","","html-keyboard-response","25","90768","0.0-1.0-31.0","0","0","33660","","null","","","null","3","","NaN","","","","","","","","","","","","","",""
"","response","","html-keyboard-response","26","91323","0.0-1.0-32.0","0","0","33660","","552","","","68","3","","","1","3","training","adjacent","AB","1","2","P.jpg","R.jpg","1","1","1","",""
"","feedback","","html-keyboard-response","27","92326","0.0-1.0-33.0-0.0","0","0","33660","","null","","","null","3","","","","","","","","","","","","","","","",""
"","ITI","","html-keyboard-response","28","93329","0.0-1.0-36.0","0","0","33660","","null","","","null","3","","","","","","","","","","","","","","","NaN",""
"","S1","","html-keyboard-response","29","93584","0.0-1.0-38.0","0","0","33660","","null","","","null","4","","","","","","","","","","","","","","","",""
"","ISI","","html-keyboard-response","30","95587","0.0-1.0-39.0","0","0","33660","","null","","","null","4","NaN","","","","","","","","","","","","","","",""
"","S2","","html-keyboard-response","31","95840","0.0-1.0-40.0","0","0","33660","","null","","","null","4","","NaN","","","","","","","","","","","","","",""
"","response","","html-keyboard-response","32","96363","0.0-1.0-41.0","0","0","33660","","520","","","68","4","","","1","4","training","adjacent","DC","4","3","N.jpg","L.jpg","1","0","0","",""
"","feedback","","html-keyboard-response","33","97366","0.0-1.0-42.0-0.0","0","0","33660","","null","","","null","4","","","","","","","","","","","","","","","",""
"","time_out","","html-keyboard-response","34","99369","0.0-1.0-44.0-0.0","0","0","33660","","null","","","null","4","","","","","","","","","","","","","","","",""
"","ITI","","html-keyboard-response","35","100373","0.0-1.0-45.0","0","0","33660","","null","","","null","4","","","","","","","","","","","","","","","NaN",""
"","S1","","html-keyboard-response","36","100628","0.0-1.0-47.0","0","0","33660","","null","","","null","5","","","","","","","","","","","","","","","",""
"","ISI","","html-keyboard-response","37","102630","0.0-1.0-48.0","0","0","33660","","null","","","null","5","NaN","","","","","","","","","","","","","","",""
"","S2","","html-keyboard-response","38","102886","0.0-1.0-49.0","0","0","33660","","null","","","null","5","","NaN","","","","","","","","","","","","","",""
"","response","","html-keyboard-response","39","103467","0.0-1.0-50.0","0","0","33660","","578","","","68","5","","","1","5","training","adjacent","DE","4","5","N.jpg","Q.jpg","1","1","1","",""
"","feedback","","html-keyboard-response","40","104470","0.0-1.0-51.0-0.0","0","0","33660","","null","","","null","5","","","","","","","","","","","","","","","",""
"","ITI","","html-keyboard-response","41","105473","0.0-1.0-54.0","0","0","33660","","null","","","null","5","","","","","","","","","","","","","","","NaN",""
"","S1","","html-keyboard-response","42","105726","0.0-1.0-56.0","0","0","33660","","null","","","null","6","","","","","","","","","","","","","","","",""
"","ISI","","html-keyboard-response","43","107729","0.0-1.0-57.0","0","0","33660","","null","","","null","6","NaN","","","","","","","","","","","","","","",""
"","S2","","html-keyboard-response","44","107982","0.0-1.0-58.0","0","0","33660","","null","","","null","6","","NaN","","","","","","","","","","","","","",""
"","response","","html-keyboard-response","45","108499","0.0-1.0-59.0","0","0","33660","","514","","","75","6","","","1","6","training","adjacent","EF","5","6","Q.jpg","O.jpg","0","1","0","",""
"","feedback","","html-keyboard-response","46","109502","0.0-1.0-60.0-0.0","0","0","33660","","null","","","null","6","","","","","","","","","","","","","","","",""
"","time_out","","html-keyboard-response","47","111505","0.0-1.0-62.0-0.0","0","0","33660","","null","","","null","6","","","","","","","","","","","","","","","",""
"","ITI","","html-keyboard-response","48","112509","0.0-1.0-63.0","0","0","33660","","null","","","null","6","","","","","","","","","","","","","","","NaN",""
"","S1","","html-keyboard-response","49","112762","0.0-1.0-65.0","0","0","33660","","null","","","null","7","","","","","","","","","","","","","","","",""
"","ISI","","html-keyboard-response","50","114764","0.0-1.0-66.0","0","0","33660","","null","","","null","7","NaN","","","","","","","","","","","","","","",""
"","S2","","html-keyboard-response","51","115018","0.0-1.0-67.0","0","0","33660","","null","","","null","7","","NaN","","","","","","","","","","","","","",""
"","response","","html-keyboard-response","52","115291","0.0-1.0-68.0","0","0","33660","","270","","","68","7","","","1","7","training","adjacent","FE","6","5","O.jpg","Q.jpg","1","0","0","",""
"","feedback","","html-keyboard-response","53","116294","0.0-1.0-69.0-0.0","0","0","33660","","null","","","null","7","","","","","","","","","","","","","","","",""
"","time_out","","html-keyboard-response","54","118298","0.0-1.0-71.0-0.0","0","0","33660","","null","","","null","7","","","","","","","","","","","","","","","",""
"","ITI","","html-keyboard-response","55","119302","0.0-1.0-72.0","0","0","33660","","null","","","null","7","","","","","","","","","","","","","","","NaN",""
"","S1","","html-keyboard-response","56","119571","0.0-1.0-74.0","0","0","33660","","null","","","null","8","","","","","","","","","","","","","","","",""
"","ISI","","html-keyboard-response","57","121573","0.0-1.0-75.0","0","0","33660","","null","","","null","8","NaN","","","","","","","","","","","","","","",""
"","S2","","html-keyboard-response","58","121826","0.0-1.0-76.0","0","0","33660","","null","","","null","8","","NaN","","","","","","","","","","","","","",""
"","response","","html-keyboard-response","59","122451","0.0-1.0-77.0","0","0","33660","","621","","","75","8","","","1","8","training","adjacent","BA","2","1","R.jpg","P.jpg","0","0","1","",""
"","feedback","","html-keyboard-response","60","123455","0.0-1.0-78.0-0.0","0","0","33660","","null","","","null","8","","","","","","","","","","","","","","","",""
"","ITI","","html-keyboard-response","61","124458","0.0-1.0-81.0","0","0","33660","","null","","","null","8","","","","","","","","","","","","","","","NaN",""
"","S1","","html-keyboard-response","62","124711","0.0-1.0-83.0","0","0","33660","","null","","","null","9","","","","","","","","","","","","","","","",""
"","ISI","","html-keyboard-response","63","126713","0.0-1.0-84.0","0","0","33660","","null","","","null","9","NaN","","","","","","","","","","","","","","",""
"","S2","","html-keyboard-response","64","126967","0.0-1.0-85.0","0","0","33660","","null","","","null","9","","NaN","","","","","","","","","","","","","",""
"","response","","html-keyboard-response","65","127451","0.0-1.0-86.0","0","0","33660","","481","","","75","9","","","1","9","training","adjacent","BA","2","1","R.jpg","P.jpg","0","0","1","",""
"","feedback","","html-keyboard-response","66","128454","0.0-1.0-87.0-0.0","0","0","33660","","null","","","null","9","","","","","","","","","","","","","","","",""
"","ITI","","html-keyboard-response","67","129457","0.0-1.0-90.0","0","0","33660","","null","","","null","9","","","","","","","","","","","","","","","NaN",""
"","S1","","html-keyboard-response","68","129711","0.0-1.0-92.0","0","0","33660","","null","","","null","10","","","","","","","","","","","","","","","",""
"","ISI","","html-keyboard-response","69","131713","0.0-1.0-93.0","0","0","33660","","null","","","null","10","NaN","","","","","","","","","","","","","","",""
"","S2","","html-keyboard-response","70","131966","0.0-1.0-94.0","0","0","33660","","null","","","null","10","","NaN","","","","","","","","","","","","","",""
"","response","","html-keyboard-response","71","132219","0.0-1.0-95.0","0","0","33660","","250","","","75","10","","","1","10","training","adjacent","FG","6","7","O.jpg","M.jpg","0","1","0","",""
"","feedback","","html-keyboard-response","72","133222","0.0-1.0-96.0-0.0","0","0","33660","","null","","","null","10","","","","","","","","","","","","","","","",""
"","time_out","","html-keyboard-response","73","135225","0.0-1.0-98.0-0.0","0","0","33660","","null","","","null","10","","","","","","","","","","","","","","","",""
"","ITI","","html-keyboard-response","74","136228","0.0-1.0-99.0","0","0","33660","","null","","","null","10","","","","","","","","","","","","","","","NaN",""
"","S1","","html-keyboard-response","75","136481","0.0-1.0-101.0","0","0","33660","","null","","","null","11","","","","","","","","","","","","","","","",""
"","ISI","","html-keyboard-response","76","138484","0.0-1.0-102.0","0","0","33660","","null","","","null","11","NaN","","","","","","","","","","","","","","",""
"","S2","","html-keyboard-response","77","138738","0.0-1.0-103.0","0","0","33660","","null","","","null","11","","NaN","","","","","","","","","","","","","",""
"","response","","html-keyboard-response","78","139028","0.0-1.0-104.0","0","0","33660","","287","","","75","11","","","1","11","training","adjacent","EF","5","6","Q.jpg","O.jpg","0","1","0","",""
"","feedback","","html-keyboard-response","79","140032","0.0-1.0-105.0-0.0","0","0","33660","","null","","","null","11","","","","","","","","","","","","","","","",""
"","time_out","","html-keyboard-response","80","142034","0.0-1.0-107.0-0.0","0","0","33660","","null","","","null","11","","","","","","","","","","","","","","","",""
"","ITI","","html-keyboard-response","81","143039","0.0-1.0-108.0","0","0","33660","","null","","","null","11","","","","","","","","","","","","","","","NaN",""
"","S1","","html-keyboard-response","82","143291","0.0-1.0-110.0","0","0","33660","","null","","","null","12","","","","","","","","","","","","","","","",""
"","ISI","","html-keyboard-response","83","145293","0.0-1.0-111.0","0","0","33660","","null","","","null","12","NaN","","","","","","","","","","","","","","",""
"","S2","","html-keyboard-response","84","145549","0.0-1.0-112.0","0","0","33660","","null","","","null","12","","NaN","","","","","","","","","","","","","",""
"","response","","html-keyboard-response","85","145859","0.0-1.0-113.0","0","0","33660","","307","","","75","12","","","1","12","training","adjacent","GF","7","6","M.jpg","O.jpg","0","0","1","",""
"","feedback","","html-keyboard-response","86","146862","0.0-1.0-114.0-0.0","0","0","33660","","null","","","null","12","","","","","","","","","","","","","","","",""
"","ITI","","html-keyboard-response","87","147867","0.0-1.0-117.0","0","0","33660","","null","","","null","12","","","","","","","","","","","","","","","NaN",""
"","S1","","html-keyboard-response","88","148120","0.0-1.0-119.0","0","0","33660","","null","","","null","13","","","","","","","","","","","","","","","",""
"","ISI","","html-keyboard-response","89","150122","0.0-1.0-120.0","0","0","33660","","null","","","null","13","NaN","","","","","","","","","","","","","","",""
"","S2","","html-keyboard-response","90","150375","0.0-1.0-121.0","0","0","33660","","null","","","null","13","","NaN","","","","","","","","","","","","","",""
"","response","","html-keyboard-response","91","150763","0.0-1.0-122.0","0","0","33660","","385","","","75","13","","","1","13","training","adjacent","GF","7","6","M.jpg","O.jpg","0","0","1","",""
"","feedback","","html-keyboard-response","92","151766","0.0-1.0-123.0-0.0","0","0","33660","","null","","","null","13","","","","","","","","","","","","","","","",""
"","ITI","","html-keyboard-response","93","152769","0.0-1.0-126.0","0","0","33660","","null","","","null","13","","","","","","","","","","","","","","","NaN",""
"","S1","","html-keyboard-response","94","153022","0.0-1.0-128.0","0","0","33660","","null","","","null","14","","","","","","","","","","","","","","","",""
"","ISI","","html-keyboard-response","95","155024","0.0-1.0-129.0","0","0","33660","","null","","","null","14","NaN","","","","","","","","","","","","","","",""
"","S2","","html-keyboard-response","96","155277","0.0-1.0-130.0","0","0","33660","","null","","","null","14","","NaN","","","","","","","","","","","","","",""
"","response","","html-keyboard-response","97","155908","0.0-1.0-131.0","0","0","33660","","627","","","75","14","","","1","14","training","adjacent","DC","4","3","N.jpg","L.jpg","0","0","1","",""
"","feedback","","html-keyboard-response","98","156911","0.0-1.0-132.0-0.0","0","0","33660","","null","","","null","14","","","","","","","","","","","","","","","",""
"","ITI","","html-keyboard-response","99","157914","0.0-1.0-135.0","0","0","33660","","null","","","null","14","","","","","","","","","","","","","","","NaN",""
"","S1","","html-keyboard-response","100","158167","0.0-1.0-137.0","0","0","33660","","null","","","null","15","","","","","","","","","","","","","","","",""
"","ISI","","html-keyboard-response","101","160169","0.0-1.0-138.0","0","0","33660","","null","","","null","15","NaN","","","","","","","","","","","","","","",""
"","S2","","html-keyboard-response","102","160423","0.0-1.0-139.0","0","0","33660","","null","","","null","15","","NaN","","","","","","","","","","","","","",""
"","response","","html-keyboard-response","103","160899","0.0-1.0-140.0","0","0","33660","","473","","","68","15","","","1","15","training","adjacent","CB","3","2","L.jpg","R.jpg","1","0","0","",""
"","feedback","","html-keyboard-response","104","161902","0.0-1.0-141.0-0.0","0","0","33660","","null","","","null","15","","","","","","","","","","","","","","","",""
"","time_out","","html-keyboard-response","105","163911","0.0-1.0-143.0-0.0","0","0","33660","","null","","","null","15","","","","","","","","","","","","","","","",""
"","ITI","","html-keyboard-response","106","164918","0.0-1.0-144.0","0","0","33660","","null","","","null","15","","","","","","","","","","","","","","","NaN",""
"","S1","","html-keyboard-response","107","165172","0.0-1.0-146.0","0","0","33660","","null","","","null","16","","","","","","","","","","","","","","","",""
"","ISI","","html-keyboard-response","108","167175","0.0-1.0-147.0","0","0","33660","","null","","","null","16","NaN","","","","","","","","","","","","","","",""
"","S2","","html-keyboard-response","109","167429","0.0-1.0-148.0","0","0","33660","","null","","","null","16","","NaN","","","","","","","","","","","","","",""
"","response","","html-keyboard-response","110","168171","0.0-1.0-149.0","0","0","33660","","739","","","68","16","","","1","16","training","adjacent","BC","2","3","R.jpg","L.jpg","1","1","1","",""
"","feedback","","html-keyboard-response","111","169174","0.0-1.0-150.0-0.0","0","0","33660","","null","","","null","16","","","","","","","","","","","","","","","",""
"","ITI","","html-keyboard-response","112","170177","0.0-1.0-153.0","0","0","33660","","null","","","null","16","","","","","","","","","","","","","","","NaN",""
"","S1","","html-keyboard-response","113","170430","0.0-1.0-155.0","0","0","33660","","null","","","null","17","","","","","","","","","","","","","","","",""
"","ISI","","html-keyboard-response","114","172433","0.0-1.0-156.0","0","0","33660","","null","","","null","17","NaN","","","","","","","","","","","","","","",""
"","S2","","html-keyboard-response","115","172686","0.0-1.0-157.0","0","0","33660","","null","","","null","17","","NaN","","","","","","","","","","","","","",""
"","response","","html-keyboard-response","116","173475","0.0-1.0-158.0","0","0","33660","","786","","","75","17","","","1","17","training","adjacent","DE","4","5","N.jpg","Q.jpg","0","1","0","",""
"","feedback","","html-keyboard-response","117","174478","0.0-1.0-159.0-0.0","0","0","33660","","null","","","null","17","","","","","","","","","","","","","","","",""
"","time_out","","html-keyboard-response","118","176481","0.0-1.0-161.0-0.0","0","0","33660","","null","","","null","17","","","","","","","","","","","","","","","",""
"","ITI","","html-keyboard-response","119","177485","0.0-1.0-162.0","0","0","33660","","null","","","null","17","","","","","","","","","","","","","","","NaN",""
"","S1","","html-keyboard-response","120","177738","0.0-1.0-164.0","0","0","33660","","null","","","null","18","","","","","","","","","","","","","","","",""
"","ISI","","html-keyboard-response","121","179741","0.0-1.0-165.0","0","0","33660","","null","","","null","18","NaN","","","","","","","","","","","","","","",""
"","S2","","html-keyboard-response","122","179994","0.0-1.0-166.0","0","0","33660","","null","","","null","18","","NaN","","","","","","","","","","","","","",""
"","response","","html-keyboard-response","123","180596","0.0-1.0-167.0","0","0","33660","","598","","","75","18","","","1","18","training","adjacent","DC","4","3","N.jpg","L.jpg","0","0","1","",""
"","feedback","","html-keyboard-response","124","181598","0.0-1.0-168.0-0.0","0","0","33660","","null","","","null","18","","","","","","","","","","","","","","","",""
"","ITI","","html-keyboard-response","125","182604","0.0-1.0-171.0","0","0","33660","","null","","","null","18","","","","","","","","","","","","","","","NaN",""
"","S1","","html-keyboard-response","126","182856","0.0-1.0-173.0","0","0","33660","","null","","","null","19","","","","","","","","","","","","","","","",""
"","ISI","","html-keyboard-response","127","184859","0.0-1.0-174.0","0","0","33660","","null","","","null","19","NaN","","","","","","","","","","","","","","",""
"","S2","","html-keyboard-response","128","185113","0.0-1.0-175.0","0","0","33660","","null","","","null","19","","NaN","","","","","","","","","","","","","",""
"","response","","html-keyboard-response","129","185643","0.0-1.0-176.0","0","0","33660","","527","","","75","19","","","1","19","training","adjacent","EF","5","6","Q.jpg","O.jpg","0","1","0","",""
"","feedback","","html-keyboard-response","130","186646","0.0-1.0-177.0-0.0","0","0","33660","","null","","","null","19","","","","","","","","","","","","","","","",""
"","time_out","","html-keyboard-response","131","188650","0.0-1.0-179.0-0.0","0","0","33660","","null","","","null","19","","","","","","","","","","","","","","","",""
"","ITI","","html-keyboard-response","132","189652","0.0-1.0-180.0","0","0","33660","","null","","","null","19","","","","","","","","","","","","","","","NaN",""
"","S1","","html-keyboard-response","133","189905","0.0-1.0-182.0","0","0","33660","","null","","","null","20","","","","","","","","","","","","","","","",""
"","ISI","","html-keyboard-response","134","191908","0.0-1.0-183.0","0","0","33660","","null","","","null","20","NaN","","","","","","","","","","","","","","",""
"","S2","","html-keyboard-response","135","192161","0.0-1.0-184.0","0","0","33660","","null","","","null","20","","NaN","","","","","","","","","","","","","",""
"","response","","html-keyboard-response","136","192588","0.0-1.0-185.0","0","0","33660","","423","","","68","20","","","1","20","training","adjacent","AB","1","2","P.jpg","R.jpg","1","1","1","",""
"","feedback","","html-keyboard-response","137","193591","0.0-1.0-186.0-0.0","0","0","33660","","null","","","null","20","","","","","","","","","","","","","","","",""
"","ITI","","html-keyboard-response","138","194595","0.0-1.0-189.0","0","0","33660","","null","","","null","20","","","","","","","","","","","","","","","NaN",""
"","S1","","html-keyboard-response","139","194848","0.0-1.0-191.0","0","0","33660","","null","","","null","21","","","","","","","","","","","","","","","",""
"","ISI","","html-keyboard-response","140","196851","0.0-1.0-192.0","0","0","33660","","null","","","null","21","NaN","","","","","","","","","","","","","","",""
"","S2","","html-keyboard-response","141","197105","0.0-1.0-193.0","0","0","33660","","null","","","null","21","","NaN","","","","","","","","","","","","","",""
"","response","","html-keyboard-response","142","197595","0.0-1.0-194.0","0","0","33660","","487","","","68","21","","","1","21","training","adjacent","FE","6","5","O.jpg","Q.jpg","1","0","0","",""
"","feedback","","html-keyboard-response","143","198612","0.0-1.0-195.0-0.0","0","0","33660","","null","","","null","21","","","","","","","","","","","","","","","",""
"","time_out","","html-keyboard-response","144","200614","0.0-1.0-197.0-0.0","0","0","33660","","null","","","null","21","","","","","","","","","","","","","","","",""
"","ITI","","html-keyboard-response","145","201639","0.0-1.0-198.0","0","0","33660","","null","","","null","21","","","","","","","","","","","","","","","NaN",""
"","S1","","html-keyboard-response","146","201892","0.0-1.0-200.0","0","0","33660","","null","","","null","22","","","","","","","","","","","","","","","",""
"","ISI","","html-keyboard-response","147","203905","0.0-1.0-201.0","0","0","33660","","null","","","null","22","NaN","","","","","","","","","","","","","","",""
"","S2","","html-keyboard-response","148","204159","0.0-1.0-202.0","0","0","33660","","null","","","null","22","","NaN","","","","","","","","","","","","","",""
"","response","","html-keyboard-response","149","204748","0.0-1.0-203.0","0","0","33660","","585","","","75","22","","","1","22","training","adjacent","BA","2","1","R.jpg","P.jpg","0","0","1","",""
"","feedback","","html-keyboard-response","150","205751","0.0-1.0-204.0-0.0","0","0","33660","","null","","","null","22","","","","","","","","","","","","","","","",""
"","ITI","","html-keyboard-response","151","206754","0.0-1.0-207.0","0","0","33660","","null","","","null","22","","","","","","","","","","","","","","","NaN",""
"","S1","","html-keyboard-response","152","207008","0.0-1.0-209.0","0","0","33660","","null","","","null","23","","","","","","","","","","","","","","","",""
"","ISI","","html-keyboard-response","153","209011","0.0-1.0-210.0","0","0","33660","","null","","","null","23","NaN","","","","","","","","","","","","","","",""
"","S2","","html-keyboard-response","154","209264","0.0-1.0-211.0","0","0","33660","","null","","","null","23","","NaN","","","","","","","","","","","","","",""
"","response","","html-keyboard-response","155","209683","0.0-1.0-212.0","0","0","33660","","416","","","68","23","","","1","23","training","adjacent","BC","2","3","R.jpg","L.jpg","1","1","1","",""
"","feedback","","html-keyboard-response","156","210686","0.0-1.0-213.0-0.0","0","0","33660","","null","","","null","23","","","","","","","","","","","","","","","",""
"","ITI","","html-keyboard-response","157","211689","0.0-1.0-216.0","0","0","33660","","null","","","null","23","","","","","","","","","","","","","","","NaN",""
"","S1","","html-keyboard-response","158","211944","0.0-1.0-218.0","0","0","33660","","null","","","null","24","","","","","","","","","","","","","","","",""
"","ISI","","html-keyboard-response","159","213947","0.0-1.0-219.0","0","0","33660","","null","","","null","24","NaN","","","","","","","","","","","","","","",""
"","S2","","html-keyboard-response","160","214200","0.0-1.0-220.0","0","0","33660","","null","","","null","24","","NaN","","","","","","","","","","","","","",""
"","response","","html-keyboard-response","161","214915","0.0-1.0-221.0","0","0","33660","","712","","","75","24","","","1","24","training","adjacent","CD","3","4","L.jpg","N.jpg","0","1","0","",""
"","feedback","","html-keyboard-response","162","215918","0.0-1.0-222.0-0.0","0","0","33660","","null","","","null","24","","","","","","","","","","","","","","","",""
"","time_out","","html-keyboard-response","163","217921","0.0-1.0-224.0-0.0","0","0","33660","","null","","","null","24","","","","","","","","","","","","","","","",""
"","ITI","","html-keyboard-response","164","218924","0.0-1.0-225.0","0","0","33660","","null","","","null","24","","","","","","","","","","","","","","","NaN",""
"","S1","","html-keyboard-response","165","219177","0.0-1.0-227.0","0","0","33660","","null","","","null","25","","","","","","","","","","","","","","","",""
"","ISI","","html-keyboard-response","166","221181","0.0-1.0-228.0","0","0","33660","","null","","","null","25","NaN","","","","","","","","","","","","","","",""
"","S2","","html-keyboard-response","167","221434","0.0-1.0-229.0","0","0","33660","","null","","","null","25","","NaN","","","","","","","","","","","","","",""
"","response","","html-keyboard-response","168","221796","0.0-1.0-230.0","0","0","33660","","358","","","68","25","","","1","25","training","adjacent","FG","6","7","O.jpg","M.jpg","1","1","1","",""
"","feedback","","html-keyboard-response","169","222799","0.0-1.0-231.0-0.0","0","0","33660","","null","","","null","25","","","","","","","","","","","","","","","",""
"","ITI","","html-keyboard-response","170","223802","0.0-1.0-234.0","0","0","33660","","null","","","null","25","","","","","","","","","","","","","","","NaN",""
"","S1","","html-keyboard-response","171","224055","0.0-1.0-236.0","0","0","33660","","null","","","null","26","","","","","","","","","","","","","","","",""
"","ISI","","html-keyboard-response","172","226057","0.0-1.0-237.0","0","0","33660","","null","","","null","26","NaN","","","","","","","","","","","","","","",""
"","S2","","html-keyboard-response","173","226310","0.0-1.0-238.0","0","0","33660","","null","","","null","26","","NaN","","","","","","","","","","","","","",""
"","response","","html-keyboard-response","174","227195","0.0-1.0-239.0","0","0","33660","","882","","","75","26","","","1","26","training","adjacent","CD","3","4","L.jpg","N.jpg","0","1","0","",""
"","feedback","","html-keyboard-response","175","228198","0.0-1.0-240.0-0.0","0","0","33660","","null","","","null","26","","","","","","","","","","","","","","","",""
"","time_out","","html-keyboard-response","176","230200","0.0-1.0-242.0-0.0","0","0","33660","","null","","","null","26","","","","","","","","","","","","","","","",""
"","ITI","","html-keyboard-response","177","231202","0.0-1.0-243.0","0","0","33660","","null","","","null","26","","","","","","","","","","","","","","","NaN",""
"","S1","","html-keyboard-response","178","231455","0.0-1.0-245.0","0","0","33660","","null","","","null","27","","","","","","","","","","","","","","","",""
"","ISI","","html-keyboard-response","179","233458","0.0-1.0-246.0","0","0","33660","","null","","","null","27","NaN","","","","","","","","","","","","","","",""
"","S2","","html-keyboard-response","180","233711","0.0-1.0-247.0","0","0","33660","","null","","","null","27","","NaN","","","","","","","","","","","","","",""
"","response","","html-keyboard-response","181","234083","0.0-1.0-248.0","0","0","33660","","369","","","68","27","","","1","27","training","adjacent","BC","2","3","R.jpg","L.jpg","1","1","1","",""
"","feedback","","html-keyboard-response","182","235086","0.0-1.0-249.0-0.0","0","0","33660","","null","","","null","27","","","","","","","","","","","","","","","",""
"","ITI","","html-keyboard-response","183","236089","0.0-1.0-252.0","0","0","33660","","null","","","null","27","","","","","","","","","","","","","","","NaN",""
"","S1","","html-keyboard-response","184","236342","0.0-1.0-254.0","0","0","33660","","null","","","null","28","","","","","","","","","","","","","","","",""
"","ISI","","html-keyboard-response","185","238344","0.0-1.0-255.0","0","0","33660","","null","","","null","28","NaN","","","","","","","","","","","","","","",""
"","S2","","html-keyboard-response","186","238601","0.0-1.0-256.0","0","0","33660","","null","","","null","28","","NaN","","","","","","","","","","","","","",""
"","response","","html-keyboard-response","187","239147","0.0-1.0-257.0","0","0","33660","","543","","","68","28","","","1","28","training","adjacent","AB","1","2","P.jpg","R.jpg","1","1","1","",""
"","feedback","","html-keyboard-response","188","240150","0.0-1.0-258.0-0.0","0","0","33660","","null","","","null","28","","","","","","","","","","","","","","","",""
"","ITI","","html-keyboard-response","189","241153","0.0-1.0-261.0","0","0","33660","","null","","","null","28","","","","","","","","","","","","","","","NaN",""
"","S1","","html-keyboard-response","190","241406","0.0-1.0-263.0","0","0","33660","","null","","","null","29","","","","","","","","","","","","","","","",""
"","ISI","","html-keyboard-response","191","243408","0.0-1.0-264.0","0","0","33660","","null","","","null","29","NaN","","","","","","","","","","","","","","",""
"","S2","","html-keyboard-response","192","243661","0.0-1.0-265.0","0","0","33660","","null","","","null","29","","NaN","","","","","","","","","","","","","",""
"","response","","html-keyboard-response","193","244523","0.0-1.0-266.0","0","0","33660","","859","","","75","29","","","1","29","training","adjacent","CB","3","2","L.jpg","R.jpg","0","0","1","",""
"","feedback","","html-keyboard-response","194","245528","0.0-1.0-267.0-0.0","0","0","33660","","null","","","null","29","","","","","","","","","","","","","","","",""
"","ITI","","html-keyboard-response","195","246531","0.0-1.0-270.0","0","0","33660","","null","","","null","29","","","","","","","","","","","","","","","NaN",""
"","S1","","html-keyboard-response","196","246784","0.0-1.0-272.0","0","0","33660","","null","","","null","30","","","","","","","","","","","","","","","",""
"","ISI","","html-keyboard-response","197","248788","0.0-1.0-273.0","0","0","33660","","null","","","null","30","NaN","","","","","","","","","","","","","","",""
"","S2","","html-keyboard-response","198","249041","0.0-1.0-274.0","0","0","33660","","null","","","null","30","","NaN","","","","","","","","","","","","","",""
"","response","","html-keyboard-response","199","249963","0.0-1.0-275.0","0","0","33660","","919","","","75","30","","","1","30","training","adjacent","ED","5","4","Q.jpg","N.jpg","0","0","1","",""
"","feedback","","html-keyboard-response","200","250967","0.0-1.0-276.0-0.0","0","0","33660","","null","","","null","30","","","","","","","","","","","","","","","",""
"","ITI","","html-keyboard-response","201","251970","0.0-1.0-279.0","0","0","33660","","null","","","null","30","","","","","","","","","","","","","","","NaN",""
"","S1","","html-keyboard-response","202","252223","0.0-1.0-281.0","0","0","33660","","null","","","null","31","","","","","","","","","","","","","","","",""
"","ISI","","html-keyboard-response","203","254227","0.0-1.0-282.0","0","0","33660","","null","","","null","31","NaN","","","","","","","","","","","","","","",""
"","S2","","html-keyboard-response","204","254480","0.0-1.0-283.0","0","0","33660","","null","","","null","31","","NaN","","","","","","","","","","","","","",""
"","response","","html-keyboard-response","205","255331","0.0-1.0-284.0","0","0","33660","","849","","","75","31","","","1","31","training","adjacent","BC","2","3","R.jpg","L.jpg","0","1","0","",""
"","feedback","","html-keyboard-response","206","256334","0.0-1.0-285.0-0.0","0","0","33660","","null","","","null","31","","","","","","","","","","","","","","","",""
"","time_out","","html-keyboard-response","207","258337","0.0-1.0-287.0-0.0","0","0","33660","","null","","","null","31","","","","","","","","","","","","","","","",""
"","ITI","","html-keyboard-response","208","259339","0.0-1.0-288.0","0","0","33660","","null","","","null","31","","","","","","","","","","","","","","","NaN",""
"","S1","","html-keyboard-response","209","259592","0.0-1.0-290.0","0","0","33660","","null","","","null","32","","","","","","","","","","","","","","","",""
"","ISI","","html-keyboard-response","210","261596","0.0-1.0-291.0","0","0","33660","","null","","","null","32","NaN","","","","","","","","","","","","","","",""
"","S2","","html-keyboard-response","211","261849","0.0-1.0-292.0","0","0","33660","","null","","","null","32","","NaN","","","","","","","","","","","","","",""
"","response","","html-keyboard-response","212","262644","0.0-1.0-293.0","0","0","33660","","791","","","68","32","","","1","32","training","adjacent","DE","4","5","N.jpg","Q.jpg","1","1","1","",""
"","feedback","","html-keyboard-response","213","263647","0.0-1.0-294.0-0.0","0","0","33660","","null","","","null","32","","","","","","","","","","","","","","","",""
"","ITI","","html-keyboard-response","214","264649","0.0-1.0-297.0","0","0","33660","","null","","","null","32","","","","","","","","","","","","","","","NaN",""
"","S1","","html-keyboard-response","215","264902","0.0-1.0-299.0","0","0","33660","","null","","","null","33","","","","","","","","","","","","","","","",""
"","ISI","","html-keyboard-response","216","266904","0.0-1.0-300.0","0","0","33660","","null","","","null","33","NaN","","","","","","","","","","","","","","",""
"","S2","","html-keyboard-response","217","267157","0.0-1.0-301.0","0","0","33660","","null","","","null","33","","NaN","","","","","","","","","","","","","",""
"","response","","html-keyboard-response","218","267676","0.0-1.0-302.0","0","0","33660","","516","","","75","33","","","1","33","training","adjacent","BA","2","1","R.jpg","P.jpg","0","0","1","",""
"","feedback","","html-keyboard-response","219","268679","0.0-1.0-303.0-0.0","0","0","33660","","null","","","null","33","","","","","","","","","","","","","","","",""
"","ITI","","html-keyboard-response","220","269682","0.0-1.0-306.0","0","0","33660","","null","","","null","33","","","","","","","","","","","","","","","NaN",""
"","S1","","html-keyboard-response","221","269935","0.0-1.0-308.0","0","0","33660","","null","","","null","34","","","","","","","","","","","","","","","",""
"","ISI","","html-keyboard-response","222","271938","0.0-1.0-309.0","0","0","33660","","null","","","null","34","NaN","","","","","","","","","","","","","","",""
"","S2","","html-keyboard-response","223","272191","0.0-1.0-310.0","0","0","33660","","null","","","null","34","","NaN","","","","","","","","","","","","","",""
"","response","","html-keyboard-response","224","272515","0.0-1.0-311.0","0","0","33660","","321","","","68","34","","","1","34","training","adjacent","FG","6","7","O.jpg","M.jpg","1","1","1","",""
"","feedback","","html-keyboard-response","225","273519","0.0-1.0-312.0-0.0","0","0","33660","","null","","","null","34","","","","","","","","","","","","","","","",""
"","ITI","","html-keyboard-response","226","274522","0.0-1.0-315.0","0","0","33660","","null","","","null","34","","","","","","","","","","","","","","","NaN",""
"","S1","","html-keyboard-response","227","274776","0.0-1.0-317.0","0","0","33660","","null","","","null","35","","","","","","","","","","","","","","","",""
"","ISI","","html-keyboard-response","228","276778","0.0-1.0-318.0","0","0","33660","","null","","","null","35","NaN","","","","","","","","","","","","","","",""
"","S2","","html-keyboard-response","229","277031","0.0-1.0-319.0","0","0","33660","","null","","","null","35","","NaN","","","","","","","","","","","","","",""
"","response","","html-keyboard-response","230","277379","0.0-1.0-320.0","0","0","33660","","345","","","68","35","","","1","35","training","adjacent","CD","3","4","L.jpg","N.jpg","1","1","1","",""
"","feedback","","html-keyboard-response","231","278381","0.0-1.0-321.0-0.0","0","0","33660","","null","","","null","35","","","","","","","","","","","","","","","",""
"","ITI","","html-keyboard-response","232","279384","0.0-1.0-324.0","0","0","33660","","null","","","null","35","","","","","","","","","","","","","","","NaN",""
"","S1","","html-keyboard-response","233","279637","0.0-1.0-326.0","0","0","33660","","null","","","null","36","","","","","","","","","","","","","","","",""
"","ISI","","html-keyboard-response","234","281649","0.0-1.0-327.0","0","0","33660","","null","","","null","36","NaN","","","","","","","","","","","","","","",""
"","S2","","html-keyboard-response","235","281902","0.0-1.0-328.0","0","0","33660","","null","","","null","36","","NaN","","","","","","","","","","","","","",""
"","response","","html-keyboard-response","236","282458","0.0-1.0-329.0","0","0","33660","","553","","","75","36","","","1","36","training","adjacent","ED","5","4","Q.jpg","N.jpg","0","0","1","",""
"","feedback","","html-keyboard-response","237","283461","0.0-1.0-330.0-0.0","0","0","33660","","null","","","null","36","","","","","","","","","","","","","","","",""
"","ITI","","html-keyboard-response","238","284464","0.0-1.0-333.0","0","0","33660","","null","","","null","36","","","","","","","","","","","","","","","NaN",""
"","S1","","html-keyboard-response","239","284717","0.0-1.0-335.0","0","0","33660","","null","","","null","37","","","","","","","","","","","","","","","",""
"","ISI","","html-keyboard-response","240","286719","0.0-1.0-336.0","0","0","33660","","null","","","null","37","NaN","","","","","","","","","","","","","","",""
"","S2","","html-keyboard-response","241","286972","0.0-1.0-337.0","0","0","33660","","null","","","null","37","","NaN","","","","","","","","","","","","","",""
"","response","","html-keyboard-response","242","287394","0.0-1.0-338.0","0","0","33660","","419","","","75","37","","","1","37","training","adjacent","GF","7","6","M.jpg","O.jpg","0","0","1","",""
"","feedback","","html-keyboard-response","243","288397","0.0-1.0-339.0-0.0","0","0","33660","","null","","","null","37","","","","","","","","","","","","","","","",""
"","ITI","","html-keyboard-response","244","289400","0.0-1.0-342.0","0","0","33660","","null","","","null","37","","","","","","","","","","","","","","","NaN",""
"","S1","","html-keyboard-response","245","289653","0.0-1.0-344.0","0","0","33660","","null","","","null","38","","","","","","","","","","","","","","","",""
"","ISI","","html-keyboard-response","246","291655","0.0-1.0-345.0","0","0","33660","","null","","","null","38","NaN","","","","","","","","","","","","","","",""
"","S2","","html-keyboard-response","247","291908","0.0-1.0-346.0","0","0","33660","","null","","","null","38","","NaN","","","","","","","","","","","","","",""
"","response","","html-keyboard-response","248","292354","0.0-1.0-347.0","0","0","33660","","443","","","68","38","","","1","38","training","adjacent","CD","3","4","L.jpg","N.jpg","1","1","1","",""
"","feedback","","html-keyboard-response","249","293357","0.0-1.0-348.0-0.0","0","0","33660","","null","","","null","38","","","","","","","","","","","","","","","",""
"","ITI","","html-keyboard-response","250","294360","0.0-1.0-351.0","0","0","33660","","null","","","null","38","","","","","","","","","","","","","","","NaN",""
"","S1","","html-keyboard-response","251","294627","0.0-1.0-353.0","0","0","33660","","null","","","null","39","","","","","","","","","","","","","","","",""
"","ISI","","html-keyboard-response","252","296630","0.0-1.0-354.0","0","0","33660","","null","","","null","39","NaN","","","","","","","","","","","","","","",""
"","S2","","html-keyboard-response","253","296883","0.0-1.0-355.0","0","0","33660","","null","","","null","39","","NaN","","","","","","","","","","","","","",""
"","response","","html-keyboard-response","254","297427","0.0-1.0-356.0","0","0","33660","","540","","","75","39","","","1","39","training","adjacent","GF","7","6","M.jpg","O.jpg","0","0","1","",""
"","feedback","","html-keyboard-response","255","298430","0.0-1.0-357.0-0.0","0","0","33660","","null","","","null","39","","","","","","","","","","","","","","","",""
"","ITI","","html-keyboard-response","256","299433","0.0-1.0-360.0","0","0","33660","","null","","","null","39","","","","","","","","","","","","","","","NaN",""
"","S1","","html-keyboard-response","257","299687","0.0-1.0-362.0","0","0","33660","","null","","","null","40","","","","","","","","","","","","","","","",""
"","ISI","","html-keyboard-response","258","301689","0.0-1.0-363.0","0","0","33660","","null","","","null","40","NaN","","","","","","","","","","","","","","",""
"","S2","","html-keyboard-response","259","301942","0.0-1.0-364.0","0","0","33660","","null","","","null","40","","NaN","","","","","","","","","","","","","",""
"","response","","html-keyboard-response","260","302458","0.0-1.0-365.0","0","0","33660","","513","","","68","40","","","1","40","training","adjacent","DE","4","5","N.jpg","Q.jpg","1","1","1","",""
"","feedback","","html-keyboard-response","261","303462","0.0-1.0-366.0-0.0","0","0","33660","","null","","","null","40","","","","","","","","","","","","","","","",""
"","ITI","","html-keyboard-response","262","304465","0.0-1.0-369.0","0","0","33660","","null","","","null","40","","","","","","","","","","","","","","","NaN",""
"","S1","","html-keyboard-response","263","304718","0.0-1.0-371.0","0","0","33660","","null","","","null","41","","","","","","","","","","","","","","","",""
"","ISI","","html-keyboard-response","264","306723","0.0-1.0-372.0","0","0","33660","","null","","","null","41","NaN","","","","","","","","","","","","","","",""
"","S2","","html-keyboard-response","265","306976","0.0-1.0-373.0","0","0","33660","","null","","","null","41","","NaN","","","","","","","","","","","","","",""
"","response","","html-keyboard-response","266","307634","0.0-1.0-374.0","0","0","33660","","655","","","75","41","","","1","41","training","adjacent","DC","4","3","N.jpg","L.jpg","0","0","1","",""
"","feedback","","html-keyboard-response","267","308637","0.0-1.0-375.0-0.0","0","0","33660","","null","","","null","41","","","","","","","","","","","","","","","",""
"","ITI","","html-keyboard-response","268","309648","0.0-1.0-378.0","0","0","33660","","null","","","null","41","","","","","","","","","","","","","","","NaN",""
"","S1","","html-keyboard-response","269","309901","0.0-1.0-380.0","0","0","33660","","null","","","null","42","","","","","","","","","","","","","","","",""
"","ISI","","html-keyboard-response","270","311905","0.0-1.0-381.0","0","0","33660","","null","","","null","42","NaN","","","","","","","","","","","","","","",""
"","S2","","html-keyboard-response","271","312158","0.0-1.0-382.0","0","0","33660","","null","","","null","42","","NaN","","","","","","","","","","","","","",""
"","response","","html-keyboard-response","272","313250","0.0-1.0-383.0","0","0","33660","","1089","","","68","42","","","1","42","training","adjacent","FE","6","5","O.jpg","Q.jpg","1","0","0","",""
"","feedback","","html-keyboard-response","273","314253","0.0-1.0-384.0-0.0","0","0","33660","","null","","","null","42","","","","","","","","","","","","","","","",""
"","time_out","","html-keyboard-response","274","316256","0.0-1.0-386.0-0.0","0","0","33660","","null","","","null","42","","","","","","","","","","","","","","","",""
"","ITI","","html-keyboard-response","275","317259","0.0-1.0-387.0","0","0","33660","","null","","","null","42","","","","","","","","","","","","","","","NaN",""
"","S1","","html-keyboard-response","276","317512","0.0-1.0-389.0","0","0","33660","","null","","","null","43","","","","","","","","","","","","","","","",""
"","ISI","","html-keyboard-response","277","319523","0.0-1.0-390.0","0","0","33660","","null","","","null","43","NaN","","","","","","","","","","","","","","",""
"","S2","","html-keyboard-response","278","319776","0.0-1.0-391.0","0","0","33660","","null","","","null","43","","NaN","","","","","","","","","","","","","",""
"","response","","html-keyboard-response","279","320450","0.0-1.0-392.0","0","0","33660","","671","","","75","43","","","1","43","training","adjacent","ED","5","4","Q.jpg","N.jpg","0","0","1","",""
"","feedback","","html-keyboard-response","280","321453","0.0-1.0-393.0-0.0","0","0","33660","","null","","","null","43","","","","","","","","","","","","","","","",""
"","ITI","","html-keyboard-response","281","322457","0.0-1.0-396.0","0","0","33660","","null","","","null","43","","","","","","","","","","","","","","","NaN",""
"","S1","","html-keyboard-response","282","322709","0.0-1.0-398.0","0","0","33660","","null","","","null","44","","","","","","","","","","","","","","","",""
"","ISI","","html-keyboard-response","283","324711","0.0-1.0-399.0","0","0","33660","","null","","","null","44","NaN","","","","","","","","","","","","","","",""
"","S2","","html-keyboard-response","284","324964","0.0-1.0-400.0","0","0","33660","","null","","","null","44","","NaN","","","","","","","","","","","","","",""
"","response","","html-keyboard-response","285","325290","0.0-1.0-401.0","0","0","33660","","323","","","68","44","","","1","44","training","adjacent","FG","6","7","O.jpg","M.jpg","1","1","1","",""
"","feedback","","html-keyboard-response","286","326294","0.0-1.0-402.0-0.0","0","0","33660","","null","","","null","44","","","","","","","","","","","","","","","",""
"","ITI","","html-keyboard-response","287","327297","0.0-1.0-405.0","0","0","33660","","null","","","null","44","","","","","","","","","","","","","","","NaN",""
"","S1","","html-keyboard-response","288","327551","0.0-1.0-407.0","0","0","33660","","null","","","null","45","","","","","","","","","","","","","","","",""
"","ISI","","html-keyboard-response","289","329553","0.0-1.0-408.0","0","0","33660","","null","","","null","45","NaN","","","","","","","","","","","","","","",""
"","S2","","html-keyboard-response","290","329807","0.0-1.0-409.0","0","0","33660","","null","","","null","45","","NaN","","","","","","","","","","","","","",""
"","response","","html-keyboard-response","291","330386","0.0-1.0-410.0","0","0","33660","","575","","","75","45","","","1","45","training","adjacent","CB","3","2","L.jpg","R.jpg","0","0","1","",""
"","feedback","","html-keyboard-response","292","331389","0.0-1.0-411.0-0.0","0","0","33660","","null","","","null","45","","","","","","","","","","","","","","","",""
"","ITI","","html-keyboard-response","293","332392","0.0-1.0-414.0","0","0","33660","","null","","","null","45","","","","","","","","","","","","","","","NaN",""
"","S1","","html-keyboard-response","294","332646","0.0-1.0-416.0","0","0","33660","","null","","","null","46","","","","","","","","","","","","","","","",""
"","ISI","","html-keyboard-response","295","334648","0.0-1.0-417.0","0","0","33660","","null","","","null","46","NaN","","","","","","","","","","","","","","",""
"","S2","","html-keyboard-response","296","334901","0.0-1.0-418.0","0","0","33660","","null","","","null","46","","NaN","","","","","","","","","","","","","",""
"","response","","html-keyboard-response","297","335282","0.0-1.0-419.0","0","0","33660","","378","","","68","46","","","1","46","training","adjacent","FE","6","5","O.jpg","Q.jpg","1","0","0","",""
"","feedback","","html-keyboard-response","298","336285","0.0-1.0-420.0-0.0","0","0","33660","","null","","","null","46","","","","","","","","","","","","","","","",""
"","time_out","","html-keyboard-response","299","338289","0.0-1.0-422.0-0.0","0","0","33660","","null","","","null","46","","","","","","","","","","","","","","","",""
"","ITI","","html-keyboard-response","300","339293","0.0-1.0-423.0","0","0","33660","","null","","","null","46","","","","","","","","","","","","","","","NaN",""
"","S1","","html-keyboard-response","301","339546","0.0-1.0-425.0","0","0","33660","","null","","","null","47","","","","","","","","","","","","","","","",""
"","ISI","","html-keyboard-response","302","341550","0.0-1.0-426.0","0","0","33660","","null","","","null","47","NaN","","","","","","","","","","","","","","",""
"","S2","","html-keyboard-response","303","341803","0.0-1.0-427.0","0","0","33660","","null","","","null","47","","NaN","","","","","","","","","","","","","",""
"","response","","html-keyboard-response","304","342421","0.0-1.0-428.0","0","0","33660","","613","","","75","47","","","1","47","training","adjacent","CB","3","2","L.jpg","R.jpg","0","0","1","",""
"","feedback","","html-keyboard-response","305","343424","0.0-1.0-429.0-0.0","0","0","33660","","null","","","null","47","","","","","","","","","","","","","","","",""
"","ITI","","html-keyboard-response","306","344430","0.0-1.0-432.0","0","0","33660","","null","","","null","47","","","","","","","","","","","","","","","NaN",""
"","block_over","","html-keyboard-response","307","347459","0.0-1.0-433.0-0.0","0","0","33660","","3025","","","32","47","","","","","","","","","","","","","","","",""
"","S1","","html-keyboard-response","308","347712","0.0-1.0-434.0","0","0","33660","","null","","","null","48","","","","","","","","","","","","","","","",""
"","ISI","","html-keyboard-response","309","349715","0.0-1.0-435.0","0","0","33660","","null","","","null","48","NaN","","","","","","","","","","","","","","",""
"","S2","","html-keyboard-response","310","349968","0.0-1.0-436.0","0","0","33660","","null","","","null","48","","NaN","","","","","","","","","","","","","",""
"","response","","html-keyboard-response","311","350900","0.0-1.0-437.0","0","0","33660","","928","","","68","48","","","2","48","training","adjacent","DE","4","5","N.jpg","Q.jpg","1","1","1","",""
"","feedback","","html-keyboard-response","312","351903","0.0-1.0-438.0-0.0","0","0","33660","","null","","","null","48","","","","","","","","","","","","","","","",""
"","ITI","","html-keyboard-response","313","352907","0.0-1.0-441.0","0","0","33660","","null","","","null","48","","","","","","","","","","","","","","","NaN",""
"","S1","","html-keyboard-response","314","353160","0.0-1.0-443.0","0","0","33660","","null","","","null","49","","","","","","","","","","","","","","","",""
"","ISI","","html-keyboard-response","315","355162","0.0-1.0-444.0","0","0","33660","","null","","","null","49","NaN","","","","","","","","","","","","","","",""
"","S2","","html-keyboard-response","316","355417","0.0-1.0-445.0","0","0","33660","","null","","","null","49","","NaN","","","","","","","","","","","","","",""
"","response","","html-keyboard-response","317","355723","0.0-1.0-446.0","0","0","33660","","304","","","68","49","","","2","49","training","adjacent","DE","4","5","N.jpg","Q.jpg","1","1","1","",""
"","feedback","","html-keyboard-response","318","356737","0.0-1.0-447.0-0.0","0","0","33660","","null","","","null","49","","","","","","","","","","","","","","","",""
"","ITI","","html-keyboard-response","319","357740","0.0-1.0-450.0","0","0","33660","","null","","","null","49","","","","","","","","","","","","","","","NaN",""
"","S1","","html-keyboard-response","320","357994","0.0-1.0-452.0","0","0","33660","","null","","","null","50","","","","","","","","","","","","","","","",""
"","ISI","","html-keyboard-response","321","359997","0.0-1.0-453.0","0","0","33660","","null","","","null","50","NaN","","","","","","","","","","","","","","",""
"","S2","","html-keyboard-response","322","360250","0.0-1.0-454.0","0","0","33660","","null","","","null","50","","NaN","","","","","","","","","","","","","",""
"","response","","html-keyboard-response","323","360700","0.0-1.0-455.0","0","0","33660","","446","","","75","50","","","2","50","training","adjacent","EF","5","6","Q.jpg","O.jpg","0","1","0","",""
"","feedback","","html-keyboard-response","324","361703","0.0-1.0-456.0-0.0","0","0","33660","","null","","","null","50","","","","","","","","","","","","","","","",""
"","time_out","","html-keyboard-response","325","363719","0.0-1.0-458.0-0.0","0","0","33660","","null","","","null","50","","","","","","","","","","","","","","","",""
"","ITI","","html-keyboard-response","326","364723","0.0-1.0-459.0","0","0","33660","","null","","","null","50","","","","","","","","","","","","","","","NaN",""
"","S1","","html-keyboard-response","327","364976","0.0-1.0-461.0","0","0","33660","","null","","","null","51","","","","","","","","","","","","","","","",""
"","ISI","","html-keyboard-response","328","366979","0.0-1.0-462.0","0","0","33660","","null","","","null","51","NaN","","","","","","","","","","","","","","",""
"","S2","","html-keyboard-response","329","367232","0.0-1.0-463.0","0","0","33660","","null","","","null","51","","NaN","","","","","","","","","","","","","",""
"","response","","html-keyboard-response","330","367923","0.0-1.0-464.0","0","0","33660","","688","","","75","51","","","2","51","training","adjacent","CD","3","4","L.jpg","N.jpg","0","1","0","",""
"","feedback","","html-keyboard-response","331","368926","0.0-1.0-465.0-0.0","0","0","33660","","null","","","null","51","","","","","","","","","","","","","","","",""
"","time_out","","html-keyboard-response","332","370929","0.0-1.0-467.0-0.0","0","0","33660","","null","","","null","51","","","","","","","","","","","","","","","",""
"","ITI","","html-keyboard-response","333","371933","0.0-1.0-468.0","0","0","33660","","null","","","null","51","","","","","","","","","","","","","","","NaN",""
"","S1","","html-keyboard-response","334","372186","0.0-1.0-470.0","0","0","33660","","null","","","null","52","","","","","","","","","","","","","","","",""
"","ISI","","html-keyboard-response","335","374204","0.0-1.0-471.0","0","0","33660","","null","","","null","52","NaN","","","","","","","","","","","","","","",""
"","S2","","html-keyboard-response","336","374458","0.0-1.0-472.0","0","0","33660","","null","","","null","52","","NaN","","","","","","","","","","","","","",""
"","response","","html-keyboard-response","337","374941","0.0-1.0-473.0","0","0","33660","","478","","","75","52","","","2","52","training","adjacent","BC","2","3","R.jpg","L.jpg","0","1","0","",""
"","feedback","","html-keyboard-response","338","375944","0.0-1.0-474.0-0.0","0","0","33660","","null","","","null","52","","","","","","","","","","","","","","","",""
"","time_out","","html-keyboard-response","339","377947","0.0-1.0-476.0-0.0","0","0","33660","","null","","","null","52","","","","","","","","","","","","","","","",""
"","ITI","","html-keyboard-response","340","378962","0.0-1.0-477.0","0","0","33660","","null","","","null","52","","","","","","","","","","","","","","","NaN",""
"","S1","","html-keyboard-response","341","379215","0.0-1.0-479.0","0","0","33660","","null","","","null","53","","","","","","","","","","","","","","","",""
"","ISI","","html-keyboard-response","342","381218","0.0-1.0-480.0","0","0","33660","","null","","","null","53","NaN","","","","","","","","","","","","","","",""
"","S2","","html-keyboard-response","343","381471","0.0-1.0-481.0","0","0","33660","","null","","","null","53","","NaN","","","","","","","","","","","","","",""
"","response","","html-keyboard-response","344","381755","0.0-1.0-482.0","0","0","33660","","281","","","75","53","","","2","53","training","adjacent","GF","7","6","M.jpg","O.jpg","0","0","1","",""
"","feedback","","html-keyboard-response","345","382761","0.0-1.0-483.0-0.0","0","0","33660","","null","","","null","53","","","","","","","","","","","","","","","",""
"","ITI","","html-keyboard-response","346","383765","0.0-1.0-486.0","0","0","33660","","null","","","null","53","","","","","","","","","","","","","","","NaN",""
"","S1","","html-keyboard-response","347","384018","0.0-1.0-488.0","0","0","33660","","null","","","null","54","","","","","","","","","","","","","","","",""
"","ISI","","html-keyboard-response","348","386021","0.0-1.0-489.0","0","0","33660","","null","","","null","54","NaN","","","","","","","","","","","","","","",""
"","S2","","html-keyboard-response","349","386274","0.0-1.0-490.0","0","0","33660","","null","","","null","54","","NaN","","","","","","","","","","","","","",""
"","response","","html-keyboard-response","350","386587","0.0-1.0-491.0","0","0","33660","","310","","","75","54","","","2","54","training","adjacent","CB","3","2","L.jpg","R.jpg","0","0","1","",""
"","feedback","","html-keyboard-response","351","387592","0.0-1.0-492.0-0.0","0","0","33660","","null","","","null","54","","","","","","","","","","","","","","","",""
"","ITI","","html-keyboard-response","352","388594","0.0-1.0-495.0","0","0","33660","","null","","","null","54","","","","","","","","","","","","","","","NaN",""
"","S1","","html-keyboard-response","353","388847","0.0-1.0-497.0","0","0","33660","","null","","","null","55","","","","","","","","","","","","","","","",""
"","ISI","","html-keyboard-response","354","390850","0.0-1.0-498.0","0","0","33660","","null","","","null","55","NaN","","","","","","","","","","","","","","",""
"","S2","","html-keyboard-response","355","391103","0.0-1.0-499.0","0","0","33660","","null","","","null","55","","NaN","","","","","","","","","","","","","",""
"","response","","html-keyboard-response","356","391531","0.0-1.0-500.0","0","0","33660","","424","","","75","55","","","2","55","training","adjacent","GF","7","6","M.jpg","O.jpg","0","0","1","",""
"","feedback","","html-keyboard-response","357","392537","0.0-1.0-501.0-0.0","0","0","33660","","null","","","null","55","","","","","","","","","","","","","","","",""
"","ITI","","html-keyboard-response","358","393540","0.0-1.0-504.0","0","0","33660","","null","","","null","55","","","","","","","","","","","","","","","NaN",""
"","S1","","html-keyboard-response","359","393793","0.0-1.0-506.0","0","0","33660","","null","","","null","56","","","","","","","","","","","","","","","",""
"","ISI","","html-keyboard-response","360","395796","0.0-1.0-507.0","0","0","33660","","null","","","null","56","NaN","","","","","","","","","","","","","","",""
"","S2","","html-keyboard-response","361","396049","0.0-1.0-508.0","0","0","33660","","null","","","null","56","","NaN","","","","","","","","","","","","","",""
"","response","","html-keyboard-response","362","396331","0.0-1.0-509.0","0","0","33660","","279","","","68","56","","","2","56","training","adjacent","CD","3","4","L.jpg","N.jpg","1","1","1","",""
"","feedback","","html-keyboard-response","363","397334","0.0-1.0-510.0-0.0","0","0","33660","","null","","","null","56","","","","","","","","","","","","","","","",""
"","ITI","","html-keyboard-response","364","398338","0.0-1.0-513.0","0","0","33660","","null","","","null","56","","","","","","","","","","","","","","","NaN",""
"","S1","","html-keyboard-response","365","398611","0.0-1.0-515.0","0","0","33660","","null","","","null","57","","","","","","","","","","","","","","","",""
"","ISI","","html-keyboard-response","366","400641","0.0-1.0-516.0","0","0","33660","","null","","","null","57","NaN","","","","","","","","","","","","","","",""
"","S2","","html-keyboard-response","367","400894","0.0-1.0-517.0","0","0","33660","","null","","","null","57","","NaN","","","","","","","","","","","","","",""
"","response","","html-keyboard-response","368","401419","0.0-1.0-518.0","0","0","33660","","522","","","75","57","","","2","57","training","adjacent","BA","2","1","R.jpg","P.jpg","0","0","1","",""
"","feedback","","html-keyboard-response","369","402422","0.0-1.0-519.0-0.0","0","0","33660","","null","","","null","57","","","","","","","","","","","","","","","",""
"","ITI","","html-keyboard-response","370","403425","0.0-1.0-522.0","0","0","33660","","null","","","null","57","","","","","","","","","","","","","","","NaN",""
"","S1","","html-keyboard-response","371","403678","0.0-1.0-524.0","0","0","33660","","null","","","null","58","","","","","","","","","","","","","","","",""
"","ISI","","html-keyboard-response","372","405682","0.0-1.0-525.0","0","0","33660","","null","","","null","58","NaN","","","","","","","","","","","","","","",""
"","S2","","html-keyboard-response","373","405935","0.0-1.0-526.0","0","0","33660","","null","","","null","58","","NaN","","","","","","","","","","","","","",""
"","response","","html-keyboard-response","374","406123","0.0-1.0-527.0","0","0","33660","","185","","","68","58","","","2","58","training","adjacent","BC","2","3","R.jpg","L.jpg","1","1","1","",""
"","feedback","","html-keyboard-response","375","407126","0.0-1.0-528.0-0.0","0","0","33660","","null","","","null","58","","","","","","","","","","","","","","","",""
"","ITI","","html-keyboard-response","376","408129","0.0-1.0-531.0","0","0","33660","","null","","","null","58","","","","","","","","","","","","","","","NaN",""
"","S1","","html-keyboard-response","377","408382","0.0-1.0-533.0","0","0","33660","","null","","","null","59","","","","","","","","","","","","","","","",""
"","ISI","","html-keyboard-response","378","410385","0.0-1.0-534.0","0","0","33660","","null","","","null","59","NaN","","","","","","","","","","","","","","",""
"","S2","","html-keyboard-response","379","410639","0.0-1.0-535.0","0","0","33660","","null","","","null","59","","NaN","","","","","","","","","","","","","",""
"","response","","html-keyboard-response","380","411403","0.0-1.0-536.0","0","0","33660","","761","","","75","59","","","2","59","training","adjacent","CB","3","2","L.jpg","R.jpg","0","0","1","",""
"","feedback","","html-keyboard-response","381","412406","0.0-1.0-537.0-0.0","0","0","33660","","null","","","null","59","","","","","","","","","","","","","","","",""
"","ITI","","html-keyboard-response","382","413409","0.0-1.0-540.0","0","0","33660","","null","","","null","59","","","","","","","","","","","","","","","NaN",""
"","S1","","html-keyboard-response","383","413663","0.0-1.0-542.0","0","0","33660","","null","","","null","60","","","","","","","","","","","","","","","",""
"","ISI","","html-keyboard-response","384","415666","0.0-1.0-543.0","0","0","33660","","null","","","null","60","NaN","","","","","","","","","","","","","","",""
"","S2","","html-keyboard-response","385","415919","0.0-1.0-544.0","0","0","33660","","null","","","null","60","","NaN","","","","","","","","","","","","","",""
"","response","","html-keyboard-response","386","416283","0.0-1.0-545.0","0","0","33660","","361","","","68","60","","","2","60","training","adjacent","FG","6","7","O.jpg","M.jpg","1","1","1","",""
"","feedback","","html-keyboard-response","387","417286","0.0-1.0-546.0-0.0","0","0","33660","","null","","","null","60","","","","","","","","","","","","","","","",""
"","ITI","","html-keyboard-response","388","418289","0.0-1.0-549.0","0","0","33660","","null","","","null","60","","","","","","","","","","","","","","","NaN",""
"","S1","","html-keyboard-response","389","418542","0.0-1.0-551.0","0","0","33660","","null","","","null","61","","","","","","","","","","","","","","","",""
"","ISI","","html-keyboard-response","390","420545","0.0-1.0-552.0","0","0","33660","","null","","","null","61","NaN","","","","","","","","","","","","","","",""
"","S2","","html-keyboard-response","391","420801","0.0-1.0-553.0","0","0","33660","","null","","","null","61","","NaN","","","","","","","","","","","","","",""
"","response","","html-keyboard-response","392","421051","0.0-1.0-554.0","0","0","33660","","247","","","68","61","","","2","61","training","adjacent","FG","6","7","O.jpg","M.jpg","1","1","1","",""
"","feedback","","html-keyboard-response","393","422054","0.0-1.0-555.0-0.0","0","0","33660","","null","","","null","61","","","","","","","","","","","","","","","",""
"","ITI","","html-keyboard-response","394","423057","0.0-1.0-558.0","0","0","33660","","null","","","null","61","","","","","","","","","","","","","","","NaN",""
"","S1","","html-keyboard-response","395","423310","0.0-1.0-560.0","0","0","33660","","null","","","null","62","","","","","","","","","","","","","","","",""
"","ISI","","html-keyboard-response","396","425313","0.0-1.0-561.0","0","0","33660","","null","","","null","62","NaN","","","","","","","","","","","","","","",""
"","S2","","html-keyboard-response","397","425572","0.0-1.0-562.0","0","0","33660","","null","","","null","62","","NaN","","","","","","","","","","","","","",""
"","response","","html-keyboard-response","398","425851","0.0-1.0-563.0","0","0","33660","","276","","","75","62","","","2","62","training","adjacent","EF","5","6","Q.jpg","O.jpg","0","1","0","",""
"","feedback","","html-keyboard-response","399","426867","0.0-1.0-564.0-0.0","0","0","33660","","null","","","null","62","","","","","","","","","","","","","","","",""
"","time_out","","html-keyboard-response","400","428874","0.0-1.0-566.0-0.0","0","0","33660","","null","","","null","62","","","","","","","","","","","","","","","",""
"","ITI","","html-keyboard-response","401","429878","0.0-1.0-567.0","0","0","33660","","null","","","null","62","","","","","","","","","","","","","","","NaN",""
"","S1","","html-keyboard-response","402","430131","0.0-1.0-569.0","0","0","33660","","null","","","null","63","","","","","","","","","","","","","","","",""
"","ISI","","html-keyboard-response","403","432134","0.0-1.0-570.0","0","0","33660","","null","","","null","63","NaN","","","","","","","","","","","","","","",""
"","S2","","html-keyboard-response","404","432388","0.0-1.0-571.0","0","0","33660","","null","","","null","63","","NaN","","","","","","","","","","","","","",""
"","response","","html-keyboard-response","405","432923","0.0-1.0-572.0","0","0","33660","","532","","","75","63","","","2","63","training","adjacent","EF","5","6","Q.jpg","O.jpg","0","1","0","",""
"","feedback","","html-keyboard-response","406","433927","0.0-1.0-573.0-0.0","0","0","33660","","null","","","null","63","","","","","","","","","","","","","","","",""
"","time_out","","html-keyboard-response","407","435931","0.0-1.0-575.0-0.0","0","0","33660","","null","","","null","63","","","","","","","","","","","","","","","",""
"","ITI","","html-keyboard-response","408","436934","0.0-1.0-576.0","0","0","33660","","null","","","null","63","","","","","","","","","","","","","","","NaN",""
"","S1","","html-keyboard-response","409","437188","0.0-1.0-578.0","0","0","33660","","null","","","null","64","","","","","","","","","","","","","","","",""
"","ISI","","html-keyboard-response","410","439193","0.0-1.0-579.0","0","0","33660","","null","","","null","64","NaN","","","","","","","","","","","","","","",""
"","S2","","html-keyboard-response","411","439446","0.0-1.0-580.0","0","0","33660","","null","","","null","64","","NaN","","","","","","","","","","","","","",""
"","response","","html-keyboard-response","412","439955","0.0-1.0-581.0","0","0","33660","","506","","","75","64","","","2","64","training","adjacent","CB","3","2","L.jpg","R.jpg","0","0","1","",""
"","feedback","","html-keyboard-response","413","440958","0.0-1.0-582.0-0.0","0","0","33660","","null","","","null","64","","","","","","","","","","","","","","","",""
"","ITI","","html-keyboard-response","414","441964","0.0-1.0-585.0","0","0","33660","","null","","","null","64","","","","","","","","","","","","","","","NaN",""
"","S1","","html-keyboard-response","415","442220","0.0-1.0-587.0","0","0","33660","","null","","","null","65","","","","","","","","","","","","","","","",""
"","ISI","","html-keyboard-response","416","444223","0.0-1.0-588.0","0","0","33660","","null","","","null","65","NaN","","","","","","","","","","","","","","",""
"","S2","","html-keyboard-response","417","444477","0.0-1.0-589.0","0","0","33660","","null","","","null","65","","NaN","","","","","","","","","","","","","",""
"","response","","html-keyboard-response","418","445043","0.0-1.0-590.0","0","0","33660","","563","","","68","65","","","2","65","training","adjacent","CD","3","4","L.jpg","N.jpg","1","1","1","",""
"","feedback","","html-keyboard-response","419","446046","0.0-1.0-591.0-0.0","0","0","33660","","null","","","null","65","","","","","","","","","","","","","","","",""
"","ITI","","html-keyboard-response","420","447058","0.0-1.0-594.0","0","0","33660","","null","","","null","65","","","","","","","","","","","","","","","NaN",""
"","S1","","html-keyboard-response","421","447311","0.0-1.0-596.0","0","0","33660","","null","","","null","66","","","","","","","","","","","","","","","",""
"","ISI","","html-keyboard-response","422","449315","0.0-1.0-597.0","0","0","33660","","null","","","null","66","NaN","","","","","","","","","","","","","","",""
"","S2","","html-keyboard-response","423","449569","0.0-1.0-598.0","0","0","33660","","null","","","null","66","","NaN","","","","","","","","","","","","","",""
"","response","","html-keyboard-response","424","450171","0.0-1.0-599.0","0","0","33660","","599","","","75","66","","","2","66","training","adjacent","BA","2","1","R.jpg","P.jpg","0","0","1","",""
"","feedback","","html-keyboard-response","425","451186","0.0-1.0-600.0-0.0","0","0","33660","","null","","","null","66","","","","","","","","","","","","","","","",""
"","ITI","","html-keyboard-response","426","452193","0.0-1.0-603.0","0","0","33660","","null","","","null","66","","","","","","","","","","","","","","","NaN",""
"","S1","","html-keyboard-response","427","452445","0.0-1.0-605.0","0","0","33660","","null","","","null","67","","","","","","","","","","","","","","","",""
"","ISI","","html-keyboard-response","428","454448","0.0-1.0-606.0","0","0","33660","","null","","","null","67","NaN","","","","","","","","","","","","","","",""
"","S2","","html-keyboard-response","429","454701","0.0-1.0-607.0","0","0","33660","","null","","","null","67","","NaN","","","","","","","","","","","","","",""
"","response","","html-keyboard-response","430","455004","0.0-1.0-608.0","0","0","33660","","299","","","68","67","","","2","67","training","adjacent","BC","2","3","R.jpg","L.jpg","1","1","1","",""
"","feedback","","html-keyboard-response","431","456007","0.0-1.0-609.0-0.0","0","0","33660","","null","","","null","67","","","","","","","","","","","","","","","",""
"","ITI","","html-keyboard-response","432","457011","0.0-1.0-612.0","0","0","33660","","null","","","null","67","","","","","","","","","","","","","","","NaN",""
"","S1","","html-keyboard-response","433","457264","0.0-1.0-614.0","0","0","33660","","null","","","null","68","","","","","","","","","","","","","","","",""
"","ISI","","html-keyboard-response","434","459267","0.0-1.0-615.0","0","0","33660","","null","","","null","68","NaN","","","","","","","","","","","","","","",""
"","S2","","html-keyboard-response","435","459520","0.0-1.0-616.0","0","0","33660","","null","","","null","68","","NaN","","","","","","","","","","","","","",""
"","response","","html-keyboard-response","436","459899","0.0-1.0-617.0","0","0","33660","","376","","","68","68","","","2","68","training","adjacent","FG","6","7","O.jpg","M.jpg","1","1","1","",""
"","feedback","","html-keyboard-response","437","460902","0.0-1.0-618.0-0.0","0","0","33660","","null","","","null","68","","","","","","","","","","","","","","","",""
"","ITI","","html-keyboard-response","438","461905","0.0-1.0-621.0","0","0","33660","","null","","","null","68","","","","","","","","","","","","","","","NaN",""
"","S1","","html-keyboard-response","439","462159","0.0-1.0-623.0","0","0","33660","","null","","","null","69","","","","","","","","","","","","","","","",""
"","ISI","","html-keyboard-response","440","464163","0.0-1.0-624.0","0","0","33660","","null","","","null","69","NaN","","","","","","","","","","","","","","",""
"","S2","","html-keyboard-response","441","464416","0.0-1.0-625.0","0","0","33660","","null","","","null","69","","NaN","","","","","","","","","","","","","",""
"","response","","html-keyboard-response","442","464827","0.0-1.0-626.0","0","0","33660","","408","","","75","69","","","2","69","training","adjacent","CB","3","2","L.jpg","R.jpg","0","0","1","",""
"","feedback","","html-keyboard-response","443","465830","0.0-1.0-627.0-0.0","0","0","33660","","null","","","null","69","","","","","","","","","","","","","","","",""
"","ITI","","html-keyboard-response","444","466834","0.0-1.0-630.0","0","0","33660","","null","","","null","69","","","","","","","","","","","","","","","NaN",""
"","S1","","html-keyboard-response","445","467087","0.0-1.0-632.0","0","0","33660","","null","","","null","70","","","","","","","","","","","","","","","",""
"","ISI","","html-keyboard-response","446","469099","0.0-1.0-633.0","0","0","33660","","null","","","null","70","NaN","","","","","","","","","","","","","","",""
"","S2","","html-keyboard-response","447","469353","0.0-1.0-634.0","0","0","33660","","null","","","null","70","","NaN","","","","","","","","","","","","","",""
"","response","","html-keyboard-response","448","470163","0.0-1.0-635.0","0","0","33660","","807","","","75","70","","","2","70","training","adjacent","ED","5","4","Q.jpg","N.jpg","0","0","1","",""
"","feedback","","html-keyboard-response","449","471167","0.0-1.0-636.0-0.0","0","0","33660","","null","","","null","70","","","","","","","","","","","","","","","",""
"","ITI","","html-keyboard-response","450","472170","0.0-1.0-639.0","0","0","33660","","null","","","null","70","","","","","","","","","","","","","","","NaN",""
"","S1","","html-keyboard-response","451","472423","0.0-1.0-641.0","0","0","33660","","null","","","null","71","","","","","","","","","","","","","","","",""
"","ISI","","html-keyboard-response","452","474427","0.0-1.0-642.0","0","0","33660","","null","","","null","71","NaN","","","","","","","","","","","","","","",""
"","S2","","html-keyboard-response","453","474680","0.0-1.0-643.0","0","0","33660","","null","","","null","71","","NaN","","","","","","","","","","","","","",""
"","response","","html-keyboard-response","454","475363","0.0-1.0-644.0","0","0","33660","","680","","","68","71","","","2","71","training","adjacent","DE","4","5","N.jpg","Q.jpg","1","1","1","",""
"","feedback","","html-keyboard-response","455","476367","0.0-1.0-645.0-0.0","0","0","33660","","null","","","null","71","","","","","","","","","","","","","","","",""
"","ITI","","html-keyboard-response","456","477372","0.0-1.0-648.0","0","0","33660","","null","","","null","71","","","","","","","","","","","","","","","NaN",""
"","S1","","html-keyboard-response","457","477625","0.0-1.0-650.0","0","0","33660","","null","","","null","72","","","","","","","","","","","","","","","",""
"","ISI","","html-keyboard-response","458","479629","0.0-1.0-651.0","0","0","33660","","null","","","null","72","NaN","","","","","","","","","","","","","","",""
"","S2","","html-keyboard-response","459","479882","0.0-1.0-652.0","0","0","33660","","null","","","null","72","","NaN","","","","","","","","","","","","","",""
"","response","","html-keyboard-response","460","480548","0.0-1.0-653.0","0","0","33660","","662","","","75","72","","","2","72","training","adjacent","FE","6","5","O.jpg","Q.jpg","0","0","1","",""
"","feedback","","html-keyboard-response","461","481552","0.0-1.0-654.0-0.0","0","0","33660","","null","","","null","72","","","","","","","","","","","","","","","",""
"","ITI","","html-keyboard-response","462","482555","0.0-1.0-657.0","0","0","33660","","null","","","null","72","","","","","","","","","","","","","","","NaN",""
"","S1","","html-keyboard-response","463","482809","0.0-1.0-659.0","0","0","33660","","null","","","null","73","","","","","","","","","","","","","","","",""
"","ISI","","html-keyboard-response","464","484812","0.0-1.0-660.0","0","0","33660","","null","","","null","73","NaN","","","","","","","","","","","","","","",""
"","S2","","html-keyboard-response","465","485065","0.0-1.0-661.0","0","0","33660","","null","","","null","73","","NaN","","","","","","","","","","","","","",""
"","response","","html-keyboard-response","466","485811","0.0-1.0-662.0","0","0","33660","","743","","","75","73","","","2","73","training","adjacent","FE","6","5","O.jpg","Q.jpg","0","0","1","",""
"","feedback","","html-keyboard-response","467","486814","0.0-1.0-663.0-0.0","0","0","33660","","null","","","null","73","","","","","","","","","","","","","","","",""
"","ITI","","html-keyboard-response","468","487819","0.0-1.0-666.0","0","0","33660","","null","","","null","73","","","","","","","","","","","","","","","NaN",""
"","S1","","html-keyboard-response","469","488072","0.0-1.0-668.0","0","0","33660","","null","","","null","74","","","","","","","","","","","","","","","",""
"","ISI","","html-keyboard-response","470","490075","0.0-1.0-669.0","0","0","33660","","null","","","null","74","NaN","","","","","","","","","","","","","","",""
"","S2","","html-keyboard-response","471","490328","0.0-1.0-670.0","0","0","33660","","null","","","null","74","","NaN","","","","","","","","","","","","","",""
"","response","","html-keyboard-response","472","490771","0.0-1.0-671.0","0","0","33660","","440","","","68","74","","","2","74","training","adjacent","FG","6","7","O.jpg","M.jpg","1","1","1","",""
"","feedback","","html-keyboard-response","473","491774","0.0-1.0-672.0-0.0","0","0","33660","","null","","","null","74","","","","","","","","","","","","","","","",""
"","ITI","","html-keyboard-response","474","492777","0.0-1.0-675.0","0","0","33660","","null","","","null","74","","","","","","","","","","","","","","","NaN",""
"","S1","","html-keyboard-response","475","493030","0.0-1.0-677.0","0","0","33660","","null","","","null","75","","","","","","","","","","","","","","","",""
"","ISI","","html-keyboard-response","476","495033","0.0-1.0-678.0","0","0","33660","","null","","","null","75","NaN","","","","","","","","","","","","","","",""
"","S2","","html-keyboard-response","477","495286","0.0-1.0-679.0","0","0","33660","","null","","","null","75","","NaN","","","","","","","","","","","","","",""
"","response","","html-keyboard-response","478","495739","0.0-1.0-680.0","0","0","33660","","449","","","75","75","","","2","75","training","adjacent","GF","7","6","M.jpg","O.jpg","0","0","1","",""
"","feedback","","html-keyboard-response","479","496742","0.0-1.0-681.0-0.0","0","0","33660","","null","","","null","75","","","","","","","","","","","","","","","",""
"","ITI","","html-keyboard-response","480","497745","0.0-1.0-684.0","0","0","33660","","null","","","null","75","","","","","","","","","","","","","","","NaN",""
"","S1","","html-keyboard-response","481","497998","0.0-1.0-686.0","0","0","33660","","null","","","null","76","","","","","","","","","","","","","","","",""
"","ISI","","html-keyboard-response","482","500001","0.0-1.0-687.0","0","0","33660","","null","","","null","76","NaN","","","","","","","","","","","","","","",""
"","S2","","html-keyboard-response","483","500254","0.0-1.0-688.0","0","0","33660","","null","","","null","76","","NaN","","","","","","","","","","","","","",""
"","response","","html-keyboard-response","484","500819","0.0-1.0-689.0","0","0","33660","","562","","","75","76","","","2","76","training","adjacent","ED","5","4","Q.jpg","N.jpg","0","0","1","",""
"","feedback","","html-keyboard-response","485","501822","0.0-1.0-690.0-0.0","0","0","33660","","null","","","null","76","","","","","","","","","","","","","","","",""
"","ITI","","html-keyboard-response","486","502828","0.0-1.0-693.0","0","0","33660","","null","","","null","76","","","","","","","","","","","","","","","NaN",""
"","S1","","html-keyboard-response","487","503082","0.0-1.0-695.0","0","0","33660","","null","","","null","77","","","","","","","","","","","","","","","",""
"","ISI","","html-keyboard-response","488","505085","0.0-1.0-696.0","0","0","33660","","null","","","null","77","NaN","","","","","","","","","","","","","","",""
"","S2","","html-keyboard-response","489","505338","0.0-1.0-697.0","0","0","33660","","null","","","null","77","","NaN","","","","","","","","","","","","","",""
"","response","","html-keyboard-response","490","506323","0.0-1.0-698.0","0","0","33660","","982","","","75","77","","","2","77","training","adjacent","DC","4","3","N.jpg","L.jpg","0","0","1","",""
"","feedback","","html-keyboard-response","491","507326","0.0-1.0-699.0-0.0","0","0","33660","","null","","","null","77","","","","","","","","","","","","","","","",""
"","ITI","","html-keyboard-response","492","508329","0.0-1.0-702.0","0","0","33660","","null","","","null","77","","","","","","","","","","","","","","","NaN",""
"","S1","","html-keyboard-response","493","508585","0.0-1.0-704.0","0","0","33660","","null","","","null","78","","","","","","","","","","","","","","","",""
"","ISI","","html-keyboard-response","494","510588","0.0-1.0-705.0","0","0","33660","","null","","","null","78","NaN","","","","","","","","","","","","","","",""
"","S2","","html-keyboard-response","495","510841","0.0-1.0-706.0","0","0","33660","","null","","","null","78","","NaN","","","","","","","","","","","","","",""
"","response","","html-keyboard-response","496","511588","0.0-1.0-707.0","0","0","33660","","743","","","68","78","","","2","78","training","adjacent","AB","1","2","P.jpg","R.jpg","1","1","1","",""
"","feedback","","html-keyboard-response","497","512599","0.0-1.0-708.0-0.0","0","0","33660","","null","","","null","78","","","","","","","","","","","","","","","",""
"","ITI","","html-keyboard-response","498","513605","0.0-1.0-711.0","0","0","33660","","null","","","null","78","","","","","","","","","","","","","","","NaN",""
"","S1","","html-keyboard-response","499","513858","0.0-1.0-713.0","0","0","33660","","null","","","null","79","","","","","","","","","","","","","","","",""
"","ISI","","html-keyboard-response","500","515861","0.0-1.0-714.0","0","0","33660","","null","","","null","79","NaN","","","","","","","","","","","","","","",""
"","S2","","html-keyboard-response","501","516114","0.0-1.0-715.0","0","0","33660","","null","","","null","79","","NaN","","","","","","","","","","","","","",""
"","response","","html-keyboard-response","502","516507","0.0-1.0-716.0","0","0","33660","","390","","","75","79","","","2","79","training","adjacent","GF","7","6","M.jpg","O.jpg","0","0","1","",""
"","feedback","","html-keyboard-response","503","517510","0.0-1.0-717.0-0.0","0","0","33660","","null","","","null","79","","","","","","","","","","","","","","","",""
"","ITI","","html-keyboard-response","504","518513","0.0-1.0-720.0","0","0","33660","","null","","","null","79","","","","","","","","","","","","","","","NaN",""
"","S1","","html-keyboard-response","505","518768","0.0-1.0-722.0","0","0","33660","","null","","","null","80","","","","","","","","","","","","","","","",""
"","ISI","","html-keyboard-response","506","520770","0.0-1.0-723.0","0","0","33660","","null","","","null","80","NaN","","","","","","","","","","","","","","",""
"","S2","","html-keyboard-response","507","521023","0.0-1.0-724.0","0","0","33660","","null","","","null","80","","NaN","","","","","","","","","","","","","",""
"","response","","html-keyboard-response","508","521443","0.0-1.0-725.0","0","0","33660","","417","","","68","80","","","2","80","training","adjacent","DE","4","5","N.jpg","Q.jpg","1","1","1","",""
"","feedback","","html-keyboard-response","509","522446","0.0-1.0-726.0-0.0","0","0","33660","","null","","","null","80","","","","","","","","","","","","","","","",""
"","ITI","","html-keyboard-response","510","523449","0.0-1.0-729.0","0","0","33660","","null","","","null","80","","","","","","","","","","","","","","","NaN",""
"","S1","","html-keyboard-response","511","523702","0.0-1.0-731.0","0","0","33660","","null","","","null","81","","","","","","","","","","","","","","","",""
"","ISI","","html-keyboard-response","512","525706","0.0-1.0-732.0","0","0","33660","","null","","","null","81","NaN","","","","","","","","","","","","","","",""
"","S2","","html-keyboard-response","513","525959","0.0-1.0-733.0","0","0","33660","","null","","","null","81","","NaN","","","","","","","","","","","","","",""
"","response","","html-keyboard-response","514","526413","0.0-1.0-734.0","0","0","33660","","449","","","68","81","","","2","81","training","adjacent","AB","1","2","P.jpg","R.jpg","1","1","1","",""
"","feedback","","html-keyboard-response","515","527417","0.0-1.0-735.0-0.0","0","0","33660","","null","","","null","81","","","","","","","","","","","","","","","",""
"","ITI","","html-keyboard-response","516","528420","0.0-1.0-738.0","0","0","33660","","null","","","null","81","","","","","","","","","","","","","","","NaN",""
"","S1","","html-keyboard-response","517","528673","0.0-1.0-740.0","0","0","33660","","null","","","null","82","","","","","","","","","","","","","","","",""
"","ISI","","html-keyboard-response","518","530675","0.0-1.0-741.0","0","0","33660","","null","","","null","82","NaN","","","","","","","","","","","","","","",""
"","S2","","html-keyboard-response","519","530928","0.0-1.0-742.0","0","0","33660","","null","","","null","82","","NaN","","","","","","","","","","","","","",""
"","response","","html-keyboard-response","520","532035","0.0-1.0-743.0","0","0","33660","","1104","","","75","82","","","2","82","training","adjacent","ED","5","4","Q.jpg","N.jpg","0","0","1","",""
"","feedback","","html-keyboard-response","521","533038","0.0-1.0-744.0-0.0","0","0","33660","","null","","","null","82","","","","","","","","","","","","","","","",""
"","ITI","","html-keyboard-response","522","534041","0.0-1.0-747.0","0","0","33660","","null","","","null","82","","","","","","","","","","","","","","","NaN",""
"","S1","","html-keyboard-response","523","534294","0.0-1.0-749.0","0","0","33660","","null","","","null","83","","","","","","","","","","","","","","","",""
"","ISI","","html-keyboard-response","524","536297","0.0-1.0-750.0","0","0","33660","","null","","","null","83","NaN","","","","","","","","","","","","","","",""
"","S2","","html-keyboard-response","525","536551","0.0-1.0-751.0","0","0","33660","","null","","","null","83","","NaN","","","","","","","","","","","","","",""
"","response","","html-keyboard-response","526","537259","0.0-1.0-752.0","0","0","33660","","705","","","75","83","","","2","83","training","adjacent","FE","6","5","O.jpg","Q.jpg","0","0","1","",""
"","feedback","","html-keyboard-response","527","538262","0.0-1.0-753.0-0.0","0","0","33660","","null","","","null","83","","","","","","","","","","","","","","","",""
"","ITI","","html-keyboard-response","528","539282","0.0-1.0-756.0","0","0","33660","","null","","","null","83","","","","","","","","","","","","","","","NaN",""
"","S1","","html-keyboard-response","529","539537","0.0-1.0-758.0","0","0","33660","","null","","","null","84","","","","","","","","","","","","","","","",""
"","ISI","","html-keyboard-response","530","541541","0.0-1.0-759.0","0","0","33660","","null","","","null","84","NaN","","","","","","","","","","","","","","",""
"","S2","","html-keyboard-response","531","541794","0.0-1.0-760.0","0","0","33660","","null","","","null","84","","NaN","","","","","","","","","","","","","",""
"","response","","html-keyboard-response","532","542315","0.0-1.0-761.0","0","0","33660","","518","","","68","84","","","2","84","training","adjacent","DC","4","3","N.jpg","L.jpg","1","0","0","",""
"","feedback","","html-keyboard-response","533","543319","0.0-1.0-762.0-0.0","0","0","33660","","null","","","null","84","","","","","","","","","","","","","","","",""
"","time_out","","html-keyboard-response","534","545321","0.0-1.0-764.0-0.0","0","0","33660","","null","","","null","84","","","","","","","","","","","","","","","",""
"","ITI","","html-keyboard-response","535","546324","0.0-1.0-765.0","0","0","33660","","null","","","null","84","","","","","","","","","","","","","","","NaN",""
"","S1","","html-keyboard-response","536","546580","0.0-1.0-767.0","0","0","33660","","null","","","null","85","","","","","","","","","","","","","","","",""
"","ISI","","html-keyboard-response","537","548595","0.0-1.0-768.0","0","0","33660","","null","","","null","85","NaN","","","","","","","","","","","","","","",""
"","S2","","html-keyboard-response","538","548850","0.0-1.0-769.0","0","0","33660","","null","","","null","85","","NaN","","","","","","","","","","","","","",""
"","response","","html-keyboard-response","539","549939","0.0-1.0-770.0","0","0","33660","","1086","","","68","85","","","2","85","training","adjacent","DC","4","3","N.jpg","L.jpg","1","0","0","",""
"","feedback","","html-keyboard-response","540","550942","0.0-1.0-771.0-0.0","0","0","33660","","null","","","null","85","","","","","","","","","","","","","","","",""
"","time_out","","html-keyboard-response","541","552945","0.0-1.0-773.0-0.0","0","0","33660","","null","","","null","85","","","","","","","","","","","","","","","",""
"","ITI","","html-keyboard-response","542","553948","0.0-1.0-774.0","0","0","33660","","null","","","null","85","","","","","","","","","","","","","","","NaN",""
"","S1","","html-keyboard-response","543","554201","0.0-1.0-776.0","0","0","33660","","null","","","null","86","","","","","","","","","","","","","","","",""
"","ISI","","html-keyboard-response","544","556203","0.0-1.0-777.0","0","0","33660","","null","","","null","86","NaN","","","","","","","","","","","","","","",""
"","S2","","html-keyboard-response","545","556456","0.0-1.0-778.0","0","0","33660","","null","","","null","86","","NaN","","","","","","","","","","","","","",""
"","response","","html-keyboard-response","546","557219","0.0-1.0-779.0","0","0","33660","","760","","","75","86","","","2","86","training","adjacent","ED","5","4","Q.jpg","N.jpg","0","0","1","",""
"","feedback","","html-keyboard-response","547","558222","0.0-1.0-780.0-0.0","0","0","33660","","null","","","null","86","","","","","","","","","","","","","","","",""
"","ITI","","html-keyboard-response","548","559225","0.0-1.0-783.0","0","0","33660","","null","","","null","86","","","","","","","","","","","","","","","NaN",""
"","S1","","html-keyboard-response","549","559478","0.0-1.0-785.0","0","0","33660","","null","","","null","87","","","","","","","","","","","","","","","",""
"","ISI","","html-keyboard-response","550","561481","0.0-1.0-786.0","0","0","33660","","null","","","null","87","NaN","","","","","","","","","","","","","","",""
"","S2","","html-keyboard-response","551","561739","0.0-1.0-787.0","0","0","33660","","null","","","null","87","","NaN","","","","","","","","","","","","","",""
"","response","","html-keyboard-response","552","562315","0.0-1.0-788.0","0","0","33660","","573","","","75","87","","","2","87","training","adjacent","FE","6","5","O.jpg","Q.jpg","0","0","1","",""
"","feedback","","html-keyboard-response","553","563318","0.0-1.0-789.0-0.0","0","0","33660","","null","","","null","87","","","","","","","","","","","","","","","",""
"","ITI","","html-keyboard-response","554","564323","0.0-1.0-792.0","0","0","33660","","null","","","null","87","","","","","","","","","","","","","","","NaN",""
"","S1","","html-keyboard-response","555","564577","0.0-1.0-794.0","0","0","33660","","null","","","null","88","","","","","","","","","","","","","","","",""
"","ISI","","html-keyboard-response","556","566581","0.0-1.0-795.0","0","0","33660","","null","","","null","88","NaN","","","","","","","","","","","","","","",""
"","S2","","html-keyboard-response","557","566835","0.0-1.0-796.0","0","0","33660","","null","","","null","88","","NaN","","","","","","","","","","","","","",""
"","response","","html-keyboard-response","558","567147","0.0-1.0-797.0","0","0","33660","","308","","","68","88","","","2","88","training","adjacent","AB","1","2","P.jpg","R.jpg","1","1","1","",""
"","feedback","","html-keyboard-response","559","568150","0.0-1.0-798.0-0.0","0","0","33660","","null","","","null","88","","","","","","","","","","","","","","","",""
"","ITI","","html-keyboard-response","560","569153","0.0-1.0-801.0","0","0","33660","","null","","","null","88","","","","","","","","","","","","","","","NaN",""
"","S1","","html-keyboard-response","561","569406","0.0-1.0-803.0","0","0","33660","","null","","","null","89","","","","","","","","","","","","","","","",""
"","ISI","","html-keyboard-response","562","571410","0.0-1.0-804.0","0","0","33660","","null","","","null","89","NaN","","","","","","","","","","","","","","",""
"","S2","","html-keyboard-response","563","571664","0.0-1.0-805.0","0","0","33660","","null","","","null","89","","NaN","","","","","","","","","","","","","",""
"","response","","html-keyboard-response","564","572195","0.0-1.0-806.0","0","0","33660","","528","","","68","89","","","2","89","training","adjacent","DC","4","3","N.jpg","L.jpg","1","0","0","",""
"","feedback","","html-keyboard-response","565","573198","0.0-1.0-807.0-0.0","0","0","33660","","null","","","null","89","","","","","","","","","","","","","","","",""
"","time_out","","html-keyboard-response","566","575201","0.0-1.0-809.0-0.0","0","0","33660","","null","","","null","89","","","","","","","","","","","","","","","",""
"","ITI","","html-keyboard-response","567","576204","0.0-1.0-810.0","0","0","33660","","null","","","null","89","","","","","","","","","","","","","","","NaN",""
"","S1","","html-keyboard-response","568","576457","0.0-1.0-812.0","0","0","33660","","null","","","null","90","","","","","","","","","","","","","","","",""
"","ISI","","html-keyboard-response","569","578460","0.0-1.0-813.0","0","0","33660","","null","","","null","90","NaN","","","","","","","","","","","","","","",""
"","S2","","html-keyboard-response","570","578713","0.0-1.0-814.0","0","0","33660","","null","","","null","90","","NaN","","","","","","","","","","","","","",""
"","response","","html-keyboard-response","571","579059","0.0-1.0-815.0","0","0","33660","","343","","","68","90","","","2","90","training","adjacent","AB","1","2","P.jpg","R.jpg","1","1","1","",""
"","feedback","","html-keyboard-response","572","580064","0.0-1.0-816.0-0.0","0","0","33660","","null","","","null","90","","","","","","","","","","","","","","","",""
"","ITI","","html-keyboard-response","573","581067","0.0-1.0-819.0","0","0","33660","","null","","","null","90","","","","","","","","","","","","","","","NaN",""
"","S1","","html-keyboard-response","574","581320","0.0-1.0-821.0","0","0","33660","","null","","","null","91","","","","","","","","","","","","","","","",""
"","ISI","","html-keyboard-response","575","583323","0.0-1.0-822.0","0","0","33660","","null","","","null","91","NaN","","","","","","","","","","","","","","",""
"","S2","","html-keyboard-response","576","583577","0.0-1.0-823.0","0","0","33660","","null","","","null","91","","NaN","","","","","","","","","","","","","",""
"","response","","html-keyboard-response","577","583987","0.0-1.0-824.0","0","0","33660","","407","","","75","91","","","2","91","training","adjacent","BA","2","1","R.jpg","P.jpg","0","0","1","",""
"","feedback","","html-keyboard-response","578","584990","0.0-1.0-825.0-0.0","0","0","33660","","null","","","null","91","","","","","","","","","","","","","","","",""
"","ITI","","html-keyboard-response","579","585993","0.0-1.0-828.0","0","0","33660","","null","","","null","91","","","","","","","","","","","","","","","NaN",""
"","S1","","html-keyboard-response","580","586247","0.0-1.0-830.0","0","0","33660","","null","","","null","92","","","","","","","","","","","","","","","",""
"","ISI","","html-keyboard-response","581","588252","0.0-1.0-831.0","0","0","33660","","null","","","null","92","NaN","","","","","","","","","","","","","","",""
"","S2","","html-keyboard-response","582","588504","0.0-1.0-832.0","0","0","33660","","null","","","null","92","","NaN","","","","","","","","","","","","","",""
"","response","","html-keyboard-response","583","588699","0.0-1.0-833.0","0","0","33660","","192","","","68","92","","","2","92","training","adjacent","BC","2","3","R.jpg","L.jpg","1","1","1","",""
"","feedback","","html-keyboard-response","584","589702","0.0-1.0-834.0-0.0","0","0","33660","","null","","","null","92","","","","","","","","","","","","","","","",""
