"success","ttype","start_time","trial_type","trial_index","time_elapsed","internal_node_id","warning","missed_checkup","PID","view_history","rt","responses","repeat_instructions","key_press","index","keypress_isi","keypress_S2","block","trial_num","phase","group_type","pair_type","S1_stim","S2_stim","S1_img","S2_img","S1_chosen","S1_higher","accuracy","keypress_iti","total_bonus_tally"
"true","full_screen","d04132023hr1916","fullscreen","0","3982","0.0-0.0","0","0","22656","","","","","","","","","","","","","","","","","","","","","",""
"","instructions","","instructions","1","12156","0.0-1.0-0.0-0.0","0","0","22656","[{""page_index"":0,""viewing_time"":2377},{""page_index"":1,""viewing_time"":3379},{""page_index"":2,""viewing_time"":1270},{""page_index"":3,""viewing_time"":1145}]","8171","","","","","","","","","","","","","","","","","","","",""
"","comprehension_check","","survey-multi-choice","2","27984","0.0-1.0-0.0-1.0","0","0","22656","","15822","{""Q0"":""True"",""Q1"":""D"",""Q2"":""Once the second image appears and while the screen 'MAKE A CHOICE' is shown"",""Q3"":""Green mark"",""Q4"":""either D or K""}","0","","","","","","","","","","","","","","","","","",""
"","start_exp","","html-keyboard-response","3","35431","0.0-1.0-1.0","0","0","22656","","7443","","","32","","","","","","","","","","","","","","","","",""
"","S1","","html-keyboard-response","4","35692","0.0-1.0-2.0","0","0","22656","","null","","","null","0","","","","","","","","","","","","","","","",""
"","ISI","","html-keyboard-response","5","36700","0.0-1.0-3.0","0","0","22656","","null","","","null","0","NaN","","","","","","","","","","","","","","",""
"","S2","","html-keyboard-response","6","36964","0.0-1.0-4.0","0","0","22656","","null","","","null","0","","NaN","","","","","","","","","","","","","",""
"","response","","html-keyboard-response","7","38723","0.0-1.0-5.0-0.0","0","0","22656","","null","","","null","0","","","1","0","training","adjacent","DE","4","5","L.jpg","M.jpg","NaN","1","0","",""
"","too_slow_prompt","","html-keyboard-response","8","39733","0.0-1.0-7.0-0.0","1","0","22656","","null","","","null","","","","","","","","","","","","","","","","",""
"","time_out","","html-keyboard-response","9","41741","0.0-1.0-8.0-0.0","0","0","22656","","null","","","null","0","","","","","","","","","","","","","","","",""
"","ITI","","html-keyboard-response","10","42749","0.0-1.0-9.0","0","0","22656","","null","","","null","0","","","","","","","","","","","","","","","NaN",""
"","S1","","html-keyboard-response","11","43013","0.0-1.0-11.0","0","0","22656","","null","","","null","1","","","","","","","","","","","","","","","",""
"","ISI","","html-keyboard-response","12","44021","0.0-1.0-12.0","0","0","22656","","null","","","null","1","NaN","","","","","","","","","","","","","","",""
"","S2","","html-keyboard-response","13","44026","0.0-1.0-13.0","0","0","22656","","2","","","75","1","","k","1","1","training","adjacent","CD","3","4","O.jpg","L.jpg","0","1","0","",""
"","feedback","","html-keyboard-response","14","45037","0.0-1.0-15.0-0.0","0","0","22656","","null","","","null","1","","","","","","","","","","","","","","","",""
"","time_out","","html-keyboard-response","15","47044","0.0-1.0-17.0-0.0","0","0","22656","","null","","","null","1","","","","","","","","","","","","","","","",""
"","ITI","","html-keyboard-response","16","48051","0.0-1.0-18.0","0","0","22656","","null","","","null","1","","","","","","","","","","","","","","","NaN",""
"","S1","","html-keyboard-response","17","48307","0.0-1.0-20.0","0","0","22656","","null","","","null","2","","","","","","","","","","","","","","","",""
"","ISI","","html-keyboard-response","18","49317","0.0-1.0-21.0","0","0","22656","","113","","","68","2","d","","","","","","","","","","","","","","",""
"","S2","","html-keyboard-response","19","49581","0.0-1.0-22.0","0","0","22656","","null","","","null","2","","NaN","","","","","","","","","","","","","",""
"","response","","html-keyboard-response","20","49660","0.0-1.0-23.0-0.0","0","0","22656","","76","","","75","2","","","1","2","training","adjacent","CD","3","4","O.jpg","L.jpg","0","1","0","",""
"","feedback","","html-keyboard-response","21","50670","0.0-1.0-24.0-0.0","0","0","22656","","null","","","null","2","","","","","","","","","","","","","","","",""
"","time_out","","html-keyboard-response","22","52677","0.0-1.0-26.0-0.0","0","0","22656","","null","","","null","2","","","","","","","","","","","","","","","",""
"","ITI","","html-keyboard-response","23","53686","0.0-1.0-27.0","0","0","22656","","null","","","null","2","","","","","","","","","","","","","","","NaN",""
"","S1","","html-keyboard-response","24","53949","0.0-1.0-29.0","0","0","22656","","null","","","null","3","","","","","","","","","","","","","","","",""
"","ISI","","html-keyboard-response","25","54957","0.0-1.0-30.0","0","0","22656","","null","","","null","3","NaN","","","","","","","","","","","","","","",""
"","S2","","html-keyboard-response","26","55220","0.0-1.0-31.0","0","0","22656","","null","","","null","3","","NaN","","","","","","","","","","","","","",""
"","response","","html-keyboard-response","27","55265","0.0-1.0-32.0-0.0","0","0","22656","","43","","","68","3","","","1","3","training","adjacent","BC","2","3","N.jpg","O.jpg","1","1","1","",""
"","feedback","","html-keyboard-response","28","56277","0.0-1.0-33.0-0.0","0","0","22656","","null","","","null","3","","","","","","","","","","","","","","","",""
"","ITI","","html-keyboard-response","29","57283","0.0-1.0-36.0","0","0","22656","","null","","","null","3","","","","","","","","","","","","","","","NaN",""
"","S1","","html-keyboard-response","30","57540","0.0-1.0-38.0","0","0","22656","","null","","","null","4","","","","","","","","","","","","","","","",""
"","ISI","","html-keyboard-response","31","58547","0.0-1.0-39.0","0","0","22656","","null","","","null","4","NaN","","","","","","","","","","","","","","",""
"","S2","","html-keyboard-response","32","58805","0.0-1.0-40.0","0","0","22656","","null","","","null","4","","NaN","","","","","","","","","","","","","",""
"","response","","html-keyboard-response","33","59037","0.0-1.0-41.0-0.0","0","0","22656","","229","","","68","4","","","1","4","training","adjacent","FG","6","7","P.jpg","R.jpg","1","1","1","",""
"","feedback","","html-keyboard-response","34","60044","0.0-1.0-42.0-0.0","0","0","22656","","null","","","null","4","","","","","","","","","","","","","","","",""
"","ITI","","html-keyboard-response","35","61052","0.0-1.0-45.0","0","0","22656","","null","","","null","4","","","","","","","","","","","","","","","NaN",""
"","S1","","html-keyboard-response","36","61310","0.0-1.0-47.0","0","0","22656","","null","","","null","5","","","","","","","","","","","","","","","",""
"","ISI","","html-keyboard-response","37","62318","0.0-1.0-48.0","0","0","22656","","null","","","null","5","NaN","","","","","","","","","","","","","","",""
"","S2","","html-keyboard-response","38","62581","0.0-1.0-49.0","0","0","22656","","null","","","null","5","","NaN","","","","","","","","","","","","","",""
"","response","","html-keyboard-response","39","62795","0.0-1.0-50.0-0.0","0","0","22656","","212","","","68","5","","","1","5","training","adjacent","DE","4","5","L.jpg","M.jpg","1","1","1","",""
"","feedback","","html-keyboard-response","40","63804","0.0-1.0-51.0-0.0","0","0","22656","","null","","","null","5","","","","","","","","","","","","","","","",""
"","ITI","","html-keyboard-response","41","64814","0.0-1.0-54.0","0","0","22656","","null","","","null","5","","","","","","","","","","","","","","","NaN",""
"","S1","","html-keyboard-response","42","65077","0.0-1.0-56.0","0","0","22656","","null","","","null","6","","","","","","","","","","","","","","","",""
"","ISI","","html-keyboard-response","43","66084","0.0-1.0-57.0","0","0","22656","","null","","","null","6","NaN","","","","","","","","","","","","","","",""
"","S2","","html-keyboard-response","44","66349","0.0-1.0-58.0","0","0","22656","","null","","","null","6","","NaN","","","","","","","","","","","","","",""
"","response","","html-keyboard-response","45","66568","0.0-1.0-59.0-0.0","0","0","22656","","217","","","68","6","","","1","6","training","adjacent","CB","3","2","O.jpg","N.jpg","1","0","0","",""
"","feedback","","html-keyboard-response","46","67579","0.0-1.0-60.0-0.0","0","0","22656","","null","","","null","6","","","","","","","","","","","","","","","",""
"","time_out","","html-keyboard-response","47","69588","0.0-1.0-62.0-0.0","0","0","22656","","null","","","null","6","","","","","","","","","","","","","","","",""
"","ITI","","html-keyboard-response","48","70597","0.0-1.0-63.0","0","0","22656","","null","","","null","6","","","","","","","","","","","","","","","NaN",""
"","S1","","html-keyboard-response","49","70859","0.0-1.0-65.0","0","0","22656","","null","","","null","7","","","","","","","","","","","","","","","",""
"","ISI","","html-keyboard-response","50","71869","0.0-1.0-66.0","0","0","22656","","null","","","null","7","NaN","","","","","","","","","","","","","","",""
"","S2","","html-keyboard-response","51","71993","0.0-1.0-67.0","0","0","22656","","121","","","75","7","","k","1","7","training","adjacent","CB","3","2","O.jpg","N.jpg","0","0","1","",""
"","feedback","","html-keyboard-response","52","73003","0.0-1.0-69.0-0.0","0","0","22656","","null","","","null","7","","","","","","","","","","","","","","","",""
"","ITI","","html-keyboard-response","53","74011","0.0-1.0-72.0","0","0","22656","","null","","","null","7","","","","","","","","","","","","","","","NaN",""
"","S1","","html-keyboard-response","54","74266","0.0-1.0-74.0","0","0","22656","","null","","","null","8","","","","","","","","","","","","","","","",""
"","ISI","","html-keyboard-response","55","75277","0.0-1.0-75.0","0","0","22656","","921","","","68","8","d","","","","","","","","","","","","","","",""
"","S2","","html-keyboard-response","56","75541","0.0-1.0-76.0","0","0","22656","","null","","","null","8","","NaN","","","","","","","","","","","","","",""
"","response","","html-keyboard-response","57","75904","0.0-1.0-77.0-0.0","0","0","22656","","360","","","68","8","","","1","8","training","adjacent","ED","5","4","M.jpg","L.jpg","1","0","0","",""
"","feedback","","html-keyboard-response","58","76917","0.0-1.0-78.0-0.0","0","0","22656","","null","","","null","8","","","","","","","","","","","","","","","",""
"","time_out","","html-keyboard-response","59","78925","0.0-1.0-80.0-0.0","0","0","22656","","null","","","null","8","","","","","","","","","","","","","","","",""
"","ITI","","html-keyboard-response","60","79932","0.0-1.0-81.0","0","0","22656","","null","","","null","8","","","","","","","","","","","","","","","NaN",""
"","S1","","html-keyboard-response","61","80196","0.0-1.0-83.0","0","0","22656","","null","","","null","9","","","","","","","","","","","","","","","",""
"","ISI","","html-keyboard-response","62","81203","0.0-1.0-84.0","0","0","22656","","964","","","75","9","k","","","","","","","","","","","","","","",""
"","S2","","html-keyboard-response","63","81459","0.0-1.0-85.0","0","0","22656","","null","","","null","9","","NaN","","","","","","","","","","","","","",""
"","response","","html-keyboard-response","64","81843","0.0-1.0-86.0-0.0","0","0","22656","","382","","","75","9","","","1","9","training","adjacent","ED","5","4","M.jpg","L.jpg","0","0","1","",""
"","feedback","","html-keyboard-response","65","82853","0.0-1.0-87.0-0.0","0","0","22656","","null","","","null","9","","","","","","","","","","","","","","","",""
"","ITI","","html-keyboard-response","66","83860","0.0-1.0-90.0","0","0","22656","","null","","","null","9","","","","","","","","","","","","","","","NaN",""
"","S1","","html-keyboard-response","67","84123","0.0-1.0-92.0","0","0","22656","","null","","","null","10","","","","","","","","","","","","","","","",""
"","ISI","","html-keyboard-response","68","85133","0.0-1.0-93.0","0","0","22656","","null","","","null","10","NaN","","","","","","","","","","","","","","",""
"","S2","","html-keyboard-response","69","85395","0.0-1.0-94.0","0","0","22656","","null","","","null","10","","NaN","","","","","","","","","","","","","",""
"","response","","html-keyboard-response","70","85541","0.0-1.0-95.0-0.0","0","0","22656","","145","","","75","10","","","1","10","training","adjacent","AB","1","2","Q.jpg","N.jpg","0","1","0","",""
"","feedback","","html-keyboard-response","71","86547","0.0-1.0-96.0-0.0","0","0","22656","","null","","","null","10","","","","","","","","","","","","","","","",""
"","time_out","","html-keyboard-response","72","88556","0.0-1.0-98.0-0.0","0","0","22656","","null","","","null","10","","","","","","","","","","","","","","","",""
"","ITI","","html-keyboard-response","73","89562","0.0-1.0-99.0","0","0","22656","","null","","","null","10","","","","","","","","","","","","","","","NaN",""
"","S1","","html-keyboard-response","74","89821","0.0-1.0-101.0","0","0","22656","","null","","","null","11","","","","","","","","","","","","","","","",""
"","ISI","","html-keyboard-response","75","90828","0.0-1.0-102.0","0","0","22656","","null","","","null","11","NaN","","","","","","","","","","","","","","",""
"","S2","","html-keyboard-response","76","91091","0.0-1.0-103.0","0","0","22656","","null","","","null","11","","NaN","","","","","","","","","","","","","",""
"","response","","html-keyboard-response","77","91142","0.0-1.0-104.0-0.0","0","0","22656","","48","","","68","11","","","1","11","training","adjacent","BA","2","1","N.jpg","Q.jpg","1","0","0","",""
"","feedback","","html-keyboard-response","78","92157","0.0-1.0-105.0-0.0","0","0","22656","","null","","","null","11","","","","","","","","","","","","","","","",""
"","time_out","","html-keyboard-response","79","94163","0.0-1.0-107.0-0.0","0","0","22656","","null","","","null","11","","","","","","","","","","","","","","","",""
"","ITI","","html-keyboard-response","80","95173","0.0-1.0-108.0","0","0","22656","","null","","","null","11","","","","","","","","","","","","","","","NaN",""
"","S1","","html-keyboard-response","81","95437","0.0-1.0-110.0","0","0","22656","","null","","","null","12","","","","","","","","","","","","","","","",""
"","ISI","","html-keyboard-response","82","96445","0.0-1.0-111.0","0","0","22656","","null","","","null","12","NaN","","","","","","","","","","","","","","",""
"","S2","","html-keyboard-response","83","96708","0.0-1.0-112.0","0","0","22656","","null","","","null","12","","NaN","","","","","","","","","","","","","",""
"","response","","html-keyboard-response","84","96794","0.0-1.0-113.0-0.0","0","0","22656","","85","","","75","12","","","1","12","training","adjacent","DC","4","3","L.jpg","O.jpg","0","0","1","",""
"","feedback","","html-keyboard-response","85","97805","0.0-1.0-114.0-0.0","0","0","22656","","null","","","null","12","","","","","","","","","","","","","","","",""
"","ITI","","html-keyboard-response","86","98813","0.0-1.0-117.0","0","0","22656","","null","","","null","12","","","","","","","","","","","","","","","NaN",""
"","S1","","html-keyboard-response","87","99077","0.0-1.0-119.0","0","0","22656","","null","","","null","13","","","","","","","","","","","","","","","",""
"","ISI","","html-keyboard-response","88","100084","0.0-1.0-120.0","0","0","22656","","null","","","null","13","NaN","","","","","","","","","","","","","","",""
"","S2","","html-keyboard-response","89","100347","0.0-1.0-121.0","0","0","22656","","null","","","null","13","","NaN","","","","","","","","","","","","","",""
"","response","","html-keyboard-response","90","100383","0.0-1.0-122.0-0.0","0","0","22656","","33","","","75","13","","","1","13","training","adjacent","DC","4","3","L.jpg","O.jpg","0","0","1","",""
"","feedback","","html-keyboard-response","91","101396","0.0-1.0-123.0-0.0","0","0","22656","","null","","","null","13","","","","","","","","","","","","","","","",""
"","ITI","","html-keyboard-response","92","102403","0.0-1.0-126.0","0","0","22656","","null","","","null","13","","","","","","","","","","","","","","","NaN",""
"","S1","","html-keyboard-response","93","102659","0.0-1.0-128.0","0","0","22656","","null","","","null","14","","","","","","","","","","","","","","","",""
"","ISI","","html-keyboard-response","94","103669","0.0-1.0-129.0","0","0","22656","","null","","","null","14","NaN","","","","","","","","","","","","","","",""
"","S2","","html-keyboard-response","95","103933","0.0-1.0-130.0","0","0","22656","","null","","","null","14","","NaN","","","","","","","","","","","","","",""
"","response","","html-keyboard-response","96","104231","0.0-1.0-131.0-0.0","0","0","22656","","296","","","68","14","","","1","14","training","adjacent","EF","5","6","M.jpg","P.jpg","1","1","1","",""
"","feedback","","html-keyboard-response","97","105245","0.0-1.0-132.0-0.0","0","0","22656","","null","","","null","14","","","","","","","","","","","","","","","",""
"","ITI","","html-keyboard-response","98","106252","0.0-1.0-135.0","0","0","22656","","null","","","null","14","","","","","","","","","","","","","","","NaN",""
"","S1","","html-keyboard-response","99","106515","0.0-1.0-137.0","0","0","22656","","null","","","null","15","","","","","","","","","","","","","","","",""
"","ISI","","html-keyboard-response","100","107523","0.0-1.0-138.0","0","0","22656","","null","","","null","15","NaN","","","","","","","","","","","","","","",""
"","S2","","html-keyboard-response","101","107776","0.0-1.0-139.0","0","0","22656","","null","","","null","15","","NaN","","","","","","","","","","","","","",""
"","response","","html-keyboard-response","102","108034","0.0-1.0-140.0-0.0","0","0","22656","","255","","","68","15","","","1","15","training","adjacent","FE","6","5","P.jpg","M.jpg","1","0","0","",""
"","feedback","","html-keyboard-response","103","109044","0.0-1.0-141.0-0.0","0","0","22656","","null","","","null","15","","","","","","","","","","","","","","","",""
"","time_out","","html-keyboard-response","104","111051","0.0-1.0-143.0-0.0","0","0","22656","","null","","","null","15","","","","","","","","","","","","","","","",""
"","ITI","","html-keyboard-response","105","112059","0.0-1.0-144.0","0","0","22656","","null","","","null","15","","","","","","","","","","","","","","","NaN",""
"","S1","","html-keyboard-response","106","112315","0.0-1.0-146.0","0","0","22656","","null","","","null","16","","","","","","","","","","","","","","","",""
"","ISI","","html-keyboard-response","107","113322","0.0-1.0-147.0","0","0","22656","","null","","","null","16","NaN","","","","","","","","","","","","","","",""
"","S2","","html-keyboard-response","108","113581","0.0-1.0-148.0","0","0","22656","","null","","","null","16","","NaN","","","","","","","","","","","","","",""
"","response","","html-keyboard-response","109","113827","0.0-1.0-149.0-0.0","0","0","22656","","244","","","75","16","","","1","16","training","adjacent","ED","5","4","M.jpg","L.jpg","0","0","1","",""
"","feedback","","html-keyboard-response","110","114837","0.0-1.0-150.0-0.0","0","0","22656","","null","","","null","16","","","","","","","","","","","","","","","",""
"","ITI","","html-keyboard-response","111","115845","0.0-1.0-153.0","0","0","22656","","null","","","null","16","","","","","","","","","","","","","","","NaN",""
"","S1","","html-keyboard-response","112","116106","0.0-1.0-155.0","0","0","22656","","null","","","null","17","","","","","","","","","","","","","","","",""
"","ISI","","html-keyboard-response","113","117112","0.0-1.0-156.0","0","0","22656","","null","","","null","17","NaN","","","","","","","","","","","","","","",""
"","S2","","html-keyboard-response","114","117372","0.0-1.0-157.0","0","0","22656","","null","","","null","17","","NaN","","","","","","","","","","","","","",""
"","response","","html-keyboard-response","115","117517","0.0-1.0-158.0-0.0","0","0","22656","","144","","","68","17","","","1","17","training","adjacent","DE","4","5","L.jpg","M.jpg","1","1","1","",""
"","feedback","","html-keyboard-response","116","118533","0.0-1.0-159.0-0.0","0","0","22656","","null","","","null","17","","","","","","","","","","","","","","","",""
"","ITI","","html-keyboard-response","117","119539","0.0-1.0-162.0","0","0","22656","","null","","","null","17","","","","","","","","","","","","","","","NaN",""
"","S1","","html-keyboard-response","118","119793","0.0-1.0-164.0","0","0","22656","","null","","","null","18","","","","","","","","","","","","","","","",""
"","ISI","","html-keyboard-response","119","120804","0.0-1.0-165.0","0","0","22656","","null","","","null","18","NaN","","","","","","","","","","","","","","",""
"","S2","","html-keyboard-response","120","121069","0.0-1.0-166.0","0","0","22656","","null","","","null","18","","NaN","","","","","","","","","","","","","",""
"","response","","html-keyboard-response","121","121207","0.0-1.0-167.0-0.0","0","0","22656","","136","","","75","18","","","1","18","training","adjacent","CD","3","4","O.jpg","L.jpg","0","1","0","",""
"","feedback","","html-keyboard-response","122","122221","0.0-1.0-168.0-0.0","0","0","22656","","null","","","null","18","","","","","","","","","","","","","","","",""
"","time_out","","html-keyboard-response","123","124228","0.0-1.0-170.0-0.0","0","0","22656","","null","","","null","18","","","","","","","","","","","","","","","",""
"","ITI","","html-keyboard-response","124","125233","0.0-1.0-171.0","0","0","22656","","null","","","null","18","","","","","","","","","","","","","","","NaN",""
"","S1","","html-keyboard-response","125","125493","0.0-1.0-173.0","0","0","22656","","null","","","null","19","","","","","","","","","","","","","","","",""
"","ISI","","html-keyboard-response","126","126499","0.0-1.0-174.0","0","0","22656","","null","","","null","19","NaN","","","","","","","","","","","","","","",""
"","S2","","html-keyboard-response","127","126754","0.0-1.0-175.0","0","0","22656","","null","","","null","19","","NaN","","","","","","","","","","","","","",""
"","response","","html-keyboard-response","128","126878","0.0-1.0-176.0-0.0","0","0","22656","","121","","","75","19","","","1","19","training","adjacent","GF","7","6","R.jpg","P.jpg","0","0","1","",""
"","feedback","","html-keyboard-response","129","127891","0.0-1.0-177.0-0.0","0","0","22656","","null","","","null","19","","","","","","","","","","","","","","","",""
"","ITI","","html-keyboard-response","130","128899","0.0-1.0-180.0","0","0","22656","","null","","","null","19","","","","","","","","","","","","","","","NaN",""
"","S1","","html-keyboard-response","131","129155","0.0-1.0-182.0","0","0","22656","","null","","","null","20","","","","","","","","","","","","","","","",""
"","ISI","","html-keyboard-response","132","130162","0.0-1.0-183.0","0","0","22656","","null","","","null","20","NaN","","","","","","","","","","","","","","",""
"","S2","","html-keyboard-response","133","130420","0.0-1.0-184.0","0","0","22656","","null","","","null","20","","NaN","","","","","","","","","","","","","",""
"","response","","html-keyboard-response","134","130648","0.0-1.0-185.0-0.0","0","0","22656","","225","","","75","20","","","1","20","training","adjacent","CD","3","4","O.jpg","L.jpg","0","1","0","",""
"","feedback","","html-keyboard-response","135","131660","0.0-1.0-186.0-0.0","0","0","22656","","null","","","null","20","","","","","","","","","","","","","","","",""
"","time_out","","html-keyboard-response","136","133668","0.0-1.0-188.0-0.0","0","0","22656","","null","","","null","20","","","","","","","","","","","","","","","",""
"","ITI","","html-keyboard-response","137","134675","0.0-1.0-189.0","0","0","22656","","null","","","null","20","","","","","","","","","","","","","","","NaN",""
"","S1","","html-keyboard-response","138","134932","0.0-1.0-191.0","0","0","22656","","null","","","null","21","","","","","","","","","","","","","","","",""
"","ISI","","html-keyboard-response","139","135938","0.0-1.0-192.0","0","0","22656","","null","","","null","21","NaN","","","","","","","","","","","","","","",""
"","S2","","html-keyboard-response","140","136197","0.0-1.0-193.0","0","0","22656","","null","","","null","21","","NaN","","","","","","","","","","","","","",""
"","response","","html-keyboard-response","141","136313","0.0-1.0-194.0-0.0","0","0","22656","","113","","","68","21","","","1","21","training","adjacent","FE","6","5","P.jpg","M.jpg","1","0","0","",""
"","feedback","","html-keyboard-response","142","137323","0.0-1.0-195.0-0.0","0","0","22656","","null","","","null","21","","","","","","","","","","","","","","","",""
"","time_out","","html-keyboard-response","143","139331","0.0-1.0-197.0-0.0","0","0","22656","","null","","","null","21","","","","","","","","","","","","","","","",""
"","ITI","","html-keyboard-response","144","140338","0.0-1.0-198.0","0","0","22656","","null","","","null","21","","","","","","","","","","","","","","","NaN",""
"","S1","","html-keyboard-response","145","140597","0.0-1.0-200.0","0","0","22656","","null","","","null","22","","","","","","","","","","","","","","","",""
"","ISI","","html-keyboard-response","146","141604","0.0-1.0-201.0","0","0","22656","","null","","","null","22","NaN","","","","","","","","","","","","","","",""
"","S2","","html-keyboard-response","147","141869","0.0-1.0-202.0","0","0","22656","","null","","","null","22","","NaN","","","","","","","","","","","","","",""
"","response","","html-keyboard-response","148","141959","0.0-1.0-203.0-0.0","0","0","22656","","88","","","75","22","","","1","22","training","adjacent","FG","6","7","P.jpg","R.jpg","0","1","0","",""
"","feedback","","html-keyboard-response","149","142971","0.0-1.0-204.0-0.0","0","0","22656","","null","","","null","22","","","","","","","","","","","","","","","",""
"","time_out","","html-keyboard-response","150","144980","0.0-1.0-206.0-0.0","0","0","22656","","null","","","null","22","","","","","","","","","","","","","","","",""
"","ITI","","html-keyboard-response","151","145986","0.0-1.0-207.0","0","0","22656","","null","","","null","22","","","","","","","","","","","","","","","NaN",""
"","S1","","html-keyboard-response","152","146242","0.0-1.0-209.0","0","0","22656","","null","","","null","23","","","","","","","","","","","","","","","",""
"","ISI","","html-keyboard-response","153","147252","0.0-1.0-210.0","0","0","22656","","null","","","null","23","NaN","","","","","","","","","","","","","","",""
"","S2","","html-keyboard-response","154","147516","0.0-1.0-211.0","0","0","22656","","null","","","null","23","","NaN","","","","","","","","","","","","","",""
"","response","","html-keyboard-response","155","147667","0.0-1.0-212.0-0.0","0","0","22656","","148","","","68","23","","","1","23","training","adjacent","GF","7","6","R.jpg","P.jpg","1","0","0","",""
"","feedback","","html-keyboard-response","156","148674","0.0-1.0-213.0-0.0","0","0","22656","","null","","","null","23","","","","","","","","","","","","","","","",""
"","time_out","","html-keyboard-response","157","150682","0.0-1.0-215.0-0.0","0","0","22656","","null","","","null","23","","","","","","","","","","","","","","","",""
"","ITI","","html-keyboard-response","158","151691","0.0-1.0-216.0","0","0","22656","","null","","","null","23","","","","","","","","","","","","","","","NaN",""
"","S1","","html-keyboard-response","159","151954","0.0-1.0-218.0","0","0","22656","","null","","","null","24","","","","","","","","","","","","","","","",""
"","ISI","","html-keyboard-response","160","152964","0.0-1.0-219.0","0","0","22656","","null","","","null","24","NaN","","","","","","","","","","","","","","",""
"","S2","","html-keyboard-response","161","153222","0.0-1.0-220.0","0","0","22656","","256","","","75","24","","k","1","24","training","adjacent","BC","2","3","N.jpg","O.jpg","0","1","0","",""
"","feedback","","html-keyboard-response","162","154235","0.0-1.0-222.0-0.0","0","0","22656","","null","","","null","24","","","","","","","","","","","","","","","",""
"","time_out","","html-keyboard-response","163","156244","0.0-1.0-224.0-0.0","0","0","22656","","null","","","null","24","","","","","","","","","","","","","","","",""
"","ITI","","html-keyboard-response","164","157251","0.0-1.0-225.0","0","0","22656","","null","","","null","24","","","","","","","","","","","","","","","NaN",""
"","S1","","html-keyboard-response","165","157515","0.0-1.0-227.0","0","0","22656","","null","","","null","25","","","","","","","","","","","","","","","",""
"","ISI","","html-keyboard-response","166","158522","0.0-1.0-228.0","0","0","22656","","null","","","null","25","NaN","","","","","","","","","","","","","","",""
"","S2","","html-keyboard-response","167","158777","0.0-1.0-229.0","0","0","22656","","null","","","null","25","","NaN","","","","","","","","","","","","","",""
"","response","","html-keyboard-response","168","158944","0.0-1.0-230.0-0.0","0","0","22656","","164","","","68","25","","","1","25","training","adjacent","EF","5","6","M.jpg","P.jpg","1","1","1","",""
"","feedback","","html-keyboard-response","169","159957","0.0-1.0-231.0-0.0","0","0","22656","","null","","","null","25","","","","","","","","","","","","","","","",""
"","ITI","","html-keyboard-response","170","160962","0.0-1.0-234.0","0","0","22656","","null","","","null","25","","","","","","","","","","","","","","","NaN",""
"","S1","","html-keyboard-response","171","161219","0.0-1.0-236.0","0","0","22656","","null","","","null","26","","","","","","","","","","","","","","","",""
"","ISI","","html-keyboard-response","172","162229","0.0-1.0-237.0","0","0","22656","","null","","","null","26","NaN","","","","","","","","","","","","","","",""
"","S2","","html-keyboard-response","173","162489","0.0-1.0-238.0","0","0","22656","","null","","","null","26","","NaN","","","","","","","","","","","","","",""
"","response","","html-keyboard-response","174","162805","0.0-1.0-239.0-0.0","0","0","22656","","314","","","68","26","","","1","26","training","adjacent","BA","2","1","N.jpg","Q.jpg","1","0","0","",""
"","feedback","","html-keyboard-response","175","163819","0.0-1.0-240.0-0.0","0","0","22656","","null","","","null","26","","","","","","","","","","","","","","","",""
"","time_out","","html-keyboard-response","176","165828","0.0-1.0-242.0-0.0","0","0","22656","","null","","","null","26","","","","","","","","","","","","","","","",""
"","ITI","","html-keyboard-response","177","166835","0.0-1.0-243.0","0","0","22656","","null","","","null","26","","","","","","","","","","","","","","","NaN",""
"","S1","","html-keyboard-response","178","167091","0.0-1.0-245.0","0","0","22656","","null","","","null","27","","","","","","","","","","","","","","","",""
"","ISI","","html-keyboard-response","179","168097","0.0-1.0-246.0","0","0","22656","","null","","","null","27","NaN","","","","","","","","","","","","","","",""
"","S2","","html-keyboard-response","180","168356","0.0-1.0-247.0","0","0","22656","","null","","","null","27","","NaN","","","","","","","","","","","","","",""
"","response","","html-keyboard-response","181","168552","0.0-1.0-248.0-0.0","0","0","22656","","193","","","68","27","","","1","27","training","adjacent","CB","3","2","O.jpg","N.jpg","1","0","0","",""
"","feedback","","html-keyboard-response","182","169563","0.0-1.0-249.0-0.0","0","0","22656","","null","","","null","27","","","","","","","","","","","","","","","",""
"","time_out","","html-keyboard-response","183","171572","0.0-1.0-251.0-0.0","0","0","22656","","null","","","null","27","","","","","","","","","","","","","","","",""
"","ITI","","html-keyboard-response","184","172578","0.0-1.0-252.0","0","0","22656","","null","","","null","27","","","","","","","","","","","","","","","NaN",""
"","S1","","html-keyboard-response","185","172834","0.0-1.0-254.0","0","0","22656","","null","","","null","28","","","","","","","","","","","","","","","",""
"","ISI","","html-keyboard-response","186","173845","0.0-1.0-255.0","0","0","22656","","null","","","null","28","NaN","","","","","","","","","","","","","","",""
"","S2","","html-keyboard-response","187","174106","0.0-1.0-256.0","0","0","22656","","null","","","null","28","","NaN","","","","","","","","","","","","","",""
"","response","","html-keyboard-response","188","174446","0.0-1.0-257.0-0.0","0","0","22656","","338","","","75","28","","","1","28","training","adjacent","BC","2","3","N.jpg","O.jpg","0","1","0","",""
"","feedback","","html-keyboard-response","189","175460","0.0-1.0-258.0-0.0","0","0","22656","","null","","","null","28","","","","","","","","","","","","","","","",""
"","time_out","","html-keyboard-response","190","177467","0.0-1.0-260.0-0.0","0","0","22656","","null","","","null","28","","","","","","","","","","","","","","","",""
"","ITI","","html-keyboard-response","191","178476","0.0-1.0-261.0","0","0","22656","","null","","","null","28","","","","","","","","","","","","","","","NaN",""
"","S1","","html-keyboard-response","192","178737","0.0-1.0-263.0","0","0","22656","","null","","","null","29","","","","","","","","","","","","","","","",""
"","ISI","","html-keyboard-response","193","179748","0.0-1.0-264.0","0","0","22656","","null","","","null","29","NaN","","","","","","","","","","","","","","",""
"","S2","","html-keyboard-response","194","180012","0.0-1.0-265.0","0","0","22656","","null","","","null","29","","NaN","","","","","","","","","","","","","",""
"","response","","html-keyboard-response","195","180215","0.0-1.0-266.0-0.0","0","0","22656","","202","","","68","29","","","1","29","training","adjacent","BA","2","1","N.jpg","Q.jpg","1","0","0","",""
"","feedback","","html-keyboard-response","196","181228","0.0-1.0-267.0-0.0","0","0","22656","","null","","","null","29","","","","","","","","","","","","","","","",""
"","time_out","","html-keyboard-response","197","183236","0.0-1.0-269.0-0.0","0","0","22656","","null","","","null","29","","","","","","","","","","","","","","","",""
"","ITI","","html-keyboard-response","198","184243","0.0-1.0-270.0","0","0","22656","","null","","","null","29","","","","","","","","","","","","","","","NaN",""
"","S1","","html-keyboard-response","199","184508","0.0-1.0-272.0","0","0","22656","","null","","","null","30","","","","","","","","","","","","","","","",""
"","ISI","","html-keyboard-response","200","185516","0.0-1.0-273.0","0","0","22656","","null","","","null","30","NaN","","","","","","","","","","","","","","",""
"","S2","","html-keyboard-response","201","185771","0.0-1.0-274.0","0","0","22656","","null","","","null","30","","NaN","","","","","","","","","","","","","",""
"","response","","html-keyboard-response","202","186000","0.0-1.0-275.0-0.0","0","0","22656","","226","","","75","30","","","1","30","training","adjacent","AB","1","2","Q.jpg","N.jpg","0","1","0","",""
"","feedback","","html-keyboard-response","203","187010","0.0-1.0-276.0-0.0","0","0","22656","","null","","","null","30","","","","","","","","","","","","","","","",""
"","time_out","","html-keyboard-response","204","189018","0.0-1.0-278.0-0.0","0","0","22656","","null","","","null","30","","","","","","","","","","","","","","","",""
"","ITI","","html-keyboard-response","205","190028","0.0-1.0-279.0","0","0","22656","","null","","","null","30","","","","","","","","","","","","","","","NaN",""
"","S1","","html-keyboard-response","206","190289","0.0-1.0-281.0","0","0","22656","","null","","","null","31","","","","","","","","","","","","","","","",""
"","ISI","","html-keyboard-response","207","191300","0.0-1.0-282.0","0","0","22656","","null","","","null","31","NaN","","","","","","","","","","","","","","",""
"","S2","","html-keyboard-response","208","191564","0.0-1.0-283.0","0","0","22656","","null","","","null","31","","NaN","","","","","","","","","","","","","",""
"","response","","html-keyboard-response","209","191732","0.0-1.0-284.0-0.0","0","0","22656","","165","","","68","31","","","1","31","training","adjacent","FG","6","7","P.jpg","R.jpg","1","1","1","",""
"","feedback","","html-keyboard-response","210","192739","0.0-1.0-285.0-0.0","0","0","22656","","null","","","null","31","","","","","","","","","","","","","","","",""
"","ITI","","html-keyboard-response","211","193747","0.0-1.0-288.0","0","0","22656","","null","","","null","31","","","","","","","","","","","","","","","NaN",""
"","S1","","html-keyboard-response","212","194011","0.0-1.0-290.0","0","0","22656","","null","","","null","32","","","","","","","","","","","","","","","",""
"","ISI","","html-keyboard-response","213","195018","0.0-1.0-291.0","0","0","22656","","null","","","null","32","NaN","","","","","","","","","","","","","","",""
"","S2","","html-keyboard-response","214","195282","0.0-1.0-292.0","0","0","22656","","null","","","null","32","","NaN","","","","","","","","","","","","","",""
"","response","","html-keyboard-response","215","195522","0.0-1.0-293.0-0.0","0","0","22656","","238","","","75","32","","","1","32","training","adjacent","BA","2","1","N.jpg","Q.jpg","0","0","1","",""
"","feedback","","html-keyboard-response","216","196530","0.0-1.0-294.0-0.0","0","0","22656","","null","","","null","32","","","","","","","","","","","","","","","",""
"","ITI","","html-keyboard-response","217","197540","0.0-1.0-297.0","0","0","22656","","null","","","null","32","","","","","","","","","","","","","","","NaN",""
"","S1","","html-keyboard-response","218","197800","0.0-1.0-299.0","0","0","22656","","null","","","null","33","","","","","","","","","","","","","","","",""
"","ISI","","html-keyboard-response","219","198811","0.0-1.0-300.0","0","0","22656","","null","","","null","33","NaN","","","","","","","","","","","","","","",""
"","S2","","html-keyboard-response","220","199074","0.0-1.0-301.0","0","0","22656","","null","","","null","33","","NaN","","","","","","","","","","","","","",""
"","response","","html-keyboard-response","221","199195","0.0-1.0-302.0-0.0","0","0","22656","","118","","","75","33","","","1","33","training","adjacent","FE","6","5","P.jpg","M.jpg","0","0","1","",""
"","feedback","","html-keyboard-response","222","200204","0.0-1.0-303.0-0.0","0","0","22656","","null","","","null","33","","","","","","","","","","","","","","","",""
"","ITI","","html-keyboard-response","223","201212","0.0-1.0-306.0","0","0","22656","","null","","","null","33","","","","","","","","","","","","","","","NaN",""
"","S1","","html-keyboard-response","224","201476","0.0-1.0-308.0","0","0","22656","","null","","","null","34","","","","","","","","","","","","","","","",""
"","ISI","","html-keyboard-response","225","202483","0.0-1.0-309.0","0","0","22656","","null","","","null","34","NaN","","","","","","","","","","","","","","",""
"","S2","","html-keyboard-response","226","202747","0.0-1.0-310.0","0","0","22656","","null","","","null","34","","NaN","","","","","","","","","","","","","",""
"","response","","html-keyboard-response","227","202937","0.0-1.0-311.0-0.0","0","0","22656","","187","","","75","34","","","1","34","training","adjacent","GF","7","6","R.jpg","P.jpg","0","0","1","",""
"","feedback","","html-keyboard-response","228","203946","0.0-1.0-312.0-0.0","0","0","22656","","null","","","null","34","","","","","","","","","","","","","","","",""
"","ITI","","html-keyboard-response","229","204956","0.0-1.0-315.0","0","0","22656","","null","","","null","34","","","","","","","","","","","","","","","NaN",""
"","S1","","html-keyboard-response","230","205220","0.0-1.0-317.0","0","0","22656","","null","","","null","35","","","","","","","","","","","","","","","",""
"","ISI","","html-keyboard-response","231","206228","0.0-1.0-318.0","0","0","22656","","null","","","null","35","NaN","","","","","","","","","","","","","","",""
"","S2","","html-keyboard-response","232","206491","0.0-1.0-319.0","0","0","22656","","null","","","null","35","","NaN","","","","","","","","","","","","","",""
"","response","","html-keyboard-response","233","206629","0.0-1.0-320.0-0.0","0","0","22656","","135","","","75","35","","","1","35","training","adjacent","EF","5","6","M.jpg","P.jpg","0","1","0","",""
"","feedback","","html-keyboard-response","234","207644","0.0-1.0-321.0-0.0","0","0","22656","","null","","","null","35","","","","","","","","","","","","","","","",""
"","time_out","","html-keyboard-response","235","209649","0.0-1.0-323.0-0.0","0","0","22656","","null","","","null","35","","","","","","","","","","","","","","","",""
"","ITI","","html-keyboard-response","236","210658","0.0-1.0-324.0","0","0","22656","","null","","","null","35","","","","","","","","","","","","","","","NaN",""
"","S1","","html-keyboard-response","237","210915","0.0-1.0-326.0","0","0","22656","","null","","","null","36","","","","","","","","","","","","","","","",""
"","ISI","","html-keyboard-response","238","211921","0.0-1.0-327.0","0","0","22656","","null","","","null","36","NaN","","","","","","","","","","","","","","",""
"","S2","","html-keyboard-response","239","212180","0.0-1.0-328.0","0","0","22656","","null","","","null","36","","NaN","","","","","","","","","","","","","",""
"","response","","html-keyboard-response","240","212281","0.0-1.0-329.0-0.0","0","0","22656","","99","","","68","36","","","1","36","training","adjacent","ED","5","4","M.jpg","L.jpg","1","0","0","",""
"","feedback","","html-keyboard-response","241","213289","0.0-1.0-330.0-0.0","0","0","22656","","null","","","null","36","","","","","","","","","","","","","","","",""
"","time_out","","html-keyboard-response","242","215296","0.0-1.0-332.0-0.0","0","0","22656","","null","","","null","36","","","","","","","","","","","","","","","",""
"","ITI","","html-keyboard-response","243","216307","0.0-1.0-333.0","0","0","22656","","null","","","null","36","","","","","","","","","","","","","","","NaN",""
"","S1","","html-keyboard-response","244","216572","0.0-1.0-335.0","0","0","22656","","null","","","null","37","","","","","","","","","","","","","","","",""
"","ISI","","html-keyboard-response","245","217578","0.0-1.0-336.0","0","0","22656","","null","","","null","37","NaN","","","","","","","","","","","","","","",""
"","S2","","html-keyboard-response","246","217834","0.0-1.0-337.0","0","0","22656","","null","","","null","37","","NaN","","","","","","","","","","","","","",""
"","response","","html-keyboard-response","247","217900","0.0-1.0-338.0-0.0","0","0","22656","","63","","","75","37","","","1","37","training","adjacent","BC","2","3","N.jpg","O.jpg","0","1","0","",""
"","feedback","","html-keyboard-response","248","218908","0.0-1.0-339.0-0.0","0","0","22656","","null","","","null","37","","","","","","","","","","","","","","","",""
"","time_out","","html-keyboard-response","249","220914","0.0-1.0-341.0-0.0","0","0","22656","","null","","","null","37","","","","","","","","","","","","","","","",""
"","ITI","","html-keyboard-response","250","221924","0.0-1.0-342.0","0","0","22656","","null","","","null","37","","","","","","","","","","","","","","","NaN",""
"","S1","","html-keyboard-response","251","222188","0.0-1.0-344.0","0","0","22656","","null","","","null","38","","","","","","","","","","","","","","","",""
"","ISI","","html-keyboard-response","252","223192","0.0-1.0-345.0","0","0","22656","","null","","","null","38","NaN","","","","","","","","","","","","","","",""
"","S2","","html-keyboard-response","253","223451","0.0-1.0-346.0","0","0","22656","","null","","","null","38","","NaN","","","","","","","","","","","","","",""
"","response","","html-keyboard-response","254","223585","0.0-1.0-347.0-0.0","0","0","22656","","131","","","68","38","","","1","38","training","adjacent","FE","6","5","P.jpg","M.jpg","1","0","0","",""
"","feedback","","html-keyboard-response","255","224595","0.0-1.0-348.0-0.0","0","0","22656","","null","","","null","38","","","","","","","","","","","","","","","",""
"","time_out","","html-keyboard-response","256","226602","0.0-1.0-350.0-0.0","0","0","22656","","null","","","null","38","","","","","","","","","","","","","","","",""
"","ITI","","html-keyboard-response","257","227609","0.0-1.0-351.0","0","0","22656","","null","","","null","38","","","","","","","","","","","","","","","NaN",""
"","S1","","html-keyboard-response","258","227865","0.0-1.0-353.0","0","0","22656","","null","","","null","39","","","","","","","","","","","","","","","",""
"","ISI","","html-keyboard-response","259","228873","0.0-1.0-354.0","0","0","22656","","null","","","null","39","NaN","","","","","","","","","","","","","","",""
"","S2","","html-keyboard-response","260","229083","0.0-1.0-355.0","0","0","22656","","207","","","75","39","","k","1","39","training","adjacent","GF","7","6","R.jpg","P.jpg","0","0","1","",""
"","feedback","","html-keyboard-response","261","230091","0.0-1.0-357.0-0.0","0","0","22656","","null","","","null","39","","","","","","","","","","","","","","","",""
"","ITI","","html-keyboard-response","262","231097","0.0-1.0-360.0","0","0","22656","","null","","","null","39","","","","","","","","","","","","","","","NaN",""
"","S1","","html-keyboard-response","263","231354","0.0-1.0-362.0","0","0","22656","","null","","","null","40","","","","","","","","","","","","","","","",""
"","ISI","","html-keyboard-response","264","232364","0.0-1.0-363.0","0","0","22656","","null","","","null","40","NaN","","","","","","","","","","","","","","",""
"","S2","","html-keyboard-response","265","232625","0.0-1.0-364.0","0","0","22656","","null","","","null","40","","NaN","","","","","","","","","","","","","",""
"","response","","html-keyboard-response","266","232868","0.0-1.0-365.0-0.0","0","0","22656","","241","","","75","40","","","1","40","training","adjacent","AB","1","2","Q.jpg","N.jpg","0","1","0","",""
"","feedback","","html-keyboard-response","267","233882","0.0-1.0-366.0-0.0","0","0","22656","","null","","","null","40","","","","","","","","","","","","","","","",""
"","time_out","","html-keyboard-response","268","235890","0.0-1.0-368.0-0.0","0","0","22656","","null","","","null","40","","","","","","","","","","","","","","","",""
"","ITI","","html-keyboard-response","269","236897","0.0-1.0-369.0","0","0","22656","","null","","","null","40","","","","","","","","","","","","","","","NaN",""
"","S1","","html-keyboard-response","270","237153","0.0-1.0-371.0","0","0","22656","","null","","","null","41","","","","","","","","","","","","","","","",""
"","ISI","","html-keyboard-response","271","238162","0.0-1.0-372.0","0","0","22656","","null","","","null","41","NaN","","","","","","","","","","","","","","",""
"","S2","","html-keyboard-response","272","238427","0.0-1.0-373.0","0","0","22656","","null","","","null","41","","NaN","","","","","","","","","","","","","",""
"","response","","html-keyboard-response","273","238451","0.0-1.0-374.0-0.0","0","0","22656","","22","","","68","41","","","1","41","training","adjacent","CB","3","2","O.jpg","N.jpg","1","0","0","",""
"","feedback","","html-keyboard-response","274","239457","0.0-1.0-375.0-0.0","0","0","22656","","null","","","null","41","","","","","","","","","","","","","","","",""
"","time_out","","html-keyboard-response","275","241465","0.0-1.0-377.0-0.0","0","0","22656","","null","","","null","41","","","","","","","","","","","","","","","",""
"","ITI","","html-keyboard-response","276","242476","0.0-1.0-378.0","0","0","22656","","null","","","null","41","","","","","","","","","","","","","","","NaN",""
"","S1","","html-keyboard-response","277","242737","0.0-1.0-380.0","0","0","22656","","null","","","null","42","","","","","","","","","","","","","","","",""
"","ISI","","html-keyboard-response","278","243747","0.0-1.0-381.0","0","0","22656","","null","","","null","42","NaN","","","","","","","","","","","","","","",""
"","S2","","html-keyboard-response","279","243846","0.0-1.0-382.0","0","0","22656","","95","","","75","42","","k","1","42","training","adjacent","DC","4","3","L.jpg","O.jpg","0","0","1","",""
"","feedback","","html-keyboard-response","280","244859","0.0-1.0-384.0-0.0","0","0","22656","","null","","","null","42","","","","","","","","","","","","","","","",""
"","ITI","","html-keyboard-response","281","245866","0.0-1.0-387.0","0","0","22656","","null","","","null","42","","","","","","","","","","","","","","","NaN",""
"","S1","","html-keyboard-response","282","246121","0.0-1.0-389.0","0","0","22656","","null","","","null","43","","","","","","","","","","","","","","","",""
"","ISI","","html-keyboard-response","283","247130","0.0-1.0-390.0","0","0","22656","","null","","","null","43","NaN","","","","","","","","","","","","","","",""
"","S2","","html-keyboard-response","284","247393","0.0-1.0-391.0","0","0","22656","","null","","","null","43","","NaN","","","","","","","","","","","","","",""
"","response","","html-keyboard-response","285","247437","0.0-1.0-392.0-0.0","0","0","22656","","42","","","75","43","","","1","43","training","adjacent","AB","1","2","Q.jpg","N.jpg","0","1","0","",""
"","feedback","","html-keyboard-response","286","248449","0.0-1.0-393.0-0.0","0","0","22656","","null","","","null","43","","","","","","","","","","","","","","","",""
"","time_out","","html-keyboard-response","287","250457","0.0-1.0-395.0-0.0","0","0","22656","","null","","","null","43","","","","","","","","","","","","","","","",""
"","ITI","","html-keyboard-response","288","251468","0.0-1.0-396.0","0","0","22656","","null","","","null","43","","","","","","","","","","","","","","","NaN",""
"","S1","","html-keyboard-response","289","251729","0.0-1.0-398.0","0","0","22656","","null","","","null","44","","","","","","","","","","","","","","","",""
"","ISI","","html-keyboard-response","290","252739","0.0-1.0-399.0","0","0","22656","","null","","","null","44","NaN","","","","","","","","","","","","","","",""
"","S2","","html-keyboard-response","291","253004","0.0-1.0-400.0","0","0","22656","","null","","","null","44","","NaN","","","","","","","","","","","","","",""
"","response","","html-keyboard-response","292","253127","0.0-1.0-401.0-0.0","0","0","22656","","121","","","68","44","","","1","44","training","adjacent","DE","4","5","L.jpg","M.jpg","1","1","1","",""
"","feedback","","html-keyboard-response","293","254138","0.0-1.0-402.0-0.0","0","0","22656","","null","","","null","44","","","","","","","","","","","","","","","",""
"","ITI","","html-keyboard-response","294","255146","0.0-1.0-405.0","0","0","22656","","null","","","null","44","","","","","","","","","","","","","","","NaN",""
"","S1","","html-keyboard-response","295","255403","0.0-1.0-407.0","0","0","22656","","null","","","null","45","","","","","","","","","","","","","","","",""
"","ISI","","html-keyboard-response","296","256412","0.0-1.0-408.0","0","0","22656","","952","","","68","45","d","","","","","","","","","","","","","","",""
"","S2","","html-keyboard-response","297","256673","0.0-1.0-409.0","0","0","22656","","null","","","null","45","","NaN","","","","","","","","","","","","","",""
"","response","","html-keyboard-response","298","257176","0.0-1.0-410.0-0.0","0","0","22656","","500","","","68","45","","","1","45","training","adjacent","DC","4","3","L.jpg","O.jpg","1","0","0","",""
"","feedback","","html-keyboard-response","299","258188","0.0-1.0-411.0-0.0","0","0","22656","","null","","","null","45","","","","","","","","","","","","","","","",""
"","time_out","","html-keyboard-response","300","260193","0.0-1.0-413.0-0.0","0","0","22656","","null","","","null","45","","","","","","","","","","","","","","","",""
"","ITI","","html-keyboard-response","301","261203","0.0-1.0-414.0","0","0","22656","","null","","","null","45","","","","","","","","","","","","","","","NaN",""
"","S1","","html-keyboard-response","302","261467","0.0-1.0-416.0","0","0","22656","","null","","","null","46","","","","","","","","","","","","","","","",""
"","ISI","","html-keyboard-response","303","262474","0.0-1.0-417.0","0","0","22656","","null","","","null","46","NaN","","","","","","","","","","","","","","",""
"","S2","","html-keyboard-response","304","262738","0.0-1.0-418.0","0","0","22656","","null","","","null","46","","NaN","","","","","","","","","","","","","",""
"","response","","html-keyboard-response","305","262796","0.0-1.0-419.0-0.0","0","0","22656","","55","","","75","46","","","1","46","training","adjacent","FG","6","7","P.jpg","R.jpg","0","1","0","",""
"","feedback","","html-keyboard-response","306","263809","0.0-1.0-420.0-0.0","0","0","22656","","null","","","null","46","","","","","","","","","","","","","","","",""
"","time_out","","html-keyboard-response","307","265816","0.0-1.0-422.0-0.0","0","0","22656","","null","","","null","46","","","","","","","","","","","","","","","",""
"","ITI","","html-keyboard-response","308","266828","0.0-1.0-423.0","0","0","22656","","null","","","null","46","","","","","","","","","","","","","","","NaN",""
"","S1","","html-keyboard-response","309","267089","0.0-1.0-425.0","0","0","22656","","null","","","null","47","","","","","","","","","","","","","","","",""
"","ISI","","html-keyboard-response","310","268099","0.0-1.0-426.0","0","0","22656","","null","","","null","47","NaN","","","","","","","","","","","","","","",""
"","S2","","html-keyboard-response","311","268364","0.0-1.0-427.0","0","0","22656","","null","","","null","47","","NaN","","","","","","","","","","","","","",""
"","response","","html-keyboard-response","312","268411","0.0-1.0-428.0-0.0","0","0","22656","","45","","","68","47","","","1","47","training","adjacent","EF","5","6","M.jpg","P.jpg","1","1","1","",""
"","feedback","","html-keyboard-response","313","269416","0.0-1.0-429.0-0.0","0","0","22656","","null","","","null","47","","","","","","","","","","","","","","","",""
"","ITI","","html-keyboard-response","314","270426","0.0-1.0-432.0","0","0","22656","","null","","","null","47","","","","","","","","","","","","","","","NaN",""
"","block_over","","html-keyboard-response","315","279788","0.0-1.0-433.0-0.0","0","0","22656","","9358","","","32","47","","","","","","","","","","","","","","","",""
"","S1","","html-keyboard-response","316","280050","0.0-1.0-434.0","0","0","22656","","null","","","null","48","","","","","","","","","","","","","","","",""
"","ISI","","html-keyboard-response","317","281059","0.0-1.0-435.0","0","0","22656","","null","","","null","48","NaN","","","","","","","","","","","","","","",""
"","S2","","html-keyboard-response","318","281065","0.0-1.0-436.0","0","0","22656","","3","","","75","48","","k","2","48","training","adjacent","FG","6","7","P.jpg","R.jpg","0","1","0","",""
"","feedback","","html-keyboard-response","319","282074","0.0-1.0-438.0-0.0","0","0","22656","","null","","","null","48","","","","","","","","","","","","","","","",""
"","time_out","","html-keyboard-response","320","284083","0.0-1.0-440.0-0.0","0","0","22656","","null","","","null","48","","","","","","","","","","","","","","","",""
"","ITI","","html-keyboard-response","321","285090","0.0-1.0-441.0","0","0","22656","","null","","","null","48","","","","","","","","","","","","","","","NaN",""
"","S1","","html-keyboard-response","322","285355","0.0-1.0-443.0","0","0","22656","","null","","","null","49","","","","","","","","","","","","","","","",""
"","ISI","","html-keyboard-response","323","286361","0.0-1.0-444.0","0","0","22656","","null","","","null","49","NaN","","","","","","","","","","","","","","",""
"","S2","","html-keyboard-response","324","286616","0.0-1.0-445.0","0","0","22656","","null","","","null","49","","NaN","","","","","","","","","","","","","",""
"","response","","html-keyboard-response","325","286656","0.0-1.0-446.0-0.0","0","0","22656","","37","","","68","49","","","2","49","training","adjacent","ED","5","4","M.jpg","L.jpg","1","0","0","",""
"","feedback","","html-keyboard-response","326","287667","0.0-1.0-447.0-0.0","0","0","22656","","null","","","null","49","","","","","","","","","","","","","","","",""
"","time_out","","html-keyboard-response","327","289673","0.0-1.0-449.0-0.0","0","0","22656","","null","","","null","49","","","","","","","","","","","","","","","",""
"","ITI","","html-keyboard-response","328","290684","0.0-1.0-450.0","0","0","22656","","null","","","null","49","","","","","","","","","","","","","","","NaN",""
"","S1","","html-keyboard-response","329","290947","0.0-1.0-452.0","0","0","22656","","null","","","null","50","","","","","","","","","","","","","","","",""
"","ISI","","html-keyboard-response","330","291955","0.0-1.0-453.0","0","0","22656","","null","","","null","50","NaN","","","","","","","","","","","","","","",""
"","S2","","html-keyboard-response","331","292217","0.0-1.0-454.0","0","0","22656","","null","","","null","50","","NaN","","","","","","","","","","","","","",""
"","response","","html-keyboard-response","332","292288","0.0-1.0-455.0-0.0","0","0","22656","","68","","","75","50","","","2","50","training","adjacent","DE","4","5","L.jpg","M.jpg","0","1","0","",""
"","feedback","","html-keyboard-response","333","293297","0.0-1.0-456.0-0.0","0","0","22656","","null","","","null","50","","","","","","","","","","","","","","","",""
"","time_out","","html-keyboard-response","334","295305","0.0-1.0-458.0-0.0","0","0","22656","","null","","","null","50","","","","","","","","","","","","","","","",""
"","ITI","","html-keyboard-response","335","296314","0.0-1.0-459.0","0","0","22656","","null","","","null","50","","","","","","","","","","","","","","","NaN",""
"","S1","","html-keyboard-response","336","296577","0.0-1.0-461.0","0","0","22656","","null","","","null","51","","","","","","","","","","","","","","","",""
"","ISI","","html-keyboard-response","337","297585","0.0-1.0-462.0","0","0","22656","","null","","","null","51","NaN","","","","","","","","","","","","","","",""
"","S2","","html-keyboard-response","338","297849","0.0-1.0-463.0","0","0","22656","","null","","","null","51","","NaN","","","","","","","","","","","","","",""
"","response","","html-keyboard-response","339","298043","0.0-1.0-464.0-0.0","0","0","22656","","191","","","68","51","","","2","51","training","adjacent","CD","3","4","O.jpg","L.jpg","1","1","1","",""
"","feedback","","html-keyboard-response","340","299049","0.0-1.0-465.0-0.0","0","0","22656","","null","","","null","51","","","","","","","","","","","","","","","",""
"","ITI","","html-keyboard-response","341","300059","0.0-1.0-468.0","0","0","22656","","null","","","null","51","","","","","","","","","","","","","","","NaN",""
"","S1","","html-keyboard-response","342","300321","0.0-1.0-470.0","0","0","22656","","null","","","null","52","","","","","","","","","","","","","","","",""
"","ISI","","html-keyboard-response","343","301329","0.0-1.0-471.0","0","0","22656","","null","","","null","52","NaN","","","","","","","","","","","","","","",""
"","S2","","html-keyboard-response","344","301584","0.0-1.0-472.0","0","0","22656","","null","","","null","52","","NaN","","","","","","","","","","","","","",""
"","response","","html-keyboard-response","345","301673","0.0-1.0-473.0-0.0","0","0","22656","","86","","","68","52","","","2","52","training","adjacent","CB","3","2","O.jpg","N.jpg","1","0","0","",""
"","feedback","","html-keyboard-response","346","302681","0.0-1.0-474.0-0.0","0","0","22656","","null","","","null","52","","","","","","","","","","","","","","","",""
"","time_out","","html-keyboard-response","347","304691","0.0-1.0-476.0-0.0","0","0","22656","","null","","","null","52","","","","","","","","","","","","","","","",""
"","ITI","","html-keyboard-response","348","305697","0.0-1.0-477.0","0","0","22656","","null","","","null","52","","","","","","","","","","","","","","","NaN",""
"","S1","","html-keyboard-response","349","305962","0.0-1.0-479.0","0","0","22656","","null","","","null","53","","","","","","","","","","","","","","","",""
"","ISI","","html-keyboard-response","350","306969","0.0-1.0-480.0","0","0","22656","","null","","","null","53","NaN","","","","","","","","","","","","","","",""
"","S2","","html-keyboard-response","351","307223","0.0-1.0-481.0","0","0","22656","","null","","","null","53","","NaN","","","","","","","","","","","","","",""
"","response","","html-keyboard-response","352","307318","0.0-1.0-482.0-0.0","0","0","22656","","92","","","75","53","","","2","53","training","adjacent","DC","4","3","L.jpg","O.jpg","0","0","1","",""
"","feedback","","html-keyboard-response","353","308331","0.0-1.0-483.0-0.0","0","0","22656","","null","","","null","53","","","","","","","","","","","","","","","",""
"","ITI","","html-keyboard-response","354","309337","0.0-1.0-486.0","0","0","22656","","null","","","null","53","","","","","","","","","","","","","","","NaN",""
"","S1","","html-keyboard-response","355","309594","0.0-1.0-488.0","0","0","22656","","null","","","null","54","","","","","","","","","","","","","","","",""
"","ISI","","html-keyboard-response","356","310602","0.0-1.0-489.0","0","0","22656","","null","","","null","54","NaN","","","","","","","","","","","","","","",""
"","S2","","html-keyboard-response","357","310866","0.0-1.0-490.0","0","0","22656","","null","","","null","54","","NaN","","","","","","","","","","","","","",""
"","response","","html-keyboard-response","358","311193","0.0-1.0-491.0-0.0","0","0","22656","","324","","","68","54","","","2","54","training","adjacent","DC","4","3","L.jpg","O.jpg","1","0","0","",""
"","feedback","","html-keyboard-response","359","312202","0.0-1.0-492.0-0.0","0","0","22656","","null","","","null","54","","","","","","","","","","","","","","","",""
"","time_out","","html-keyboard-response","360","314211","0.0-1.0-494.0-0.0","0","0","22656","","null","","","null","54","","","","","","","","","","","","","","","",""
"","ITI","","html-keyboard-response","361","315217","0.0-1.0-495.0","0","0","22656","","null","","","null","54","","","","","","","","","","","","","","","NaN",""
"","S1","","html-keyboard-response","362","315473","0.0-1.0-497.0","0","0","22656","","null","","","null","55","","","","","","","","","","","","","","","",""
"","ISI","","html-keyboard-response","363","316483","0.0-1.0-498.0","0","0","22656","","null","","","null","55","NaN","","","","","","","","","","","","","","",""
"","S2","","html-keyboard-response","364","316746","0.0-1.0-499.0","0","0","22656","","null","","","null","55","","NaN","","","","","","","","","","","","","",""
"","response","","html-keyboard-response","365","316860","0.0-1.0-500.0-0.0","0","0","22656","","112","","","75","55","","","2","55","training","adjacent","CB","3","2","O.jpg","N.jpg","0","0","1","",""
"","feedback","","html-keyboard-response","366","317874","0.0-1.0-501.0-0.0","0","0","22656","","null","","","null","55","","","","","","","","","","","","","","","",""
"","ITI","","html-keyboard-response","367","318880","0.0-1.0-504.0","0","0","22656","","null","","","null","55","","","","","","","","","","","","","","","NaN",""
"","S1","","html-keyboard-response","368","319139","0.0-1.0-506.0","0","0","22656","","null","","","null","56","","","","","","","","","","","","","","","",""
"","ISI","","html-keyboard-response","369","320146","0.0-1.0-507.0","0","0","22656","","null","","","null","56","NaN","","","","","","","","","","","","","","",""
"","S2","","html-keyboard-response","370","320410","0.0-1.0-508.0","0","0","22656","","null","","","null","56","","NaN","","","","","","","","","","","","","",""
"","response","","html-keyboard-response","371","320579","0.0-1.0-509.0-0.0","0","0","22656","","166","","","75","56","","","2","56","training","adjacent","EF","5","6","M.jpg","P.jpg","0","1","0","",""
"","feedback","","html-keyboard-response","372","321595","0.0-1.0-510.0-0.0","0","0","22656","","null","","","null","56","","","","","","","","","","","","","","","",""
"","time_out","","html-keyboard-response","373","323603","0.0-1.0-512.0-0.0","0","0","22656","","null","","","null","56","","","","","","","","","","","","","","","",""
"","ITI","","html-keyboard-response","374","324609","0.0-1.0-513.0","0","0","22656","","null","","","null","56","","","","","","","","","","","","","","","NaN",""
"","S1","","html-keyboard-response","375","324874","0.0-1.0-515.0","0","0","22656","","null","","","null","57","","","","","","","","","","","","","","","",""
"","ISI","","html-keyboard-response","376","325881","0.0-1.0-516.0","0","0","22656","","null","","","null","57","NaN","","","","","","","","","","","","","","",""
"","S2","","html-keyboard-response","377","326146","0.0-1.0-517.0","0","0","22656","","null","","","null","57","","NaN","","","","","","","","","","","","","",""
"","response","","html-keyboard-response","378","326406","0.0-1.0-518.0-0.0","0","0","22656","","257","","","68","57","","","2","57","training","adjacent","DE","4","5","L.jpg","M.jpg","1","1","1","",""
"","feedback","","html-keyboard-response","379","327417","0.0-1.0-519.0-0.0","0","0","22656","","null","","","null","57","","","","","","","","","","","","","","","",""
"","ITI","","html-keyboard-response","380","328424","0.0-1.0-522.0","0","0","22656","","null","","","null","57","","","","","","","","","","","","","","","NaN",""
"","S1","","html-keyboard-response","381","328683","0.0-1.0-524.0","0","0","22656","","null","","","null","58","","","","","","","","","","","","","","","",""
"","ISI","","html-keyboard-response","382","329686","0.0-1.0-525.0","0","0","22656","","null","","","null","58","NaN","","","","","","","","","","","","","","",""
"","S2","","html-keyboard-response","383","329944","0.0-1.0-526.0","0","0","22656","","null","","","null","58","","NaN","","","","","","","","","","","","","",""
"","response","","html-keyboard-response","384","330125","0.0-1.0-527.0-0.0","0","0","22656","","179","","","75","58","","","2","58","training","adjacent","CD","3","4","O.jpg","L.jpg","0","1","0","",""
"","feedback","","html-keyboard-response","385","331138","0.0-1.0-528.0-0.0","0","0","22656","","null","","","null","58","","","","","","","","","","","","","","","",""
"","time_out","","html-keyboard-response","386","333146","0.0-1.0-530.0-0.0","0","0","22656","","null","","","null","58","","","","","","","","","","","","","","","",""
"","ITI","","html-keyboard-response","387","334153","0.0-1.0-531.0","0","0","22656","","null","","","null","58","","","","","","","","","","","","","","","NaN",""
"","S1","","html-keyboard-response","388","334418","0.0-1.0-533.0","0","0","22656","","null","","","null","59","","","","","","","","","","","","","","","",""
"","ISI","","html-keyboard-response","389","335424","0.0-1.0-534.0","0","0","22656","","null","","","null","59","NaN","","","","","","","","","","","","","","",""
"","S2","","html-keyboard-response","390","335680","0.0-1.0-535.0","0","0","22656","","null","","","null","59","","NaN","","","","","","","","","","","","","",""
"","response","","html-keyboard-response","391","335723","0.0-1.0-536.0-0.0","0","0","22656","","41","","","68","59","","","2","59","training","adjacent","FE","6","5","P.jpg","M.jpg","1","0","0","",""
"","feedback","","html-keyboard-response","392","336736","0.0-1.0-537.0-0.0","0","0","22656","","null","","","null","59","","","","","","","","","","","","","","","",""
"","time_out","","html-keyboard-response","393","338745","0.0-1.0-539.0-0.0","0","0","22656","","null","","","null","59","","","","","","","","","","","","","","","",""
"","ITI","","html-keyboard-response","394","339755","0.0-1.0-540.0","0","0","22656","","null","","","null","59","","","","","","","","","","","","","","","NaN",""
"","S1","","html-keyboard-response","395","340016","0.0-1.0-542.0","0","0","22656","","null","","","null","60","","","","","","","","","","","","","","","",""
"","ISI","","html-keyboard-response","396","341026","0.0-1.0-543.0","0","0","22656","","null","","","null","60","NaN","","","","","","","","","","","","","","",""
"","S2","","html-keyboard-response","397","341291","0.0-1.0-544.0","0","0","22656","","null","","","null","60","","NaN","","","","","","","","","","","","","",""
"","response","","html-keyboard-response","398","341353","0.0-1.0-545.0-0.0","0","0","22656","","60","","","75","60","","","2","60","training","adjacent","DE","4","5","L.jpg","M.jpg","0","1","0","",""
"","feedback","","html-keyboard-response","399","342361","0.0-1.0-546.0-0.0","0","0","22656","","null","","","null","60","","","","","","","","","","","","","","","",""
"","time_out","","html-keyboard-response","400","344370","0.0-1.0-548.0-0.0","0","0","22656","","null","","","null","60","","","","","","","","","","","","","","","",""
"","ITI","","html-keyboard-response","401","345378","0.0-1.0-549.0","0","0","22656","","null","","","null","60","","","","","","","","","","","","","","","NaN",""
"","S1","","html-keyboard-response","402","345640","0.0-1.0-551.0","0","0","22656","","null","","","null","61","","","","","","","","","","","","","","","",""
"","ISI","","html-keyboard-response","403","346649","0.0-1.0-552.0","0","0","22656","","null","","","null","61","NaN","","","","","","","","","","","","","","",""
"","S2","","html-keyboard-response","404","346912","0.0-1.0-553.0","0","0","22656","","null","","","null","61","","NaN","","","","","","","","","","","","","",""
"","response","","html-keyboard-response","405","347008","0.0-1.0-554.0-0.0","0","0","22656","","94","","","68","61","","","2","61","training","adjacent","BC","2","3","N.jpg","O.jpg","1","1","1","",""
"","feedback","","html-keyboard-response","406","348018","0.0-1.0-555.0-0.0","0","0","22656","","null","","","null","61","","","","","","","","","","","","","","","",""
"","ITI","","html-keyboard-response","407","349025","0.0-1.0-558.0","0","0","22656","","null","","","null","61","","","","","","","","","","","","","","","NaN",""
"","S1","","html-keyboard-response","408","349289","0.0-1.0-560.0","0","0","22656","","null","","","null","62","","","","","","","","","","","","","","","",""
"","ISI","","html-keyboard-response","409","350296","0.0-1.0-561.0","0","0","22656","","null","","","null","62","NaN","","","","","","","","","","","","","","",""
"","S2","","html-keyboard-response","410","350552","0.0-1.0-562.0","0","0","22656","","null","","","null","62","","NaN","","","","","","","","","","","","","",""
"","response","","html-keyboard-response","411","350675","0.0-1.0-563.0-0.0","0","0","22656","","120","","","68","62","","","2","62","training","adjacent","EF","5","6","M.jpg","P.jpg","1","1","1","",""
"","feedback","","html-keyboard-response","412","351690","0.0-1.0-564.0-0.0","0","0","22656","","null","","","null","62","","","","","","","","","","","","","","","",""
"","ITI","","html-keyboard-response","413","352697","0.0-1.0-567.0","0","0","22656","","null","","","null","62","","","","","","","","","","","","","","","NaN",""
"","S1","","html-keyboard-response","414","352961","0.0-1.0-569.0","0","0","22656","","null","","","null","63","","","","","","","","","","","","","","","",""
"","ISI","","html-keyboard-response","415","353968","0.0-1.0-570.0","0","0","22656","","null","","","null","63","NaN","","","","","","","","","","","","","","",""
"","S2","","html-keyboard-response","416","354227","0.0-1.0-571.0","0","0","22656","","null","","","null","63","","NaN","","","","","","","","","","","","","",""
"","response","","html-keyboard-response","417","354289","0.0-1.0-572.0-0.0","0","0","22656","","61","","","68","63","","","2","63","training","adjacent","EF","5","6","M.jpg","P.jpg","1","1","1","",""
"","feedback","","html-keyboard-response","418","355298","0.0-1.0-573.0-0.0","0","0","22656","","null","","","null","63","","","","","","","","","","","","","","","",""
"","ITI","","html-keyboard-response","419","356305","0.0-1.0-576.0","0","0","22656","","null","","","null","63","","","","","","","","","","","","","","","NaN",""
"","S1","","html-keyboard-response","420","356569","0.0-1.0-578.0","0","0","22656","","null","","","null","64","","","","","","","","","","","","","","","",""
"","ISI","","html-keyboard-response","421","357576","0.0-1.0-579.0","0","0","22656","","null","","","null","64","NaN","","","","","","","","","","","","","","",""
"","S2","","html-keyboard-response","422","357834","0.0-1.0-580.0","0","0","22656","","null","","","null","64","","NaN","","","","","","","","","","","","","",""
"","response","","html-keyboard-response","423","357980","0.0-1.0-581.0-0.0","0","0","22656","","143","","","68","64","","","2","64","training","adjacent","GF","7","6","R.jpg","P.jpg","1","0","0","",""
"","feedback","","html-keyboard-response","424","358992","0.0-1.0-582.0-0.0","0","0","22656","","null","","","null","64","","","","","","","","","","","","","","","",""
"","time_out","","html-keyboard-response","425","361001","0.0-1.0-584.0-0.0","0","0","22656","","null","","","null","64","","","","","","","","","","","","","","","",""
"","ITI","","html-keyboard-response","426","362010","0.0-1.0-585.0","0","0","22656","","null","","","null","64","","","","","","","","","","","","","","","NaN",""
"","S1","","html-keyboard-response","427","362272","0.0-1.0-587.0","0","0","22656","","null","","","null","65","","","","","","","","","","","","","","","",""
"","ISI","","html-keyboard-response","428","363282","0.0-1.0-588.0","0","0","22656","","null","","","null","65","NaN","","","","","","","","","","","","","","",""
"","S2","","html-keyboard-response","429","363544","0.0-1.0-589.0","0","0","22656","","null","","","null","65","","NaN","","","","","","","","","","","","","",""
"","response","","html-keyboard-response","430","363581","0.0-1.0-590.0-0.0","0","0","22656","","35","","","75","65","","","2","65","training","adjacent","FG","6","7","P.jpg","R.jpg","0","1","0","",""
"","feedback","","html-keyboard-response","431","364595","0.0-1.0-591.0-0.0","0","0","22656","","null","","","null","65","","","","","","","","","","","","","","","",""
"","time_out","","html-keyboard-response","432","366608","0.0-1.0-593.0-0.0","0","0","22656","","null","","","null","65","","","","","","","","","","","","","","","",""
"","ITI","","html-keyboard-response","433","367618","0.0-1.0-594.0","0","0","22656","","null","","","null","65","","","","","","","","","","","","","","","NaN",""
"","S1","","html-keyboard-response","434","367880","0.0-1.0-596.0","0","0","22656","","null","","","null","66","","","","","","","","","","","","","","","",""
"","ISI","","html-keyboard-response","435","368890","0.0-1.0-597.0","0","0","22656","","null","","","null","66","NaN","","","","","","","","","","","","","","",""
"","S2","","html-keyboard-response","436","369154","0.0-1.0-598.0","0","0","22656","","null","","","null","66","","NaN","","","","","","","","","","","","","",""
"","response","","html-keyboard-response","437","369176","0.0-1.0-599.0-0.0","0","0","22656","","19","","","68","66","","","2","66","training","adjacent","BA","2","1","N.jpg","Q.jpg","1","0","0","",""
"","feedback","","html-keyboard-response","438","370184","0.0-1.0-600.0-0.0","0","0","22656","","null","","","null","66","","","","","","","","","","","","","","","",""
"","time_out","","html-keyboard-response","439","372193","0.0-1.0-602.0-0.0","0","0","22656","","null","","","null","66","","","","","","","","","","","","","","","",""
"","ITI","","html-keyboard-response","440","373200","0.0-1.0-603.0","0","0","22656","","null","","","null","66","","","","","","","","","","","","","","","NaN",""
"","S1","","html-keyboard-response","441","373457","0.0-1.0-605.0","0","0","22656","","null","","","null","67","","","","","","","","","","","","","","","",""
"","ISI","","html-keyboard-response","442","374466","0.0-1.0-606.0","0","0","22656","","null","","","null","67","NaN","","","","","","","","","","","","","","",""
"","S2","","html-keyboard-response","443","374725","0.0-1.0-607.0","0","0","22656","","257","","","75","67","","k","2","67","training","adjacent","FE","6","5","P.jpg","M.jpg","0","0","1","",""
"","feedback","","html-keyboard-response","444","375737","0.0-1.0-609.0-0.0","0","0","22656","","null","","","null","67","","","","","","","","","","","","","","","",""
"","ITI","","html-keyboard-response","445","376744","0.0-1.0-612.0","0","0","22656","","null","","","null","67","","","","","","","","","","","","","","","NaN",""
"","S1","","html-keyboard-response","446","377002","0.0-1.0-614.0","0","0","22656","","null","","","null","68","","","","","","","","","","","","","","","",""
"","ISI","","html-keyboard-response","447","378009","0.0-1.0-615.0","0","0","22656","","null","","","null","68","NaN","","","","","","","","","","","","","","",""
"","S2","","html-keyboard-response","448","378243","0.0-1.0-616.0","0","0","22656","","231","","","75","68","","k","2","68","training","adjacent","ED","5","4","M.jpg","L.jpg","0","0","1","",""
"","feedback","","html-keyboard-response","449","379250","0.0-1.0-618.0-0.0","0","0","22656","","null","","","null","68","","","","","","","","","","","","","","","",""
"","ITI","","html-keyboard-response","450","380255","0.0-1.0-621.0","0","0","22656","","null","","","null","68","","","","","","","","","","","","","","","NaN",""
"","S1","","html-keyboard-response","451","380511","0.0-1.0-623.0","0","0","22656","","null","","","null","69","","","","","","","","","","","","","","","",""
"","ISI","","html-keyboard-response","452","381520","0.0-1.0-624.0","0","0","22656","","null","","","null","69","NaN","","","","","","","","","","","","","","",""
"","S2","","html-keyboard-response","453","381717","0.0-1.0-625.0","0","0","22656","","194","","","75","69","","k","2","69","training","adjacent","FG","6","7","P.jpg","R.jpg","0","1","0","",""
"","feedback","","html-keyboard-response","454","382729","0.0-1.0-627.0-0.0","0","0","22656","","null","","","null","69","","","","","","","","","","","","","","","",""
"","time_out","","html-keyboard-response","455","384736","0.0-1.0-629.0-0.0","0","0","22656","","null","","","null","69","","","","","","","","","","","","","","","",""
"","ITI","","html-keyboard-response","456","385744","0.0-1.0-630.0","0","0","22656","","null","","","null","69","","","","","","","","","","","","","","","NaN",""
"","S1","","html-keyboard-response","457","386001","0.0-1.0-632.0","0","0","22656","","null","","","null","70","","","","","","","","","","","","","","","",""
"","ISI","","html-keyboard-response","458","387010","0.0-1.0-633.0","0","0","22656","","null","","","null","70","NaN","","","","","","","","","","","","","","",""
"","S2","","html-keyboard-response","459","387273","0.0-1.0-634.0","0","0","22656","","null","","","null","70","","NaN","","","","","","","","","","","","","",""
"","response","","html-keyboard-response","460","387348","0.0-1.0-635.0-0.0","0","0","22656","","72","","","68","70","","","2","70","training","adjacent","GF","7","6","R.jpg","P.jpg","1","0","0","",""
"","feedback","","html-keyboard-response","461","388360","0.0-1.0-636.0-0.0","0","0","22656","","null","","","null","70","","","","","","","","","","","","","","","",""
"","time_out","","html-keyboard-response","462","390367","0.0-1.0-638.0-0.0","0","0","22656","","null","","","null","70","","","","","","","","","","","","","","","",""
"","ITI","","html-keyboard-response","463","391377","0.0-1.0-639.0","0","0","22656","","null","","","null","70","","","","","","","","","","","","","","","NaN",""
"","S1","","html-keyboard-response","464","391639","0.0-1.0-641.0","0","0","22656","","null","","","null","71","","","","","","","","","","","","","","","",""
"","ISI","","html-keyboard-response","465","392647","0.0-1.0-642.0","0","0","22656","","null","","","null","71","NaN","","","","","","","","","","","","","","",""
"","S2","","html-keyboard-response","466","392905","0.0-1.0-643.0","0","0","22656","","null","","","null","71","","NaN","","","","","","","","","","","","","",""
"","response","","html-keyboard-response","467","392943","0.0-1.0-644.0-0.0","0","0","22656","","35","","","75","71","","","2","71","training","adjacent","FE","6","5","P.jpg","M.jpg","0","0","1","",""
"","feedback","","html-keyboard-response","468","393953","0.0-1.0-645.0-0.0","0","0","22656","","null","","","null","71","","","","","","","","","","","","","","","",""
"","ITI","","html-keyboard-response","469","394958","0.0-1.0-648.0","0","0","22656","","null","","","null","71","","","","","","","","","","","","","","","NaN",""
"","S1","","html-keyboard-response","470","395215","0.0-1.0-650.0","0","0","22656","","null","","","null","72","","","","","","","","","","","","","","","",""
"","ISI","","html-keyboard-response","471","396225","0.0-1.0-651.0","0","0","22656","","null","","","null","72","NaN","","","","","","","","","","","","","","",""
"","S2","","html-keyboard-response","472","396490","0.0-1.0-652.0","0","0","22656","","null","","","null","72","","NaN","","","","","","","","","","","","","",""
"","response","","html-keyboard-response","473","396535","0.0-1.0-653.0-0.0","0","0","22656","","42","","","75","72","","","2","72","training","adjacent","DC","4","3","L.jpg","O.jpg","0","0","1","",""
"","feedback","","html-keyboard-response","474","397547","0.0-1.0-654.0-0.0","0","0","22656","","null","","","null","72","","","","","","","","","","","","","","","",""
"","ITI","","html-keyboard-response","475","398562","0.0-1.0-657.0","0","0","22656","","null","","","null","72","","","","","","","","","","","","","","","NaN",""
"","S1","","html-keyboard-response","476","398825","0.0-1.0-659.0","0","0","22656","","null","","","null","73","","","","","","","","","","","","","","","",""
"","ISI","","html-keyboard-response","477","399833","0.0-1.0-660.0","0","0","22656","","null","","","null","73","NaN","","","","","","","","","","","","","","",""
"","S2","","html-keyboard-response","478","400097","0.0-1.0-661.0","0","0","22656","","null","","","null","73","","NaN","","","","","","","","","","","","","",""
"","response","","html-keyboard-response","479","400176","0.0-1.0-662.0-0.0","0","0","22656","","76","","","75","73","","","2","73","training","adjacent","AB","1","2","Q.jpg","N.jpg","0","1","0","",""
"","feedback","","html-keyboard-response","480","401186","0.0-1.0-663.0-0.0","0","0","22656","","null","","","null","73","","","","","","","","","","","","","","","",""
"","time_out","","html-keyboard-response","481","403191","0.0-1.0-665.0-0.0","0","0","22656","","null","","","null","73","","","","","","","","","","","","","","","",""
"","ITI","","html-keyboard-response","482","404201","0.0-1.0-666.0","0","0","22656","","null","","","null","73","","","","","","","","","","","","","","","NaN",""
"","S1","","html-keyboard-response","483","404466","0.0-1.0-668.0","0","0","22656","","null","","","null","74","","","","","","","","","","","","","","","",""
"","ISI","","html-keyboard-response","484","405472","0.0-1.0-669.0","0","0","22656","","null","","","null","74","NaN","","","","","","","","","","","","","","",""
"","S2","","html-keyboard-response","485","405737","0.0-1.0-670.0","0","0","22656","","null","","","null","74","","NaN","","","","","","","","","","","","","",""
"","response","","html-keyboard-response","486","405812","0.0-1.0-671.0-0.0","0","0","22656","","72","","","68","74","","","2","74","training","adjacent","ED","5","4","M.jpg","L.jpg","1","0","0","",""
"","feedback","","html-keyboard-response","487","406825","0.0-1.0-672.0-0.0","0","0","22656","","null","","","null","74","","","","","","","","","","","","","","","",""
"","time_out","","html-keyboard-response","488","408833","0.0-1.0-674.0-0.0","0","0","22656","","null","","","null","74","","","","","","","","","","","","","","","",""
"","ITI","","html-keyboard-response","489","409842","0.0-1.0-675.0","0","0","22656","","null","","","null","74","","","","","","","","","","","","","","","NaN",""
"","S1","","html-keyboard-response","490","410104","0.0-1.0-677.0","0","0","22656","","null","","","null","75","","","","","","","","","","","","","","","",""
"","ISI","","html-keyboard-response","491","411111","0.0-1.0-678.0","0","0","22656","","null","","","null","75","NaN","","","","","","","","","","","","","","",""
"","S2","","html-keyboard-response","492","411369","0.0-1.0-679.0","0","0","22656","","null","","","null","75","","NaN","","","","","","","","","","","","","",""
"","response","","html-keyboard-response","493","411376","0.0-1.0-680.0-0.0","0","0","22656","","6","","","75","75","","","2","75","training","adjacent","DC","4","3","L.jpg","O.jpg","0","0","1","",""
"","feedback","","html-keyboard-response","494","412386","0.0-1.0-681.0-0.0","0","0","22656","","null","","","null","75","","","","","","","","","","","","","","","",""
"","ITI","","html-keyboard-response","495","413402","0.0-1.0-684.0","0","0","22656","","null","","","null","75","","","","","","","","","","","","","","","NaN",""
"","S1","","html-keyboard-response","496","413663","0.0-1.0-686.0","0","0","22656","","null","","","null","76","","","","","","","","","","","","","","","",""
"","ISI","","html-keyboard-response","497","414672","0.0-1.0-687.0","0","0","22656","","585","","","75","76","k","","","","","","","","","","","","","","",""
"","S2","","html-keyboard-response","498","414928","0.0-1.0-688.0","0","0","22656","","null","","","null","76","","NaN","","","","","","","","","","","","","",""
"","response","","html-keyboard-response","499","415034","0.0-1.0-689.0-0.0","0","0","22656","","104","","","75","76","","","2","76","training","adjacent","CB","3","2","O.jpg","N.jpg","0","0","1","",""
"","feedback","","html-keyboard-response","500","416048","0.0-1.0-690.0-0.0","0","0","22656","","null","","","null","76","","","","","","","","","","","","","","","",""
"","ITI","","html-keyboard-response","501","417057","0.0-1.0-693.0","0","0","22656","","null","","","null","76","","","","","","","","","","","","","","","NaN",""
"","S1","","html-keyboard-response","502","417320","0.0-1.0-695.0","0","0","22656","","null","","","null","77","","","","","","","","","","","","","","","",""
"","ISI","","html-keyboard-response","503","418327","0.0-1.0-696.0","0","0","22656","","null","","","null","77","NaN","","","","","","","","","","","","","","",""
"","S2","","html-keyboard-response","504","418574","0.0-1.0-697.0","0","0","22656","","244","","","68","77","","d","2","77","training","adjacent","BA","2","1","N.jpg","Q.jpg","1","0","0","",""
"","feedback","","html-keyboard-response","505","419583","0.0-1.0-699.0-0.0","0","0","22656","","null","","","null","77","","","","","","","","","","","","","","","",""
"","time_out","","html-keyboard-response","506","421593","0.0-1.0-701.0-0.0","0","0","22656","","null","","","null","77","","","","","","","","","","","","","","","",""
"","ITI","","html-keyboard-response","507","422601","0.0-1.0-702.0","0","0","22656","","null","","","null","77","","","","","","","","","","","","","","","NaN",""
"","S1","","html-keyboard-response","508","422863","0.0-1.0-704.0","0","0","22656","","null","","","null","78","","","","","","","","","","","","","","","",""
"","ISI","","html-keyboard-response","509","423874","0.0-1.0-705.0","0","0","22656","","null","","","null","78","NaN","","","","","","","","","","","","","","",""
"","S2","","html-keyboard-response","510","424134","0.0-1.0-706.0","0","0","22656","","null","","","null","78","","NaN","","","","","","","","","","","","","",""
"","response","","html-keyboard-response","511","424203","0.0-1.0-707.0-0.0","0","0","22656","","67","","","75","78","","","2","78","training","adjacent","GF","7","6","R.jpg","P.jpg","0","0","1","",""
"","feedback","","html-keyboard-response","512","425215","0.0-1.0-708.0-0.0","0","0","22656","","null","","","null","78","","","","","","","","","","","","","","","",""
"","ITI","","html-keyboard-response","513","426225","0.0-1.0-711.0","0","0","22656","","null","","","null","78","","","","","","","","","","","","","","","NaN",""
"","S1","","html-keyboard-response","514","426489","0.0-1.0-713.0","0","0","22656","","null","","","null","79","","","","","","","","","","","","","","","",""
"","ISI","","html-keyboard-response","515","427496","0.0-1.0-714.0","0","0","22656","","null","","","null","79","NaN","","","","","","","","","","","","","","",""
"","S2","","html-keyboard-response","516","427759","0.0-1.0-715.0","0","0","22656","","null","","","null","79","","NaN","","","","","","","","","","","","","",""
"","response","","html-keyboard-response","517","427859","0.0-1.0-716.0-0.0","0","0","22656","","97","","","75","79","","","2","79","training","adjacent","FE","6","5","P.jpg","M.jpg","0","0","1","",""
"","feedback","","html-keyboard-response","518","428871","0.0-1.0-717.0-0.0","0","0","22656","","null","","","null","79","","","","","","","","","","","","","","","",""
"","ITI","","html-keyboard-response","519","429880","0.0-1.0-720.0","0","0","22656","","null","","","null","79","","","","","","","","","","","","","","","NaN",""
"","S1","","html-keyboard-response","520","430137","0.0-1.0-722.0","0","0","22656","","null","","","null","80","","","","","","","","","","","","","","","",""
"","ISI","","html-keyboard-response","521","431145","0.0-1.0-723.0","0","0","22656","","null","","","null","80","NaN","","","","","","","","","","","","","","",""
"","S2","","html-keyboard-response","522","431409","0.0-1.0-724.0","0","0","22656","","null","","","null","80","","NaN","","","","","","","","","","","","","",""
"","response","","html-keyboard-response","523","431518","0.0-1.0-725.0-0.0","0","0","22656","","106","","","75","80","","","2","80","training","adjacent","BC","2","3","N.jpg","O.jpg","0","1","0","",""
"","feedback","","html-keyboard-response","524","432529","0.0-1.0-726.0-0.0","0","0","22656","","null","","","null","80","","","","","","","","","","","","","","","",""
"","time_out","","html-keyboard-response","525","434538","0.0-1.0-728.0-0.0","0","0","22656","","null","","","null","80","","","","","","","","","","","","","","","",""
"","ITI","","html-keyboard-response","526","435544","0.0-1.0-729.0","0","0","22656","","null","","","null","80","","","","","","","","","","","","","","","NaN",""
"","S1","","html-keyboard-response","527","435809","0.0-1.0-731.0","0","0","22656","","null","","","null","81","","","","","","","","","","","","","","","",""
"","ISI","","html-keyboard-response","528","436816","0.0-1.0-732.0","0","0","22656","","null","","","null","81","NaN","","","","","","","","","","","","","","",""
"","S2","","html-keyboard-response","529","437080","0.0-1.0-733.0","0","0","22656","","null","","","null","81","","NaN","","","","","","","","","","","","","",""
"","response","","html-keyboard-response","530","437187","0.0-1.0-734.0-0.0","0","0","22656","","105","","","68","81","","","2","81","training","adjacent","ED","5","4","M.jpg","L.jpg","1","0","0","",""
"","feedback","","html-keyboard-response","531","438199","0.0-1.0-735.0-0.0","0","0","22656","","null","","","null","81","","","","","","","","","","","","","","","",""
"","time_out","","html-keyboard-response","532","440209","0.0-1.0-737.0-0.0","0","0","22656","","null","","","null","81","","","","","","","","","","","","","","","",""
"","ITI","","html-keyboard-response","533","441215","0.0-1.0-738.0","0","0","22656","","null","","","null","81","","","","","","","","","","","","","","","NaN",""
"","S1","","html-keyboard-response","534","441472","0.0-1.0-740.0","0","0","22656","","null","","","null","82","","","","","","","","","","","","","","","",""
"","ISI","","html-keyboard-response","535","442478","0.0-1.0-741.0","0","0","22656","","null","","","null","82","NaN","","","","","","","","","","","","","","",""
"","S2","","html-keyboard-response","536","442737","0.0-1.0-742.0","0","0","22656","","null","","","null","82","","NaN","","","","","","","","","","","","","",""
"","response","","html-keyboard-response","537","442900","0.0-1.0-743.0-0.0","0","0","22656","","160","","","75","82","","","2","82","training","adjacent","GF","7","6","R.jpg","P.jpg","0","0","1","",""
"","feedback","","html-keyboard-response","538","443913","0.0-1.0-744.0-0.0","0","0","22656","","null","","","null","82","","","","","","","","","","","","","","","",""
"","ITI","","html-keyboard-response","539","444919","0.0-1.0-747.0","0","0","22656","","null","","","null","82","","","","","","","","","","","","","","","NaN",""
"","S1","","html-keyboard-response","540","445176","0.0-1.0-749.0","0","0","22656","","null","","","null","83","","","","","","","","","","","","","","","",""
"","ISI","","html-keyboard-response","541","446183","0.0-1.0-750.0","0","0","22656","","null","","","null","83","NaN","","","","","","","","","","","","","","",""
"","S2","","html-keyboard-response","542","446441","0.0-1.0-751.0","0","0","22656","","null","","","null","83","","NaN","","","","","","","","","","","","","",""
"","response","","html-keyboard-response","543","446704","0.0-1.0-752.0-0.0","0","0","22656","","260","","","75","83","","","2","83","training","adjacent","CB","3","2","O.jpg","N.jpg","0","0","1","",""
"","feedback","","html-keyboard-response","544","447713","0.0-1.0-753.0-0.0","0","0","22656","","null","","","null","83","","","","","","","","","","","","","","","",""
"","ITI","","html-keyboard-response","545","448719","0.0-1.0-756.0","0","0","22656","","null","","","null","83","","","","","","","","","","","","","","","NaN",""
"","S1","","html-keyboard-response","546","448973","0.0-1.0-758.0","0","0","22656","","null","","","null","84","","","","","","","","","","","","","","","",""
"","ISI","","html-keyboard-response","547","449984","0.0-1.0-759.0","0","0","22656","","null","","","null","84","NaN","","","","","","","","","","","","","","",""
"","S2","","html-keyboard-response","548","450249","0.0-1.0-760.0","0","0","22656","","null","","","null","84","","NaN","","","","","","","","","","","","","",""
"","response","","html-keyboard-response","549","450370","0.0-1.0-761.0-0.0","0","0","22656","","119","","","75","84","","","2","84","training","adjacent","CD","3","4","O.jpg","L.jpg","0","1","0","",""
"","feedback","","html-keyboard-response","550","451383","0.0-1.0-762.0-0.0","0","0","22656","","null","","","null","84","","","","","","","","","","","","","","","",""
"","time_out","","html-keyboard-response","551","453390","0.0-1.0-764.0-0.0","0","0","22656","","null","","","null","84","","","","","","","","","","","","","","","",""
"","ITI","","html-keyboard-response","552","454398","0.0-1.0-765.0","0","0","22656","","null","","","null","84","","","","","","","","","","","","","","","NaN",""
"","S1","","html-keyboard-response","553","454656","0.0-1.0-767.0","0","0","22656","","null","","","null","85","","","","","","","","","","","","","","","",""
"","ISI","","html-keyboard-response","554","455663","0.0-1.0-768.0","0","0","22656","","null","","","null","85","NaN","","","","","","","","","","","","","","",""
"","S2","","html-keyboard-response","555","455919","0.0-1.0-769.0","0","0","22656","","null","","","null","85","","NaN","","","","","","","","","","","","","",""
"","response","","html-keyboard-response","556","455974","0.0-1.0-770.0-0.0","0","0","22656","","54","","","68","85","","","2","85","training","adjacent","FG","6","7","P.jpg","R.jpg","1","1","1","",""
"","feedback","","html-keyboard-response","557","456984","0.0-1.0-771.0-0.0","0","0","22656","","null","","","null","85","","","","","","","","","","","","","","","",""
"","ITI","","html-keyboard-response","558","457991","0.0-1.0-774.0","0","0","22656","","null","","","null","85","","","","","","","","","","","","","","","NaN",""
"","S1","","html-keyboard-response","559","458245","0.0-1.0-776.0","0","0","22656","","null","","","null","86","","","","","","","","","","","","","","","",""
"","ISI","","html-keyboard-response","560","459254","0.0-1.0-777.0","0","0","22656","","null","","","null","86","NaN","","","","","","","","","","","","","","",""
"","S2","","html-keyboard-response","561","459509","0.0-1.0-778.0","0","0","22656","","null","","","null","86","","NaN","","","","","","","","","","","","","",""
"","response","","html-keyboard-response","562","459574","0.0-1.0-779.0-0.0","0","0","22656","","62","","","75","86","","","2","86","training","adjacent","AB","1","2","Q.jpg","N.jpg","0","1","0","",""
"","feedback","","html-keyboard-response","563","460584","0.0-1.0-780.0-0.0","0","0","22656","","null","","","null","86","","","","","","","","","","","","","","","",""
"","time_out","","html-keyboard-response","564","462593","0.0-1.0-782.0-0.0","0","0","22656","","null","","","null","86","","","","","","","","","","","","","","","",""
"","ITI","","html-keyboard-response","565","463600","0.0-1.0-783.0","0","0","22656","","null","","","null","86","","","","","","","","","","","","","","","NaN",""
"","S1","","html-keyboard-response","566","463864","0.0-1.0-785.0","0","0","22656","","null","","","null","87","","","","","","","","","","","","","","","",""
"","ISI","","html-keyboard-response","567","464872","0.0-1.0-786.0","0","0","22656","","null","","","null","87","NaN","","","","","","","","","","","","","","",""
"","S2","","html-keyboard-response","568","465135","0.0-1.0-787.0","0","0","22656","","null","","","null","87","","NaN","","","","","","","","","","","","","",""
"","response","","html-keyboard-response","569","465219","0.0-1.0-788.0-0.0","0","0","22656","","83","","","68","87","","","2","87","training","adjacent","AB","1","2","Q.jpg","N.jpg","1","1","1","",""
"","feedback","","html-keyboard-response","570","466233","0.0-1.0-789.0-0.0","0","0","22656","","null","","","null","87","","","","","","","","","","","","","","","",""
"","ITI","","html-keyboard-response","571","467240","0.0-1.0-792.0","0","0","22656","","null","","","null","87","","","","","","","","","","","","","","","NaN",""
"","S1","","html-keyboard-response","572","467502","0.0-1.0-794.0","0","0","22656","","null","","","null","88","","","","","","","","","","","","","","","",""
"","ISI","","html-keyboard-response","573","468511","0.0-1.0-795.0","0","0","22656","","null","","","null","88","NaN","","","","","","","","","","","","","","",""
"","S2","","html-keyboard-response","574","468769","0.0-1.0-796.0","0","0","22656","","null","","","null","88","","NaN","","","","","","","","","","","","","",""
"","response","","html-keyboard-response","575","468840","0.0-1.0-797.0-0.0","0","0","22656","","68","","","75","88","","","2","88","training","adjacent","BC","2","3","N.jpg","O.jpg","0","1","0","",""
"","feedback","","html-keyboard-response","576","469849","0.0-1.0-798.0-0.0","0","0","22656","","null","","","null","88","","","","","","","","","","","","","","","",""
"","time_out","","html-keyboard-response","577","471863","0.0-1.0-800.0-0.0","0","0","22656","","null","","","null","88","","","","","","","","","","","","","","","",""
"","ITI","","html-keyboard-response","578","472869","0.0-1.0-801.0","0","0","22656","","null","","","null","88","","","","","","","","","","","","","","","NaN",""
"","S1","","html-keyboard-response","579","473129","0.0-1.0-803.0","0","0","22656","","null","","","null","89","","","","","","","","","","","","","","","",""
"","ISI","","html-keyboard-response","580","474135","0.0-1.0-804.0","0","0","22656","","null","","","null","89","NaN","","","","","","","","","","","","","","",""
"","S2","","html-keyboard-response","581","474392","0.0-1.0-805.0","0","0","22656","","null","","","null","89","","NaN","","","","","","","","","","","","","",""
"","response","","html-keyboard-response","582","474525","0.0-1.0-806.0-0.0","0","0","22656","","131","","","68","89","","","2","89","training","adjacent","AB","1","2","Q.jpg","N.jpg","1","1","1","",""
"","feedback","","html-keyboard-response","583","475535","0.0-1.0-807.0-0.0","0","0","22656","","null","","","null","89","","","","","","","","","","","","","","","",""
