"success","ttype","start_time","trial_type","trial_index","time_elapsed","internal_node_id","warning","missed_checkup","PID","view_history","rt","responses","repeat_instructions","key_press","index","keypress_isi","keypress_S2","block","trial_num","phase","group_type","pair_type","S1_stim","S2_stim","S1_img","S2_img","S1_chosen","S1_higher","accuracy","keypress_iti","total_bonus_tally"
"true","full_screen","d03072023hr2046","fullscreen","0","10249","0.0-0.0","0","0","78391","","","","","","","","","","","","","","","","","","","","","",""
"","instructions","","instructions","1","211258","0.0-1.0-0.0-0.0","0","0","78391","[{""page_index"":0,""viewing_time"":4653},{""page_index"":1,""viewing_time"":186750},{""page_index"":2,""viewing_time"":7433},{""page_index"":3,""viewing_time"":2169}]","201007","","","","","","","","","","","","","","","","","","","",""
"","comprehension_check","","survey-multi-choice","2","236727","0.0-1.0-0.0-1.0","0","0","78391","","25461","{""Q0"":""True"",""Q1"":""K"",""Q2"":""Once the second image appears and while the screen 'MAKE A CHOICE' is shown"",""Q3"":""Green mark"",""Q4"":""either D or K""}","0","","","","","","","","","","","","","","","","","",""
"","start_exp","","html-keyboard-response","3","239523","0.0-1.0-1.0","0","0","78391","","2791","","","32","","","","","","","","","","","","","","","","",""
"","S1","","html-keyboard-response","4","239781","0.0-1.0-2.0","0","0","78391","","null","","","null","0","","","","","","","","","","","","","","","",""
"","ISI","","html-keyboard-response","5","240788","0.0-1.0-3.0","0","0","78391","","null","","","null","0","NaN","","","","","","","","","","","","","","",""
"","S2","","html-keyboard-response","6","241046","0.0-1.0-4.0","0","0","78391","","null","","","null","0","","NaN","","","","","","","","","","","","","",""
"","response","","html-keyboard-response","7","241956","0.0-1.0-5.0-0.0","0","0","78391","","907","","","68","0","","","1","0","training","adjacent","EF","5","6","N.jpg","M.jpg","0","1","0","",""
"","feedback","","html-keyboard-response","8","242963","0.0-1.0-6.0-0.0","0","0","78391","","null","","","null","0","","","","","","","","","","","","","","","",""
"","time_out","","html-keyboard-response","9","244966","0.0-1.0-8.0-0.0","0","0","78391","","null","","","null","0","","","","","","","","","","","","","","","",""
"","ITI","","html-keyboard-response","10","245970","0.0-1.0-9.0","0","0","78391","","null","","","null","0","","","","","","","","","","","","","","","NaN",""
"","S1","","html-keyboard-response","11","246231","0.0-1.0-11.0","0","0","78391","","null","","","null","1","","","","","","","","","","","","","","","",""
"","ISI","","html-keyboard-response","12","247235","0.0-1.0-12.0","0","0","78391","","null","","","null","1","NaN","","","","","","","","","","","","","","",""
"","S2","","html-keyboard-response","13","247488","0.0-1.0-13.0","0","0","78391","","null","","","null","1","","NaN","","","","","","","","","","","","","",""
"","response","","html-keyboard-response","14","247960","0.0-1.0-14.0-0.0","0","0","78391","","470","","","68","1","","","1","1","training","adjacent","CB","3","2","R.jpg","Q.jpg","0","0","1","",""
"","feedback","","html-keyboard-response","15","248966","0.0-1.0-15.0-0.0","0","0","78391","","null","","","null","1","","","","","","","","","","","","","","","",""
"","ITI","","html-keyboard-response","16","249972","0.0-1.0-18.0","0","0","78391","","null","","","null","1","","","","","","","","","","","","","","","NaN",""
"","S1","","html-keyboard-response","17","250231","0.0-1.0-20.0","0","0","78391","","null","","","null","2","","","","","","","","","","","","","","","",""
"","ISI","","html-keyboard-response","18","251235","0.0-1.0-21.0","0","0","78391","","null","","","null","2","NaN","","","","","","","","","","","","","","",""
"","S2","","html-keyboard-response","19","251490","0.0-1.0-22.0","0","0","78391","","null","","","null","2","","NaN","","","","","","","","","","","","","",""
"","response","","html-keyboard-response","20","251764","0.0-1.0-23.0-0.0","0","0","78391","","272","","","75","2","","","1","2","training","adjacent","BC","2","3","Q.jpg","R.jpg","1","1","1","",""
"","feedback","","html-keyboard-response","21","252768","0.0-1.0-24.0-0.0","0","0","78391","","null","","","null","2","","","","","","","","","","","","","","","",""
"","ITI","","html-keyboard-response","22","253772","0.0-1.0-27.0","0","0","78391","","null","","","null","2","","","","","","","","","","","","","","","NaN",""
"","S1","","html-keyboard-response","23","254027","0.0-1.0-29.0","0","0","78391","","null","","","null","3","","","","","","","","","","","","","","","",""
"","ISI","","html-keyboard-response","24","255032","0.0-1.0-30.0","0","0","78391","","null","","","null","3","NaN","","","","","","","","","","","","","","",""
"","S2","","html-keyboard-response","25","255287","0.0-1.0-31.0","0","0","78391","","null","","","null","3","","NaN","","","","","","","","","","","","","",""
"","response","","html-keyboard-response","26","255561","0.0-1.0-32.0-0.0","0","0","78391","","272","","","75","3","","","1","3","training","adjacent","BC","2","3","Q.jpg","R.jpg","1","1","1","",""
"","feedback","","html-keyboard-response","27","256564","0.0-1.0-33.0-0.0","0","0","78391","","null","","","null","3","","","","","","","","","","","","","","","",""
"","ITI","","html-keyboard-response","28","257569","0.0-1.0-36.0","0","0","78391","","null","","","null","3","","","","","","","","","","","","","","","NaN",""
"","S1","","html-keyboard-response","29","257823","0.0-1.0-38.0","0","0","78391","","null","","","null","4","","","","","","","","","","","","","","","",""
"","ISI","","html-keyboard-response","30","258828","0.0-1.0-39.0","0","0","78391","","null","","","null","4","NaN","","","","","","","","","","","","","","",""
"","S2","","html-keyboard-response","31","259084","0.0-1.0-40.0","0","0","78391","","null","","","null","4","","NaN","","","","","","","","","","","","","",""
"","response","","html-keyboard-response","32","259424","0.0-1.0-41.0-0.0","0","0","78391","","339","","","68","4","","","1","4","training","adjacent","FE","6","5","M.jpg","N.jpg","0","0","1","",""
"","feedback","","html-keyboard-response","33","260430","0.0-1.0-42.0-0.0","0","0","78391","","null","","","null","4","","","","","","","","","","","","","","","",""
"","ITI","","html-keyboard-response","34","261435","0.0-1.0-45.0","0","0","78391","","null","","","null","4","","","","","","","","","","","","","","","NaN",""
"","S1","","html-keyboard-response","35","261688","0.0-1.0-47.0","0","0","78391","","null","","","null","5","","","","","","","","","","","","","","","",""
"","ISI","","html-keyboard-response","36","262694","0.0-1.0-48.0","0","0","78391","","null","","","null","5","NaN","","","","","","","","","","","","","","",""
"","S2","","html-keyboard-response","37","262950","0.0-1.0-49.0","0","0","78391","","null","","","null","5","","NaN","","","","","","","","","","","","","",""
"","response","","html-keyboard-response","38","263331","0.0-1.0-50.0-0.0","0","0","78391","","380","","","75","5","","","1","5","training","adjacent","BA","2","1","Q.jpg","L.jpg","1","0","0","",""
"","feedback","","html-keyboard-response","39","264339","0.0-1.0-51.0-0.0","0","0","78391","","null","","","null","5","","","","","","","","","","","","","","","",""
"","time_out","","html-keyboard-response","40","266351","0.0-1.0-53.0-0.0","0","0","78391","","null","","","null","5","","","","","","","","","","","","","","","",""
"","ITI","","html-keyboard-response","41","267356","0.0-1.0-54.0","0","0","78391","","null","","","null","5","","","","","","","","","","","","","","","NaN",""
"","S1","","html-keyboard-response","42","267612","0.0-1.0-56.0","0","0","78391","","null","","","null","6","","","","","","","","","","","","","","","",""
"","ISI","","html-keyboard-response","43","268621","0.0-1.0-57.0","0","0","78391","","null","","","null","6","NaN","","","","","","","","","","","","","","",""
"","S2","","html-keyboard-response","44","268877","0.0-1.0-58.0","0","0","78391","","null","","","null","6","","NaN","","","","","","","","","","","","","",""
"","response","","html-keyboard-response","45","269514","0.0-1.0-59.0-0.0","0","0","78391","","635","","","68","6","","","1","6","training","adjacent","FE","6","5","M.jpg","N.jpg","0","0","1","",""
"","feedback","","html-keyboard-response","46","270521","0.0-1.0-60.0-0.0","0","0","78391","","null","","","null","6","","","","","","","","","","","","","","","",""
"","ITI","","html-keyboard-response","47","271524","0.0-1.0-63.0","0","0","78391","","null","","","null","6","","","","","","","","","","","","","","","NaN",""
"","S1","","html-keyboard-response","48","271780","0.0-1.0-65.0","0","0","78391","","null","","","null","7","","","","","","","","","","","","","","","",""
"","ISI","","html-keyboard-response","49","272789","0.0-1.0-66.0","0","0","78391","","null","","","null","7","NaN","","","","","","","","","","","","","","",""
"","S2","","html-keyboard-response","50","273045","0.0-1.0-67.0","0","0","78391","","null","","","null","7","","NaN","","","","","","","","","","","","","",""
"","response","","html-keyboard-response","51","273273","0.0-1.0-68.0-0.0","0","0","78391","","226","","","75","7","","","1","7","training","adjacent","EF","5","6","N.jpg","M.jpg","1","1","1","",""
"","feedback","","html-keyboard-response","52","274275","0.0-1.0-69.0-0.0","0","0","78391","","null","","","null","7","","","","","","","","","","","","","","","",""
"","ITI","","html-keyboard-response","53","275286","0.0-1.0-72.0","0","0","78391","","null","","","null","7","","","","","","","","","","","","","","","NaN",""
"","S1","","html-keyboard-response","54","275541","0.0-1.0-74.0","0","0","78391","","null","","","null","8","","","","","","","","","","","","","","","",""
"","ISI","","html-keyboard-response","55","276551","0.0-1.0-75.0","0","0","78391","","null","","","null","8","NaN","","","","","","","","","","","","","","",""
"","S2","","html-keyboard-response","56","276807","0.0-1.0-76.0","0","0","78391","","null","","","null","8","","NaN","","","","","","","","","","","","","",""
"","response","","html-keyboard-response","57","277748","0.0-1.0-77.0-0.0","0","0","78391","","939","","","75","8","","","1","8","training","adjacent","DE","4","5","O.jpg","N.jpg","1","1","1","",""
"","feedback","","html-keyboard-response","58","278752","0.0-1.0-78.0-0.0","0","0","78391","","null","","","null","8","","","","","","","","","","","","","","","",""
"","ITI","","html-keyboard-response","59","279757","0.0-1.0-81.0","0","0","78391","","null","","","null","8","","","","","","","","","","","","","","","NaN",""
"","S1","","html-keyboard-response","60","280017","0.0-1.0-83.0","0","0","78391","","null","","","null","9","","","","","","","","","","","","","","","",""
"","ISI","","html-keyboard-response","61","281025","0.0-1.0-84.0","0","0","78391","","null","","","null","9","NaN","","","","","","","","","","","","","","",""
"","S2","","html-keyboard-response","62","281288","0.0-1.0-85.0","0","0","78391","","null","","","null","9","","NaN","","","","","","","","","","","","","",""
"","response","","html-keyboard-response","63","281921","0.0-1.0-86.0-0.0","0","0","78391","","630","","","68","9","","","1","9","training","adjacent","FG","6","7","M.jpg","P.jpg","0","1","0","",""
"","feedback","","html-keyboard-response","64","282925","0.0-1.0-87.0-0.0","0","0","78391","","null","","","null","9","","","","","","","","","","","","","","","",""
"","time_out","","html-keyboard-response","65","284934","0.0-1.0-89.0-0.0","0","0","78391","","null","","","null","9","","","","","","","","","","","","","","","",""
"","ITI","","html-keyboard-response","66","285942","0.0-1.0-90.0","0","0","78391","","null","","","null","9","","","","","","","","","","","","","","","NaN",""
"","S1","","html-keyboard-response","67","286200","0.0-1.0-92.0","0","0","78391","","null","","","null","10","","","","","","","","","","","","","","","",""
"","ISI","","html-keyboard-response","68","287204","0.0-1.0-93.0","0","0","78391","","null","","","null","10","NaN","","","","","","","","","","","","","","",""
"","S2","","html-keyboard-response","69","287458","0.0-1.0-94.0","0","0","78391","","null","","","null","10","","NaN","","","","","","","","","","","","","",""
"","response","","html-keyboard-response","70","288410","0.0-1.0-95.0-0.0","0","0","78391","","949","","","68","10","","","1","10","training","adjacent","DC","4","3","O.jpg","R.jpg","0","0","1","",""
"","feedback","","html-keyboard-response","71","289422","0.0-1.0-96.0-0.0","0","0","78391","","null","","","null","10","","","","","","","","","","","","","","","",""
"","ITI","","html-keyboard-response","72","290425","0.0-1.0-99.0","0","0","78391","","null","","","null","10","","","","","","","","","","","","","","","NaN",""
"","S1","","html-keyboard-response","73","290687","0.0-1.0-101.0","0","0","78391","","null","","","null","11","","","","","","","","","","","","","","","",""
"","ISI","","html-keyboard-response","74","291691","0.0-1.0-102.0","0","0","78391","","null","","","null","11","NaN","","","","","","","","","","","","","","",""
"","S2","","html-keyboard-response","75","291952","0.0-1.0-103.0","0","0","78391","","null","","","null","11","","NaN","","","","","","","","","","","","","",""
"","response","","html-keyboard-response","76","292496","0.0-1.0-104.0-0.0","0","0","78391","","541","","","68","11","","","1","11","training","adjacent","FG","6","7","M.jpg","P.jpg","0","1","0","",""
"","feedback","","html-keyboard-response","77","293502","0.0-1.0-105.0-0.0","0","0","78391","","null","","","null","11","","","","","","","","","","","","","","","",""
"","time_out","","html-keyboard-response","78","295510","0.0-1.0-107.0-0.0","0","0","78391","","null","","","null","11","","","","","","","","","","","","","","","",""
"","ITI","","html-keyboard-response","79","296521","0.0-1.0-108.0","0","0","78391","","null","","","null","11","","","","","","","","","","","","","","","NaN",""
"","S1","","html-keyboard-response","80","296776","0.0-1.0-110.0","0","0","78391","","null","","","null","12","","","","","","","","","","","","","","","",""
"","ISI","","html-keyboard-response","81","297781","0.0-1.0-111.0","0","0","78391","","null","","","null","12","NaN","","","","","","","","","","","","","","",""
"","S2","","html-keyboard-response","82","298036","0.0-1.0-112.0","0","0","78391","","null","","","null","12","","NaN","","","","","","","","","","","","","",""
"","response","","html-keyboard-response","83","298580","0.0-1.0-113.0-0.0","0","0","78391","","542","","","75","12","","","1","12","training","adjacent","FG","6","7","M.jpg","P.jpg","1","1","1","",""
"","feedback","","html-keyboard-response","84","299591","0.0-1.0-114.0-0.0","0","0","78391","","null","","","null","12","","","","","","","","","","","","","","","",""
"","ITI","","html-keyboard-response","85","300596","0.0-1.0-117.0","0","0","78391","","null","","","null","12","","","","","","","","","","","","","","","NaN",""
"","S1","","html-keyboard-response","86","300857","0.0-1.0-119.0","0","0","78391","","null","","","null","13","","","","","","","","","","","","","","","",""
"","ISI","","html-keyboard-response","87","301862","0.0-1.0-120.0","0","0","78391","","754","","","68","13","d","","","","","","","","","","","","","","",""
"","S2","","html-keyboard-response","88","302117","0.0-1.0-121.0","0","0","78391","","null","","","null","13","","NaN","","","","","","","","","","","","","",""
"","response","","html-keyboard-response","89","302720","0.0-1.0-122.0-0.0","0","0","78391","","600","","","68","13","","","1","13","training","adjacent","AB","1","2","L.jpg","Q.jpg","0","1","0","",""
"","feedback","","html-keyboard-response","90","303725","0.0-1.0-123.0-0.0","0","0","78391","","null","","","null","13","","","","","","","","","","","","","","","",""
"","time_out","","html-keyboard-response","91","305733","0.0-1.0-125.0-0.0","0","0","78391","","null","","","null","13","","","","","","","","","","","","","","","",""
"","ITI","","html-keyboard-response","92","306744","0.0-1.0-126.0","0","0","78391","","null","","","null","13","","","","","","","","","","","","","","","NaN",""
"","S1","","html-keyboard-response","93","307005","0.0-1.0-128.0","0","0","78391","","null","","","null","14","","","","","","","","","","","","","","","",""
"","ISI","","html-keyboard-response","94","308010","0.0-1.0-129.0","0","0","78391","","null","","","null","14","NaN","","","","","","","","","","","","","","",""
"","S2","","html-keyboard-response","95","308264","0.0-1.0-130.0","0","0","78391","","null","","","null","14","","NaN","","","","","","","","","","","","","",""
"","response","","html-keyboard-response","96","308408","0.0-1.0-131.0-0.0","0","0","78391","","141","","","75","14","","","1","14","training","adjacent","CD","3","4","R.jpg","O.jpg","1","1","1","",""
"","feedback","","html-keyboard-response","97","309414","0.0-1.0-132.0-0.0","0","0","78391","","null","","","null","14","","","","","","","","","","","","","","","",""
"","ITI","","html-keyboard-response","98","310424","0.0-1.0-135.0","0","0","78391","","null","","","null","14","","","","","","","","","","","","","","","NaN",""
"","S1","","html-keyboard-response","99","310677","0.0-1.0-137.0","0","0","78391","","null","","","null","15","","","","","","","","","","","","","","","",""
"","ISI","","html-keyboard-response","100","311689","0.0-1.0-138.0","0","0","78391","","null","","","null","15","NaN","","","","","","","","","","","","","","",""
"","S2","","html-keyboard-response","101","311944","0.0-1.0-139.0","0","0","78391","","null","","","null","15","","NaN","","","","","","","","","","","","","",""
"","response","","html-keyboard-response","102","313704","0.0-1.0-140.0-0.0","0","0","78391","","null","","","null","15","","","1","15","training","adjacent","EF","5","6","N.jpg","M.jpg","NaN","1","0","",""
"","too_slow_prompt","","html-keyboard-response","103","314710","0.0-1.0-142.0-0.0","1","0","78391","","null","","","null","","","","","","","","","","","","","","","","",""
"","time_out","","html-keyboard-response","104","316717","0.0-1.0-143.0-0.0","0","0","78391","","null","","","null","15","","","","","","","","","","","","","","","",""
"","ITI","","html-keyboard-response","105","317727","0.0-1.0-144.0","0","0","78391","","null","","","null","15","","","","","","","","","","","","","","","NaN",""
"","S1","","html-keyboard-response","106","317982","0.0-1.0-146.0","0","0","78391","","null","","","null","16","","","","","","","","","","","","","","","",""
"","ISI","","html-keyboard-response","107","318992","0.0-1.0-147.0","0","0","78391","","null","","","null","16","NaN","","","","","","","","","","","","","","",""
"","S2","","html-keyboard-response","108","319254","0.0-1.0-148.0","0","0","78391","","null","","","null","16","","NaN","","","","","","","","","","","","","",""
"","response","","html-keyboard-response","109","319518","0.0-1.0-149.0-0.0","0","0","78391","","262","","","75","16","","","1","16","training","adjacent","CB","3","2","R.jpg","Q.jpg","1","0","0","",""
"","feedback","","html-keyboard-response","110","320525","0.0-1.0-150.0-0.0","0","0","78391","","null","","","null","16","","","","","","","","","","","","","","","",""
"","time_out","","html-keyboard-response","111","322528","0.0-1.0-152.0-0.0","0","0","78391","","null","","","null","16","","","","","","","","","","","","","","","",""
"","ITI","","html-keyboard-response","112","323538","0.0-1.0-153.0","0","0","78391","","null","","","null","16","","","","","","","","","","","","","","","NaN",""
"","S1","","html-keyboard-response","113","323796","0.0-1.0-155.0","0","0","78391","","null","","","null","17","","","","","","","","","","","","","","","",""
"","ISI","","html-keyboard-response","114","324809","0.0-1.0-156.0","0","0","78391","","null","","","null","17","NaN","","","","","","","","","","","","","","",""
"","S2","","html-keyboard-response","115","325062","0.0-1.0-157.0","0","0","78391","","null","","","null","17","","NaN","","","","","","","","","","","","","",""
"","response","","html-keyboard-response","116","325260","0.0-1.0-158.0-0.0","0","0","78391","","196","","","75","17","","","1","17","training","adjacent","DE","4","5","O.jpg","N.jpg","1","1","1","",""
"","feedback","","html-keyboard-response","117","326269","0.0-1.0-159.0-0.0","0","0","78391","","null","","","null","17","","","","","","","","","","","","","","","",""
"","ITI","","html-keyboard-response","118","327278","0.0-1.0-162.0","0","0","78391","","null","","","null","17","","","","","","","","","","","","","","","NaN",""
"","S1","","html-keyboard-response","119","327537","0.0-1.0-164.0","0","0","78391","","null","","","null","18","","","","","","","","","","","","","","","",""
"","ISI","","html-keyboard-response","120","328541","0.0-1.0-165.0","0","0","78391","","null","","","null","18","NaN","","","","","","","","","","","","","","",""
"","S2","","html-keyboard-response","121","328794","0.0-1.0-166.0","0","0","78391","","null","","","null","18","","NaN","","","","","","","","","","","","","",""
"","response","","html-keyboard-response","122","328976","0.0-1.0-167.0-0.0","0","0","78391","","180","","","75","18","","","1","18","training","adjacent","DC","4","3","O.jpg","R.jpg","1","0","0","",""
"","feedback","","html-keyboard-response","123","329979","0.0-1.0-168.0-0.0","0","0","78391","","null","","","null","18","","","","","","","","","","","","","","","",""
"","time_out","","html-keyboard-response","124","331990","0.0-1.0-170.0-0.0","0","0","78391","","null","","","null","18","","","","","","","","","","","","","","","",""
"","ITI","","html-keyboard-response","125","332995","0.0-1.0-171.0","0","0","78391","","null","","","null","18","","","","","","","","","","","","","","","NaN",""
"","S1","","html-keyboard-response","126","333256","0.0-1.0-173.0","0","0","78391","","null","","","null","19","","","","","","","","","","","","","","","",""
"","ISI","","html-keyboard-response","127","334262","0.0-1.0-174.0","0","0","78391","","null","","","null","19","NaN","","","","","","","","","","","","","","",""
"","S2","","html-keyboard-response","128","334521","0.0-1.0-175.0","0","0","78391","","null","","","null","19","","NaN","","","","","","","","","","","","","",""
"","response","","html-keyboard-response","129","334656","0.0-1.0-176.0-0.0","0","0","78391","","131","","","68","19","","","1","19","training","adjacent","FE","6","5","M.jpg","N.jpg","0","0","1","",""
"","feedback","","html-keyboard-response","130","335662","0.0-1.0-177.0-0.0","0","0","78391","","null","","","null","19","","","","","","","","","","","","","","","",""
"","ITI","","html-keyboard-response","131","336669","0.0-1.0-180.0","0","0","78391","","null","","","null","19","","","","","","","","","","","","","","","NaN",""
"","S1","","html-keyboard-response","132","336928","0.0-1.0-182.0","0","0","78391","","null","","","null","20","","","","","","","","","","","","","","","",""
"","ISI","","html-keyboard-response","133","337934","0.0-1.0-183.0","0","0","78391","","null","","","null","20","NaN","","","","","","","","","","","","","","",""
"","S2","","html-keyboard-response","134","338190","0.0-1.0-184.0","0","0","78391","","null","","","null","20","","NaN","","","","","","","","","","","","","",""
"","response","","html-keyboard-response","135","338236","0.0-1.0-185.0-0.0","0","0","78391","","43","","","75","20","","","1","20","training","adjacent","FG","6","7","M.jpg","P.jpg","1","1","1","",""
"","feedback","","html-keyboard-response","136","339247","0.0-1.0-186.0-0.0","0","0","78391","","null","","","null","20","","","","","","","","","","","","","","","",""
"","ITI","","html-keyboard-response","137","340256","0.0-1.0-189.0","0","0","78391","","null","","","null","20","","","","","","","","","","","","","","","NaN",""
"","S1","","html-keyboard-response","138","340513","0.0-1.0-191.0","0","0","78391","","null","","","null","21","","","","","","","","","","","","","","","",""
"","ISI","","html-keyboard-response","139","341522","0.0-1.0-192.0","0","0","78391","","null","","","null","21","NaN","","","","","","","","","","","","","","",""
"","S2","","html-keyboard-response","140","341780","0.0-1.0-193.0","0","0","78391","","null","","","null","21","","NaN","","","","","","","","","","","","","",""
"","response","","html-keyboard-response","141","341983","0.0-1.0-194.0-0.0","0","0","78391","","200","","","68","21","","","1","21","training","adjacent","CB","3","2","R.jpg","Q.jpg","0","0","1","",""
"","feedback","","html-keyboard-response","142","342991","0.0-1.0-195.0-0.0","0","0","78391","","null","","","null","21","","","","","","","","","","","","","","","",""
"","ITI","","html-keyboard-response","143","343996","0.0-1.0-198.0","0","0","78391","","null","","","null","21","","","","","","","","","","","","","","","NaN",""
"","S1","","html-keyboard-response","144","344256","0.0-1.0-200.0","0","0","78391","","null","","","null","22","","","","","","","","","","","","","","","",""
"","ISI","","html-keyboard-response","145","345262","0.0-1.0-201.0","0","0","78391","","null","","","null","22","NaN","","","","","","","","","","","","","","",""
"","S2","","html-keyboard-response","146","345521","0.0-1.0-202.0","0","0","78391","","null","","","null","22","","NaN","","","","","","","","","","","","","",""
"","response","","html-keyboard-response","147","345969","0.0-1.0-203.0-0.0","0","0","78391","","445","","","75","22","","","1","22","training","adjacent","CD","3","4","R.jpg","O.jpg","1","1","1","",""
"","feedback","","html-keyboard-response","148","346973","0.0-1.0-204.0-0.0","0","0","78391","","null","","","null","22","","","","","","","","","","","","","","","",""
"","ITI","","html-keyboard-response","149","347980","0.0-1.0-207.0","0","0","78391","","null","","","null","22","","","","","","","","","","","","","","","NaN",""
"","S1","","html-keyboard-response","150","348239","0.0-1.0-209.0","0","0","78391","","null","","","null","23","","","","","","","","","","","","","","","",""
"","ISI","","html-keyboard-response","151","349245","0.0-1.0-210.0","0","0","78391","","null","","","null","23","NaN","","","","","","","","","","","","","","",""
"","S2","","html-keyboard-response","152","349504","0.0-1.0-211.0","0","0","78391","","null","","","null","23","","NaN","","","","","","","","","","","","","",""
"","response","","html-keyboard-response","153","349653","0.0-1.0-212.0-0.0","0","0","78391","","147","","","68","23","","","1","23","training","adjacent","DC","4","3","O.jpg","R.jpg","0","0","1","",""
"","feedback","","html-keyboard-response","154","350664","0.0-1.0-213.0-0.0","0","0","78391","","null","","","null","23","","","","","","","","","","","","","","","",""
"","ITI","","html-keyboard-response","155","351670","0.0-1.0-216.0","0","0","78391","","null","","","null","23","","","","","","","","","","","","","","","NaN",""
"","S1","","html-keyboard-response","156","351931","0.0-1.0-218.0","0","0","78391","","null","","","null","24","","","","","","","","","","","","","","","",""
"","ISI","","html-keyboard-response","157","352935","0.0-1.0-219.0","0","0","78391","","null","","","null","24","NaN","","","","","","","","","","","","","","",""
"","S2","","html-keyboard-response","158","353190","0.0-1.0-220.0","0","0","78391","","null","","","null","24","","NaN","","","","","","","","","","","","","",""
"","response","","html-keyboard-response","159","353371","0.0-1.0-221.0-0.0","0","0","78391","","179","","","75","24","","","1","24","training","adjacent","GF","7","6","P.jpg","M.jpg","1","0","0","",""
"","feedback","","html-keyboard-response","160","354381","0.0-1.0-222.0-0.0","0","0","78391","","null","","","null","24","","","","","","","","","","","","","","","",""
"","time_out","","html-keyboard-response","161","356389","0.0-1.0-224.0-0.0","0","0","78391","","null","","","null","24","","","","","","","","","","","","","","","",""
"","ITI","","html-keyboard-response","162","357399","0.0-1.0-225.0","0","0","78391","","null","","","null","24","","","","","","","","","","","","","","","NaN",""
"","S1","","html-keyboard-response","163","357655","0.0-1.0-227.0","0","0","78391","","null","","","null","25","","","","","","","","","","","","","","","",""
"","ISI","","html-keyboard-response","164","358664","0.0-1.0-228.0","0","0","78391","","null","","","null","25","NaN","","","","","","","","","","","","","","",""
"","S2","","html-keyboard-response","165","358920","0.0-1.0-229.0","0","0","78391","","null","","","null","25","","NaN","","","","","","","","","","","","","",""
"","response","","html-keyboard-response","166","359452","0.0-1.0-230.0-0.0","0","0","78391","","531","","","68","25","","","1","25","training","adjacent","EF","5","6","N.jpg","M.jpg","0","1","0","",""
"","feedback","","html-keyboard-response","167","360464","0.0-1.0-231.0-0.0","0","0","78391","","null","","","null","25","","","","","","","","","","","","","","","",""
"","time_out","","html-keyboard-response","168","362471","0.0-1.0-233.0-0.0","0","0","78391","","null","","","null","25","","","","","","","","","","","","","","","",""
"","ITI","","html-keyboard-response","169","363479","0.0-1.0-234.0","0","0","78391","","null","","","null","25","","","","","","","","","","","","","","","NaN",""
"","S1","","html-keyboard-response","170","363732","0.0-1.0-236.0","0","0","78391","","null","","","null","26","","","","","","","","","","","","","","","",""
"","ISI","","html-keyboard-response","171","364743","0.0-1.0-237.0","0","0","78391","","null","","","null","26","NaN","","","","","","","","","","","","","","",""
"","S2","","html-keyboard-response","172","364998","0.0-1.0-238.0","0","0","78391","","null","","","null","26","","NaN","","","","","","","","","","","","","",""
"","response","","html-keyboard-response","173","365638","0.0-1.0-239.0-0.0","0","0","78391","","638","","","75","26","","","1","26","training","adjacent","ED","5","4","N.jpg","O.jpg","1","0","0","",""
"","feedback","","html-keyboard-response","174","366647","0.0-1.0-240.0-0.0","0","0","78391","","null","","","null","26","","","","","","","","","","","","","","","",""
"","time_out","","html-keyboard-response","175","368649","0.0-1.0-242.0-0.0","0","0","78391","","null","","","null","26","","","","","","","","","","","","","","","",""
"","ITI","","html-keyboard-response","176","369654","0.0-1.0-243.0","0","0","78391","","null","","","null","26","","","","","","","","","","","","","","","NaN",""
"","S1","","html-keyboard-response","177","369911","0.0-1.0-245.0","0","0","78391","","null","","","null","27","","","","","","","","","","","","","","","",""
"","ISI","","html-keyboard-response","178","370915","0.0-1.0-246.0","0","0","78391","","null","","","null","27","NaN","","","","","","","","","","","","","","",""
"","S2","","html-keyboard-response","179","371175","0.0-1.0-247.0","0","0","78391","","null","","","null","27","","NaN","","","","","","","","","","","","","",""
"","response","","html-keyboard-response","180","371622","0.0-1.0-248.0-0.0","0","0","78391","","445","","","75","27","","","1","27","training","adjacent","FE","6","5","M.jpg","N.jpg","1","0","0","",""
"","feedback","","html-keyboard-response","181","372631","0.0-1.0-249.0-0.0","0","0","78391","","null","","","null","27","","","","","","","","","","","","","","","",""
"","time_out","","html-keyboard-response","182","374640","0.0-1.0-251.0-0.0","0","0","78391","","null","","","null","27","","","","","","","","","","","","","","","",""
"","ITI","","html-keyboard-response","183","375649","0.0-1.0-252.0","0","0","78391","","null","","","null","27","","","","","","","","","","","","","","","NaN",""
"","S1","","html-keyboard-response","184","375911","0.0-1.0-254.0","0","0","78391","","null","","","null","28","","","","","","","","","","","","","","","",""
"","ISI","","html-keyboard-response","185","376917","0.0-1.0-255.0","0","0","78391","","null","","","null","28","NaN","","","","","","","","","","","","","","",""
"","S2","","html-keyboard-response","186","377174","0.0-1.0-256.0","0","0","78391","","null","","","null","28","","NaN","","","","","","","","","","","","","",""
"","response","","html-keyboard-response","187","377626","0.0-1.0-257.0-0.0","0","0","78391","","449","","","75","28","","","1","28","training","adjacent","CD","3","4","R.jpg","O.jpg","1","1","1","",""
"","feedback","","html-keyboard-response","188","378633","0.0-1.0-258.0-0.0","0","0","78391","","null","","","null","28","","","","","","","","","","","","","","","",""
"","ITI","","html-keyboard-response","189","379639","0.0-1.0-261.0","0","0","78391","","null","","","null","28","","","","","","","","","","","","","","","NaN",""
"","S1","","html-keyboard-response","190","379894","0.0-1.0-263.0","0","0","78391","","null","","","null","29","","","","","","","","","","","","","","","",""
"","ISI","","html-keyboard-response","191","380899","0.0-1.0-264.0","0","0","78391","","null","","","null","29","NaN","","","","","","","","","","","","","","",""
"","S2","","html-keyboard-response","192","381159","0.0-1.0-265.0","0","0","78391","","null","","","null","29","","NaN","","","","","","","","","","","","","",""
"","response","","html-keyboard-response","193","381898","0.0-1.0-266.0-0.0","0","0","78391","","736","","","75","29","","","1","29","training","adjacent","ED","5","4","N.jpg","O.jpg","1","0","0","",""
"","feedback","","html-keyboard-response","194","382906","0.0-1.0-267.0-0.0","0","0","78391","","null","","","null","29","","","","","","","","","","","","","","","",""
"","time_out","","html-keyboard-response","195","384912","0.0-1.0-269.0-0.0","0","0","78391","","null","","","null","29","","","","","","","","","","","","","","","",""
"","ITI","","html-keyboard-response","196","385916","0.0-1.0-270.0","0","0","78391","","null","","","null","29","","","","","","","","","","","","","","","NaN",""
"","S1","","html-keyboard-response","197","386175","0.0-1.0-272.0","0","0","78391","","null","","","null","30","","","","","","","","","","","","","","","",""
"","ISI","","html-keyboard-response","198","387184","0.0-1.0-273.0","0","0","78391","","null","","","null","30","NaN","","","","","","","","","","","","","","",""
"","S2","","html-keyboard-response","199","387441","0.0-1.0-274.0","0","0","78391","","null","","","null","30","","NaN","","","","","","","","","","","","","",""
"","response","","html-keyboard-response","200","387566","0.0-1.0-275.0-0.0","0","0","78391","","123","","","75","30","","","1","30","training","adjacent","DE","4","5","O.jpg","N.jpg","1","1","1","",""
"","feedback","","html-keyboard-response","201","388574","0.0-1.0-276.0-0.0","0","0","78391","","null","","","null","30","","","","","","","","","","","","","","","",""
"","ITI","","html-keyboard-response","202","389583","0.0-1.0-279.0","0","0","78391","","null","","","null","30","","","","","","","","","","","","","","","NaN",""
"","S1","","html-keyboard-response","203","389838","0.0-1.0-281.0","0","0","78391","","null","","","null","31","","","","","","","","","","","","","","","",""
"","ISI","","html-keyboard-response","204","390848","0.0-1.0-282.0","0","0","78391","","null","","","null","31","NaN","","","","","","","","","","","","","","",""
"","S2","","html-keyboard-response","205","391104","0.0-1.0-283.0","0","0","78391","","null","","","null","31","","NaN","","","","","","","","","","","","","",""
"","response","","html-keyboard-response","206","391333","0.0-1.0-284.0-0.0","0","0","78391","","227","","","68","31","","","1","31","training","adjacent","ED","5","4","N.jpg","O.jpg","0","0","1","",""
"","feedback","","html-keyboard-response","207","392347","0.0-1.0-285.0-0.0","0","0","78391","","null","","","null","31","","","","","","","","","","","","","","","",""
"","ITI","","html-keyboard-response","208","393351","0.0-1.0-288.0","0","0","78391","","null","","","null","31","","","","","","","","","","","","","","","NaN",""
"","S1","","html-keyboard-response","209","393611","0.0-1.0-290.0","0","0","78391","","null","","","null","32","","","","","","","","","","","","","","","",""
"","ISI","","html-keyboard-response","210","394616","0.0-1.0-291.0","0","0","78391","","null","","","null","32","NaN","","","","","","","","","","","","","","",""
"","S2","","html-keyboard-response","211","394871","0.0-1.0-292.0","0","0","78391","","null","","","null","32","","NaN","","","","","","","","","","","","","",""
"","response","","html-keyboard-response","212","395534","0.0-1.0-293.0-0.0","0","0","78391","","662","","","75","32","","","1","32","training","adjacent","BA","2","1","Q.jpg","L.jpg","1","0","0","",""
"","feedback","","html-keyboard-response","213","396543","0.0-1.0-294.0-0.0","0","0","78391","","null","","","null","32","","","","","","","","","","","","","","","",""
"","time_out","","html-keyboard-response","214","398552","0.0-1.0-296.0-0.0","0","0","78391","","null","","","null","32","","","","","","","","","","","","","","","",""
"","ITI","","html-keyboard-response","215","399561","0.0-1.0-297.0","0","0","78391","","null","","","null","32","","","","","","","","","","","","","","","NaN",""
"","S1","","html-keyboard-response","216","399817","0.0-1.0-299.0","0","0","78391","","null","","","null","33","","","","","","","","","","","","","","","",""
"","ISI","","html-keyboard-response","217","400827","0.0-1.0-300.0","0","0","78391","","null","","","null","33","NaN","","","","","","","","","","","","","","",""
"","S2","","html-keyboard-response","218","401085","0.0-1.0-301.0","0","0","78391","","null","","","null","33","","NaN","","","","","","","","","","","","","",""
"","response","","html-keyboard-response","219","401902","0.0-1.0-302.0-0.0","0","0","78391","","814","","","68","33","","","1","33","training","adjacent","BC","2","3","Q.jpg","R.jpg","0","1","0","",""
"","feedback","","html-keyboard-response","220","402911","0.0-1.0-303.0-0.0","0","0","78391","","null","","","null","33","","","","","","","","","","","","","","","",""
"","time_out","","html-keyboard-response","221","404918","0.0-1.0-305.0-0.0","0","0","78391","","null","","","null","33","","","","","","","","","","","","","","","",""
"","ITI","","html-keyboard-response","222","405930","0.0-1.0-306.0","0","0","78391","","null","","","null","33","","","","","","","","","","","","","","","NaN",""
"","S1","","html-keyboard-response","223","406186","0.0-1.0-308.0","0","0","78391","","null","","","null","34","","","","","","","","","","","","","","","",""
"","ISI","","html-keyboard-response","224","407195","0.0-1.0-309.0","0","0","78391","","null","","","null","34","NaN","","","","","","","","","","","","","","",""
"","S2","","html-keyboard-response","225","407452","0.0-1.0-310.0","0","0","78391","","null","","","null","34","","NaN","","","","","","","","","","","","","",""
"","response","","html-keyboard-response","226","407679","0.0-1.0-311.0-0.0","0","0","78391","","225","","","75","34","","","1","34","training","adjacent","GF","7","6","P.jpg","M.jpg","1","0","0","",""
"","feedback","","html-keyboard-response","227","408686","0.0-1.0-312.0-0.0","0","0","78391","","null","","","null","34","","","","","","","","","","","","","","","",""
"","time_out","","html-keyboard-response","228","410696","0.0-1.0-314.0-0.0","0","0","78391","","null","","","null","34","","","","","","","","","","","","","","","",""
"","ITI","","html-keyboard-response","229","411703","0.0-1.0-315.0","0","0","78391","","null","","","null","34","","","","","","","","","","","","","","","NaN",""
"","S1","","html-keyboard-response","230","411961","0.0-1.0-317.0","0","0","78391","","null","","","null","35","","","","","","","","","","","","","","","",""
"","ISI","","html-keyboard-response","231","412969","0.0-1.0-318.0","0","0","78391","","887","","","68","35","d","","","","","","","","","","","","","","",""
"","S2","","html-keyboard-response","232","413227","0.0-1.0-319.0","0","0","78391","","null","","","null","35","","NaN","","","","","","","","","","","","","",""
"","response","","html-keyboard-response","233","414986","0.0-1.0-320.0-0.0","0","0","78391","","null","","","null","35","","","1","35","training","adjacent","ED","5","4","N.jpg","O.jpg","NaN","0","0","",""
"","too_slow_prompt","","html-keyboard-response","234","415995","0.0-1.0-322.0-0.0","1","0","78391","","null","","","null","","","","","","","","","","","","","","","","",""
"","time_out","","html-keyboard-response","235","417998","0.0-1.0-323.0-0.0","0","0","78391","","null","","","null","35","","","","","","","","","","","","","","","",""
"","ITI","","html-keyboard-response","236","419002","0.0-1.0-324.0","0","0","78391","","null","","","null","35","","","","","","","","","","","","","","","NaN",""
"","S1","","html-keyboard-response","237","419264","0.0-1.0-326.0","0","0","78391","","null","","","null","36","","","","","","","","","","","","","","","",""
"","ISI","","html-keyboard-response","238","420270","0.0-1.0-327.0","0","0","78391","","null","","","null","36","NaN","","","","","","","","","","","","","","",""
"","S2","","html-keyboard-response","239","420529","0.0-1.0-328.0","0","0","78391","","null","","","null","36","","NaN","","","","","","","","","","","","","",""
"","response","","html-keyboard-response","240","420595","0.0-1.0-329.0-0.0","0","0","78391","","63","","","75","36","","","1","36","training","adjacent","AB","1","2","L.jpg","Q.jpg","1","1","1","",""
"","feedback","","html-keyboard-response","241","421604","0.0-1.0-330.0-0.0","0","0","78391","","null","","","null","36","","","","","","","","","","","","","","","",""
"","ITI","","html-keyboard-response","242","422619","0.0-1.0-333.0","0","0","78391","","null","","","null","36","","","","","","","","","","","","","","","NaN",""
"","S1","","html-keyboard-response","243","422880","0.0-1.0-335.0","0","0","78391","","null","","","null","37","","","","","","","","","","","","","","","",""
"","ISI","","html-keyboard-response","244","423886","0.0-1.0-336.0","0","0","78391","","null","","","null","37","NaN","","","","","","","","","","","","","","",""
"","S2","","html-keyboard-response","245","424146","0.0-1.0-337.0","0","0","78391","","null","","","null","37","","NaN","","","","","","","","","","","","","",""
"","response","","html-keyboard-response","246","425904","0.0-1.0-338.0-0.0","0","0","78391","","null","","","null","37","","","1","37","training","adjacent","BA","2","1","Q.jpg","L.jpg","NaN","0","0","",""
"","too_slow_prompt","","html-keyboard-response","247","426915","0.0-1.0-340.0-0.0","1","0","78391","","null","","","null","","","","","","","","","","","","","","","","",""
"","time_out","","html-keyboard-response","248","428921","0.0-1.0-341.0-0.0","0","0","78391","","null","","","null","37","","","","","","","","","","","","","","","",""
"","ITI","","html-keyboard-response","249","429928","0.0-1.0-342.0","0","0","78391","","null","","","null","37","","","","","","","","","","","","","","","NaN",""
"","S1","","html-keyboard-response","250","430184","0.0-1.0-344.0","0","0","78391","","null","","","null","38","","","","","","","","","","","","","","","",""
"","ISI","","html-keyboard-response","251","431188","0.0-1.0-345.0","0","0","78391","","null","","","null","38","NaN","","","","","","","","","","","","","","",""
"","S2","","html-keyboard-response","252","431449","0.0-1.0-346.0","0","0","78391","","null","","","null","38","","NaN","","","","","","","","","","","","","",""
"","response","","html-keyboard-response","253","431940","0.0-1.0-347.0-0.0","0","0","78391","","488","","","68","38","","","1","38","training","adjacent","BA","2","1","Q.jpg","L.jpg","0","0","1","",""
"","feedback","","html-keyboard-response","254","432947","0.0-1.0-348.0-0.0","0","0","78391","","null","","","null","38","","","","","","","","","","","","","","","",""
"","ITI","","html-keyboard-response","255","433951","0.0-1.0-351.0","0","0","78391","","null","","","null","38","","","","","","","","","","","","","","","NaN",""
"","S1","","html-keyboard-response","256","434204","0.0-1.0-353.0","0","0","78391","","null","","","null","39","","","","","","","","","","","","","","","",""
"","ISI","","html-keyboard-response","257","435211","0.0-1.0-354.0","0","0","78391","","null","","","null","39","NaN","","","","","","","","","","","","","","",""
"","S2","","html-keyboard-response","258","435466","0.0-1.0-355.0","0","0","78391","","null","","","null","39","","NaN","","","","","","","","","","","","","",""
"","response","","html-keyboard-response","259","435844","0.0-1.0-356.0-0.0","0","0","78391","","375","","","75","39","","","1","39","training","adjacent","AB","1","2","L.jpg","Q.jpg","1","1","1","",""
"","feedback","","html-keyboard-response","260","436848","0.0-1.0-357.0-0.0","0","0","78391","","null","","","null","39","","","","","","","","","","","","","","","",""
"","ITI","","html-keyboard-response","261","437856","0.0-1.0-360.0","0","0","78391","","null","","","null","39","","","","","","","","","","","","","","","NaN",""
"","S1","","html-keyboard-response","262","438113","0.0-1.0-362.0","0","0","78391","","null","","","null","40","","","","","","","","","","","","","","","",""
"","ISI","","html-keyboard-response","263","439122","0.0-1.0-363.0","0","0","78391","","488","","","68","40","d","","","","","","","","","","","","","","",""
"","S2","","html-keyboard-response","264","439232","0.0-1.0-364.0","0","0","78391","","107","","","68","40","","d","1","40","training","adjacent","CB","3","2","R.jpg","Q.jpg","0","0","1","",""
"","feedback","","html-keyboard-response","265","440238","0.0-1.0-366.0-0.0","0","0","78391","","null","","","null","40","","","","","","","","","","","","","","","",""
"","ITI","","html-keyboard-response","266","441249","0.0-1.0-369.0","0","0","78391","","null","","","null","40","","","","","","","","","","","","","","","NaN",""
"","S1","","html-keyboard-response","267","441503","0.0-1.0-371.0","0","0","78391","","null","","","null","41","","","","","","","","","","","","","","","",""
"","ISI","","html-keyboard-response","268","442513","0.0-1.0-372.0","0","0","78391","","null","","","null","41","NaN","","","","","","","","","","","","","","",""
"","S2","","html-keyboard-response","269","442769","0.0-1.0-373.0","0","0","78391","","null","","","null","41","","NaN","","","","","","","","","","","","","",""
"","response","","html-keyboard-response","270","443298","0.0-1.0-374.0-0.0","0","0","78391","","526","","","75","41","","","1","41","training","adjacent","BC","2","3","Q.jpg","R.jpg","1","1","1","",""
"","feedback","","html-keyboard-response","271","444307","0.0-1.0-375.0-0.0","0","0","78391","","null","","","null","41","","","","","","","","","","","","","","","",""
"","ITI","","html-keyboard-response","272","445312","0.0-1.0-378.0","0","0","78391","","null","","","null","41","","","","","","","","","","","","","","","NaN",""
"","S1","","html-keyboard-response","273","445572","0.0-1.0-380.0","0","0","78391","","null","","","null","42","","","","","","","","","","","","","","","",""
"","ISI","","html-keyboard-response","274","446576","0.0-1.0-381.0","0","0","78391","","null","","","null","42","NaN","","","","","","","","","","","","","","",""
"","S2","","html-keyboard-response","275","446832","0.0-1.0-382.0","0","0","78391","","null","","","null","42","","NaN","","","","","","","","","","","","","",""
"","response","","html-keyboard-response","276","447289","0.0-1.0-383.0-0.0","0","0","78391","","455","","","68","42","","","1","42","training","adjacent","DE","4","5","O.jpg","N.jpg","0","1","0","",""
"","feedback","","html-keyboard-response","277","448295","0.0-1.0-384.0-0.0","0","0","78391","","null","","","null","42","","","","","","","","","","","","","","","",""
"","time_out","","html-keyboard-response","278","450304","0.0-1.0-386.0-0.0","0","0","78391","","null","","","null","42","","","","","","","","","","","","","","","",""
"","ITI","","html-keyboard-response","279","451314","0.0-1.0-387.0","0","0","78391","","null","","","null","42","","","","","","","","","","","","","","","NaN",""
"","S1","","html-keyboard-response","280","451570","0.0-1.0-389.0","0","0","78391","","null","","","null","43","","","","","","","","","","","","","","","",""
"","ISI","","html-keyboard-response","281","452573","0.0-1.0-390.0","0","0","78391","","null","","","null","43","NaN","","","","","","","","","","","","","","",""
"","S2","","html-keyboard-response","282","452835","0.0-1.0-391.0","0","0","78391","","null","","","null","43","","NaN","","","","","","","","","","","","","",""
"","response","","html-keyboard-response","283","452916","0.0-1.0-392.0-0.0","0","0","78391","","79","","","75","43","","","1","43","training","adjacent","CD","3","4","R.jpg","O.jpg","1","1","1","",""
"","feedback","","html-keyboard-response","284","453921","0.0-1.0-393.0-0.0","0","0","78391","","null","","","null","43","","","","","","","","","","","","","","","",""
"","ITI","","html-keyboard-response","285","454931","0.0-1.0-396.0","0","0","78391","","null","","","null","43","","","","","","","","","","","","","","","NaN",""
"","S1","","html-keyboard-response","286","455191","0.0-1.0-398.0","0","0","78391","","null","","","null","44","","","","","","","","","","","","","","","",""
"","ISI","","html-keyboard-response","287","456202","0.0-1.0-399.0","0","0","78391","","null","","","null","44","NaN","","","","","","","","","","","","","","",""
"","S2","","html-keyboard-response","288","456457","0.0-1.0-400.0","0","0","78391","","null","","","null","44","","NaN","","","","","","","","","","","","","",""
"","response","","html-keyboard-response","289","457013","0.0-1.0-401.0-0.0","0","0","78391","","553","","","68","44","","","1","44","training","adjacent","GF","7","6","P.jpg","M.jpg","0","0","1","",""
"","feedback","","html-keyboard-response","290","458023","0.0-1.0-402.0-0.0","0","0","78391","","null","","","null","44","","","","","","","","","","","","","","","",""
"","ITI","","html-keyboard-response","291","459036","0.0-1.0-405.0","0","0","78391","","null","","","null","44","","","","","","","","","","","","","","","NaN",""
"","S1","","html-keyboard-response","292","459291","0.0-1.0-407.0","0","0","78391","","null","","","null","45","","","","","","","","","","","","","","","",""
"","ISI","","html-keyboard-response","293","460300","0.0-1.0-408.0","0","0","78391","","null","","","null","45","NaN","","","","","","","","","","","","","","",""
"","S2","","html-keyboard-response","294","460557","0.0-1.0-409.0","0","0","78391","","null","","","null","45","","NaN","","","","","","","","","","","","","",""
"","response","","html-keyboard-response","295","460690","0.0-1.0-410.0-0.0","0","0","78391","","130","","","75","45","","","1","45","training","adjacent","AB","1","2","L.jpg","Q.jpg","1","1","1","",""
"","feedback","","html-keyboard-response","296","461699","0.0-1.0-411.0-0.0","0","0","78391","","null","","","null","45","","","","","","","","","","","","","","","",""
"","ITI","","html-keyboard-response","297","462703","0.0-1.0-414.0","0","0","78391","","null","","","null","45","","","","","","","","","","","","","","","NaN",""
"","S1","","html-keyboard-response","298","462957","0.0-1.0-416.0","0","0","78391","","null","","","null","46","","","","","","","","","","","","","","","",""
"","ISI","","html-keyboard-response","299","463963","0.0-1.0-417.0","0","0","78391","","null","","","null","46","NaN","","","","","","","","","","","","","","",""
"","S2","","html-keyboard-response","300","464224","0.0-1.0-418.0","0","0","78391","","null","","","null","46","","NaN","","","","","","","","","","","","","",""
"","response","","html-keyboard-response","301","464391","0.0-1.0-419.0-0.0","0","0","78391","","164","","","75","46","","","1","46","training","adjacent","DC","4","3","O.jpg","R.jpg","1","0","0","",""
"","feedback","","html-keyboard-response","302","465403","0.0-1.0-420.0-0.0","0","0","78391","","null","","","null","46","","","","","","","","","","","","","","","",""
"","time_out","","html-keyboard-response","303","467408","0.0-1.0-422.0-0.0","0","0","78391","","null","","","null","46","","","","","","","","","","","","","","","",""
"","ITI","","html-keyboard-response","304","468416","0.0-1.0-423.0","0","0","78391","","null","","","null","46","","","","","","","","","","","","","","","NaN",""
"","S1","","html-keyboard-response","305","468673","0.0-1.0-425.0","0","0","78391","","null","","","null","47","","","","","","","","","","","","","","","",""
"","ISI","","html-keyboard-response","306","469682","0.0-1.0-426.0","0","0","78391","","null","","","null","47","NaN","","","","","","","","","","","","","","",""
"","S2","","html-keyboard-response","307","469937","0.0-1.0-427.0","0","0","78391","","null","","","null","47","","NaN","","","","","","","","","","","","","",""
"","response","","html-keyboard-response","308","470183","0.0-1.0-428.0-0.0","0","0","78391","","243","","","68","47","","","1","47","training","adjacent","GF","7","6","P.jpg","M.jpg","0","0","1","",""
"","feedback","","html-keyboard-response","309","471190","0.0-1.0-429.0-0.0","0","0","78391","","null","","","null","47","","","","","","","","","","","","","","","",""
"","ITI","","html-keyboard-response","310","472201","0.0-1.0-432.0","0","0","78391","","null","","","null","47","","","","","","","","","","","","","","","NaN",""
"","block_over","","html-keyboard-response","311","484691","0.0-1.0-433.0-0.0","0","0","78391","","12487","","","32","47","","","","","","","","","","","","","","","",""
"","S1","","html-keyboard-response","312","484955","0.0-1.0-434.0","0","0","78391","","null","","","null","48","","","","","","","","","","","","","","","",""
"","ISI","","html-keyboard-response","313","485959","0.0-1.0-435.0","0","0","78391","","null","","","null","48","NaN","","","","","","","","","","","","","","",""
"","S2","","html-keyboard-response","314","486220","0.0-1.0-436.0","0","0","78391","","null","","","null","48","","NaN","","","","","","","","","","","","","",""
"","response","","html-keyboard-response","315","486921","0.0-1.0-437.0-0.0","0","0","78391","","698","","","75","48","","","2","48","training","adjacent","CD","3","4","R.jpg","O.jpg","1","1","1","",""
"","feedback","","html-keyboard-response","316","487927","0.0-1.0-438.0-0.0","0","0","78391","","null","","","null","48","","","","","","","","","","","","","","","",""
"","ITI","","html-keyboard-response","317","488937","0.0-1.0-441.0","0","0","78391","","null","","","null","48","","","","","","","","","","","","","","","NaN",""
"","S1","","html-keyboard-response","318","489193","0.0-1.0-443.0","0","0","78391","","null","","","null","49","","","","","","","","","","","","","","","",""
"","ISI","","html-keyboard-response","319","490203","0.0-1.0-444.0","0","0","78391","","null","","","null","49","NaN","","","","","","","","","","","","","","",""
"","S2","","html-keyboard-response","320","490458","0.0-1.0-445.0","0","0","78391","","null","","","null","49","","NaN","","","","","","","","","","","","","",""
"","response","","html-keyboard-response","321","490769","0.0-1.0-446.0-0.0","0","0","78391","","309","","","68","49","","","2","49","training","adjacent","GF","7","6","P.jpg","M.jpg","0","0","1","",""
"","feedback","","html-keyboard-response","322","491777","0.0-1.0-447.0-0.0","0","0","78391","","null","","","null","49","","","","","","","","","","","","","","","",""
"","ITI","","html-keyboard-response","323","492786","0.0-1.0-450.0","0","0","78391","","null","","","null","49","","","","","","","","","","","","","","","NaN",""
"","S1","","html-keyboard-response","324","493041","0.0-1.0-452.0","0","0","78391","","null","","","null","50","","","","","","","","","","","","","","","",""
"","ISI","","html-keyboard-response","325","494051","0.0-1.0-453.0","0","0","78391","","null","","","null","50","NaN","","","","","","","","","","","","","","",""
"","S2","","html-keyboard-response","326","494307","0.0-1.0-454.0","0","0","78391","","null","","","null","50","","NaN","","","","","","","","","","","","","",""
"","response","","html-keyboard-response","327","494728","0.0-1.0-455.0-0.0","0","0","78391","","419","","","75","50","","","2","50","training","adjacent","CB","3","2","R.jpg","Q.jpg","1","0","0","",""
"","feedback","","html-keyboard-response","328","495740","0.0-1.0-456.0-0.0","0","0","78391","","null","","","null","50","","","","","","","","","","","","","","","",""
"","time_out","","html-keyboard-response","329","497744","0.0-1.0-458.0-0.0","0","0","78391","","null","","","null","50","","","","","","","","","","","","","","","",""
"","ITI","","html-keyboard-response","330","498753","0.0-1.0-459.0","0","0","78391","","null","","","null","50","","","","","","","","","","","","","","","NaN",""
"","S1","","html-keyboard-response","331","499009","0.0-1.0-461.0","0","0","78391","","null","","","null","51","","","","","","","","","","","","","","","",""
"","ISI","","html-keyboard-response","332","500020","0.0-1.0-462.0","0","0","78391","","null","","","null","51","NaN","","","","","","","","","","","","","","",""
"","S2","","html-keyboard-response","333","500278","0.0-1.0-463.0","0","0","78391","","null","","","null","51","","NaN","","","","","","","","","","","","","",""
"","response","","html-keyboard-response","334","500630","0.0-1.0-464.0-0.0","0","0","78391","","350","","","75","51","","","2","51","training","adjacent","BC","2","3","Q.jpg","R.jpg","1","1","1","",""
"","feedback","","html-keyboard-response","335","501644","0.0-1.0-465.0-0.0","0","0","78391","","null","","","null","51","","","","","","","","","","","","","","","",""
"","ITI","","html-keyboard-response","336","502648","0.0-1.0-468.0","0","0","78391","","null","","","null","51","","","","","","","","","","","","","","","NaN",""
"","S1","","html-keyboard-response","337","502910","0.0-1.0-470.0","0","0","78391","","null","","","null","52","","","","","","","","","","","","","","","",""
"","ISI","","html-keyboard-response","338","503926","0.0-1.0-471.0","0","0","78391","","null","","","null","52","NaN","","","","","","","","","","","","","","",""
"","S2","","html-keyboard-response","339","504187","0.0-1.0-472.0","0","0","78391","","null","","","null","52","","NaN","","","","","","","","","","","","","",""
"","response","","html-keyboard-response","340","504298","0.0-1.0-473.0-0.0","0","0","78391","","108","","","75","52","","","2","52","training","adjacent","BA","2","1","Q.jpg","L.jpg","1","0","0","",""
"","feedback","","html-keyboard-response","341","505308","0.0-1.0-474.0-0.0","0","0","78391","","null","","","null","52","","","","","","","","","","","","","","","",""
"","time_out","","html-keyboard-response","342","507311","0.0-1.0-476.0-0.0","0","0","78391","","null","","","null","52","","","","","","","","","","","","","","","",""
"","ITI","","html-keyboard-response","343","508320","0.0-1.0-477.0","0","0","78391","","null","","","null","52","","","","","","","","","","","","","","","NaN",""
"","S1","","html-keyboard-response","344","508577","0.0-1.0-479.0","0","0","78391","","null","","","null","53","","","","","","","","","","","","","","","",""
"","ISI","","html-keyboard-response","345","509586","0.0-1.0-480.0","0","0","78391","","null","","","null","53","NaN","","","","","","","","","","","","","","",""
"","S2","","html-keyboard-response","346","509841","0.0-1.0-481.0","0","0","78391","","null","","","null","53","","NaN","","","","","","","","","","","","","",""
"","response","","html-keyboard-response","347","509969","0.0-1.0-482.0-0.0","0","0","78391","","125","","","68","53","","","2","53","training","adjacent","FG","6","7","M.jpg","P.jpg","0","1","0","",""
"","feedback","","html-keyboard-response","348","510973","0.0-1.0-483.0-0.0","0","0","78391","","null","","","null","53","","","","","","","","","","","","","","","",""
"","time_out","","html-keyboard-response","349","512978","0.0-1.0-485.0-0.0","0","0","78391","","null","","","null","53","","","","","","","","","","","","","","","",""
"","ITI","","html-keyboard-response","350","513986","0.0-1.0-486.0","0","0","78391","","null","","","null","53","","","","","","","","","","","","","","","NaN",""
"","S1","","html-keyboard-response","351","514241","0.0-1.0-488.0","0","0","78391","","null","","","null","54","","","","","","","","","","","","","","","",""
"","ISI","","html-keyboard-response","352","515244","0.0-1.0-489.0","0","0","78391","","null","","","null","54","NaN","","","","","","","","","","","","","","",""
"","S2","","html-keyboard-response","353","515501","0.0-1.0-490.0","0","0","78391","","null","","","null","54","","NaN","","","","","","","","","","","","","",""
"","response","","html-keyboard-response","354","515662","0.0-1.0-491.0-0.0","0","0","78391","","159","","","75","54","","","2","54","training","adjacent","DE","4","5","O.jpg","N.jpg","1","1","1","",""
"","feedback","","html-keyboard-response","355","516668","0.0-1.0-492.0-0.0","0","0","78391","","null","","","null","54","","","","","","","","","","","","","","","",""
"","ITI","","html-keyboard-response","356","517673","0.0-1.0-495.0","0","0","78391","","null","","","null","54","","","","","","","","","","","","","","","NaN",""
"","S1","","html-keyboard-response","357","517929","0.0-1.0-497.0","0","0","78391","","null","","","null","55","","","","","","","","","","","","","","","",""
"","ISI","","html-keyboard-response","358","518938","0.0-1.0-498.0","0","0","78391","","null","","","null","55","NaN","","","","","","","","","","","","","","",""
"","S2","","html-keyboard-response","359","519194","0.0-1.0-499.0","0","0","78391","","null","","","null","55","","NaN","","","","","","","","","","","","","",""
"","response","","html-keyboard-response","360","519785","0.0-1.0-500.0-0.0","0","0","78391","","588","","","75","55","","","2","55","training","adjacent","CD","3","4","R.jpg","O.jpg","1","1","1","",""
"","feedback","","html-keyboard-response","361","520794","0.0-1.0-501.0-0.0","0","0","78391","","null","","","null","55","","","","","","","","","","","","","","","",""
"","ITI","","html-keyboard-response","362","521805","0.0-1.0-504.0","0","0","78391","","null","","","null","55","","","","","","","","","","","","","","","NaN",""
"","S1","","html-keyboard-response","363","522063","0.0-1.0-506.0","0","0","78391","","null","","","null","56","","","","","","","","","","","","","","","",""
"","ISI","","html-keyboard-response","364","523073","0.0-1.0-507.0","0","0","78391","","null","","","null","56","NaN","","","","","","","","","","","","","","",""
"","S2","","html-keyboard-response","365","523330","0.0-1.0-508.0","0","0","78391","","null","","","null","56","","NaN","","","","","","","","","","","","","",""
"","response","","html-keyboard-response","366","523557","0.0-1.0-509.0-0.0","0","0","78391","","224","","","68","56","","","2","56","training","adjacent","EF","5","6","N.jpg","M.jpg","0","1","0","",""
"","feedback","","html-keyboard-response","367","524562","0.0-1.0-510.0-0.0","0","0","78391","","null","","","null","56","","","","","","","","","","","","","","","",""
"","time_out","","html-keyboard-response","368","526573","0.0-1.0-512.0-0.0","0","0","78391","","null","","","null","56","","","","","","","","","","","","","","","",""
"","ITI","","html-keyboard-response","369","527579","0.0-1.0-513.0","0","0","78391","","null","","","null","56","","","","","","","","","","","","","","","NaN",""
"","S1","","html-keyboard-response","370","527837","0.0-1.0-515.0","0","0","78391","","null","","","null","57","","","","","","","","","","","","","","","",""
"","ISI","","html-keyboard-response","371","528842","0.0-1.0-516.0","0","0","78391","","850","","","75","57","k","","","","","","","","","","","","","","",""
"","S2","","html-keyboard-response","372","529096","0.0-1.0-517.0","0","0","78391","","null","","","null","57","","NaN","","","","","","","","","","","","","",""
"","response","","html-keyboard-response","373","529151","0.0-1.0-518.0-0.0","0","0","78391","","52","","","75","57","","","2","57","training","adjacent","EF","5","6","N.jpg","M.jpg","1","1","1","",""
"","feedback","","html-keyboard-response","374","530163","0.0-1.0-519.0-0.0","0","0","78391","","null","","","null","57","","","","","","","","","","","","","","","",""
"","ITI","","html-keyboard-response","375","531170","0.0-1.0-522.0","0","0","78391","","null","","","null","57","","","","","","","","","","","","","","","NaN",""
"","S1","","html-keyboard-response","376","531430","0.0-1.0-524.0","0","0","78391","","null","","","null","58","","","","","","","","","","","","","","","",""
"","ISI","","html-keyboard-response","377","532435","0.0-1.0-525.0","0","0","78391","","null","","","null","58","NaN","","","","","","","","","","","","","","",""
"","S2","","html-keyboard-response","378","532690","0.0-1.0-526.0","0","0","78391","","null","","","null","58","","NaN","","","","","","","","","","","","","",""
"","response","","html-keyboard-response","379","532816","0.0-1.0-527.0-0.0","0","0","78391","","123","","","75","58","","","2","58","training","adjacent","CB","3","2","R.jpg","Q.jpg","1","0","0","",""
"","feedback","","html-keyboard-response","380","533828","0.0-1.0-528.0-0.0","0","0","78391","","null","","","null","58","","","","","","","","","","","","","","","",""
"","time_out","","html-keyboard-response","381","535836","0.0-1.0-530.0-0.0","0","0","78391","","null","","","null","58","","","","","","","","","","","","","","","",""
"","ITI","","html-keyboard-response","382","536841","0.0-1.0-531.0","0","0","78391","","null","","","null","58","","","","","","","","","","","","","","","NaN",""
"","S1","","html-keyboard-response","383","537097","0.0-1.0-533.0","0","0","78391","","null","","","null","59","","","","","","","","","","","","","","","",""
"","ISI","","html-keyboard-response","384","538106","0.0-1.0-534.0","0","0","78391","","null","","","null","59","NaN","","","","","","","","","","","","","","",""
"","S2","","html-keyboard-response","385","538244","0.0-1.0-535.0","0","0","78391","","136","","","68","59","","d","2","59","training","adjacent","FE","6","5","M.jpg","N.jpg","0","0","1","",""
"","feedback","","html-keyboard-response","386","539246","0.0-1.0-537.0-0.0","0","0","78391","","null","","","null","59","","","","","","","","","","","","","","","",""
"","ITI","","html-keyboard-response","387","540254","0.0-1.0-540.0","0","0","78391","","null","","","null","59","","","","","","","","","","","","","","","NaN",""
"","S1","","html-keyboard-response","388","540513","0.0-1.0-542.0","0","0","78391","","null","","","null","60","","","","","","","","","","","","","","","",""
"","ISI","","html-keyboard-response","389","541515","0.0-1.0-543.0","0","0","78391","","569","","","75","60","k","","","","","","","","","","","","","","",""
"","S2","","html-keyboard-response","390","541698","0.0-1.0-544.0","0","0","78391","","180","","","75","60","","k","2","60","training","adjacent","AB","1","2","L.jpg","Q.jpg","1","1","1","",""
"","feedback","","html-keyboard-response","391","542710","0.0-1.0-546.0-0.0","0","0","78391","","null","","","null","60","","","","","","","","","","","","","","","",""
"","ITI","","html-keyboard-response","392","543715","0.0-1.0-549.0","0","0","78391","","null","","","null","60","","","","","","","","","","","","","","","NaN",""
"","S1","","html-keyboard-response","393","543969","0.0-1.0-551.0","0","0","78391","","null","","","null","61","","","","","","","","","","","","","","","",""
"","ISI","","html-keyboard-response","394","544973","0.0-1.0-552.0","0","0","78391","","null","","","null","61","NaN","","","","","","","","","","","","","","",""
"","S2","","html-keyboard-response","395","545232","0.0-1.0-553.0","0","0","78391","","null","","","null","61","","NaN","","","","","","","","","","","","","",""
"","response","","html-keyboard-response","396","545319","0.0-1.0-554.0-0.0","0","0","78391","","85","","","75","61","","","2","61","training","adjacent","CD","3","4","R.jpg","O.jpg","1","1","1","",""
"","feedback","","html-keyboard-response","397","546331","0.0-1.0-555.0-0.0","0","0","78391","","null","","","null","61","","","","","","","","","","","","","","","",""
"","ITI","","html-keyboard-response","398","547342","0.0-1.0-558.0","0","0","78391","","null","","","null","61","","","","","","","","","","","","","","","NaN",""
"","S1","","html-keyboard-response","399","547599","0.0-1.0-560.0","0","0","78391","","null","","","null","62","","","","","","","","","","","","","","","",""
"","ISI","","html-keyboard-response","400","548602","0.0-1.0-561.0","0","0","78391","","null","","","null","62","NaN","","","","","","","","","","","","","","",""
"","S2","","html-keyboard-response","401","548857","0.0-1.0-562.0","0","0","78391","","null","","","null","62","","NaN","","","","","","","","","","","","","",""
"","response","","html-keyboard-response","402","549097","0.0-1.0-563.0-0.0","0","0","78391","","238","","","68","62","","","2","62","training","adjacent","CD","3","4","R.jpg","O.jpg","0","1","0","",""
"","feedback","","html-keyboard-response","403","550105","0.0-1.0-564.0-0.0","0","0","78391","","null","","","null","62","","","","","","","","","","","","","","","",""
"","time_out","","html-keyboard-response","404","552114","0.0-1.0-566.0-0.0","0","0","78391","","null","","","null","62","","","","","","","","","","","","","","","",""
"","ITI","","html-keyboard-response","405","553121","0.0-1.0-567.0","0","0","78391","","null","","","null","62","","","","","","","","","","","","","","","NaN",""
"","S1","","html-keyboard-response","406","553380","0.0-1.0-569.0","0","0","78391","","null","","","null","63","","","","","","","","","","","","","","","",""
"","ISI","","html-keyboard-response","407","554389","0.0-1.0-570.0","0","0","78391","","321","","","75","63","k","","","","","","","","","","","","","","",""
"","S2","","html-keyboard-response","408","554645","0.0-1.0-571.0","0","0","78391","","null","","","null","63","","NaN","","","","","","","","","","","","","",""
"","response","","html-keyboard-response","409","554760","0.0-1.0-572.0-0.0","0","0","78391","","113","","","75","63","","","2","63","training","adjacent","AB","1","2","L.jpg","Q.jpg","1","1","1","",""
"","feedback","","html-keyboard-response","410","555766","0.0-1.0-573.0-0.0","0","0","78391","","null","","","null","63","","","","","","","","","","","","","","","",""
"","ITI","","html-keyboard-response","411","556770","0.0-1.0-576.0","0","0","78391","","null","","","null","63","","","","","","","","","","","","","","","NaN",""
"","S1","","html-keyboard-response","412","557031","0.0-1.0-578.0","0","0","78391","","null","","","null","64","","","","","","","","","","","","","","","",""
"","ISI","","html-keyboard-response","413","558035","0.0-1.0-579.0","0","0","78391","","null","","","null","64","NaN","","","","","","","","","","","","","","",""
"","S2","","html-keyboard-response","414","558291","0.0-1.0-580.0","0","0","78391","","null","","","null","64","","NaN","","","","","","","","","","","","","",""
"","response","","html-keyboard-response","415","558903","0.0-1.0-581.0-0.0","0","0","78391","","609","","","68","64","","","2","64","training","adjacent","DE","4","5","O.jpg","N.jpg","0","1","0","",""
"","feedback","","html-keyboard-response","416","559916","0.0-1.0-582.0-0.0","0","0","78391","","null","","","null","64","","","","","","","","","","","","","","","",""
"","time_out","","html-keyboard-response","417","561925","0.0-1.0-584.0-0.0","0","0","78391","","null","","","null","64","","","","","","","","","","","","","","","",""
"","ITI","","html-keyboard-response","418","562931","0.0-1.0-585.0","0","0","78391","","null","","","null","64","","","","","","","","","","","","","","","NaN",""
"","S1","","html-keyboard-response","419","563186","0.0-1.0-587.0","0","0","78391","","null","","","null","65","","","","","","","","","","","","","","","",""
"","ISI","","html-keyboard-response","420","564194","0.0-1.0-588.0","0","0","78391","","null","","","null","65","NaN","","","","","","","","","","","","","","",""
"","S2","","html-keyboard-response","421","564448","0.0-1.0-589.0","0","0","78391","","null","","","null","65","","NaN","","","","","","","","","","","","","",""
"","response","","html-keyboard-response","422","564814","0.0-1.0-590.0-0.0","0","0","78391","","364","","","75","65","","","2","65","training","adjacent","DE","4","5","O.jpg","N.jpg","1","1","1","",""
"","feedback","","html-keyboard-response","423","565819","0.0-1.0-591.0-0.0","0","0","78391","","null","","","null","65","","","","","","","","","","","","","","","",""
"","ITI","","html-keyboard-response","424","566829","0.0-1.0-594.0","0","0","78391","","null","","","null","65","","","","","","","","","","","","","","","NaN",""
"","S1","","html-keyboard-response","425","567082","0.0-1.0-596.0","0","0","78391","","null","","","null","66","","","","","","","","","","","","","","","",""
"","ISI","","html-keyboard-response","426","568089","0.0-1.0-597.0","0","0","78391","","null","","","null","66","NaN","","","","","","","","","","","","","","",""
"","S2","","html-keyboard-response","427","568345","0.0-1.0-598.0","0","0","78391","","null","","","null","66","","NaN","","","","","","","","","","","","","",""
"","response","","html-keyboard-response","428","568539","0.0-1.0-599.0-0.0","0","0","78391","","191","","","75","66","","","2","66","training","adjacent","DE","4","5","O.jpg","N.jpg","1","1","1","",""
"","feedback","","html-keyboard-response","429","569546","0.0-1.0-600.0-0.0","0","0","78391","","null","","","null","66","","","","","","","","","","","","","","","",""
"","ITI","","html-keyboard-response","430","570550","0.0-1.0-603.0","0","0","78391","","null","","","null","66","","","","","","","","","","","","","","","NaN",""
"","S1","","html-keyboard-response","431","570812","0.0-1.0-605.0","0","0","78391","","null","","","null","67","","","","","","","","","","","","","","","",""
"","ISI","","html-keyboard-response","432","571816","0.0-1.0-606.0","0","0","78391","","null","","","null","67","NaN","","","","","","","","","","","","","","",""
"","S2","","html-keyboard-response","433","572070","0.0-1.0-607.0","0","0","78391","","null","","","null","67","","NaN","","","","","","","","","","","","","",""
"","response","","html-keyboard-response","434","572232","0.0-1.0-608.0-0.0","0","0","78391","","159","","","75","67","","","2","67","training","adjacent","FG","6","7","M.jpg","P.jpg","1","1","1","",""
"","feedback","","html-keyboard-response","435","573245","0.0-1.0-609.0-0.0","0","0","78391","","null","","","null","67","","","","","","","","","","","","","","","",""
"","ITI","","html-keyboard-response","436","574250","0.0-1.0-612.0","0","0","78391","","null","","","null","67","","","","","","","","","","","","","","","NaN",""
"","S1","","html-keyboard-response","437","574510","0.0-1.0-614.0","0","0","78391","","null","","","null","68","","","","","","","","","","","","","","","",""
"","ISI","","html-keyboard-response","438","575514","0.0-1.0-615.0","0","0","78391","","null","","","null","68","NaN","","","","","","","","","","","","","","",""
"","S2","","html-keyboard-response","439","575771","0.0-1.0-616.0","0","0","78391","","null","","","null","68","","NaN","","","","","","","","","","","","","",""
"","response","","html-keyboard-response","440","575915","0.0-1.0-617.0-0.0","0","0","78391","","141","","","68","68","","","2","68","training","adjacent","FG","6","7","M.jpg","P.jpg","0","1","0","",""
"","feedback","","html-keyboard-response","441","576918","0.0-1.0-618.0-0.0","0","0","78391","","null","","","null","68","","","","","","","","","","","","","","","",""
"","time_out","","html-keyboard-response","442","578922","0.0-1.0-620.0-0.0","0","0","78391","","null","","","null","68","","","","","","","","","","","","","","","",""
"","ITI","","html-keyboard-response","443","579933","0.0-1.0-621.0","0","0","78391","","null","","","null","68","","","","","","","","","","","","","","","NaN",""
"","S1","","html-keyboard-response","444","580187","0.0-1.0-623.0","0","0","78391","","null","","","null","69","","","","","","","","","","","","","","","",""
"","ISI","","html-keyboard-response","445","581199","0.0-1.0-624.0","0","0","78391","","239","","","75","69","k","","","","","","","","","","","","","","",""
"","S2","","html-keyboard-response","446","581459","0.0-1.0-625.0","0","0","78391","","null","","","null","69","","NaN","","","","","","","","","","","","","",""
"","response","","html-keyboard-response","447","581748","0.0-1.0-626.0-0.0","0","0","78391","","287","","","75","69","","","2","69","training","adjacent","EF","5","6","N.jpg","M.jpg","1","1","1","",""
"","feedback","","html-keyboard-response","448","582752","0.0-1.0-627.0-0.0","0","0","78391","","null","","","null","69","","","","","","","","","","","","","","","",""
"","ITI","","html-keyboard-response","449","583763","0.0-1.0-630.0","0","0","78391","","null","","","null","69","","","","","","","","","","","","","","","NaN",""
"","S1","","html-keyboard-response","450","584017","0.0-1.0-632.0","0","0","78391","","null","","","null","70","","","","","","","","","","","","","","","",""
"","ISI","","html-keyboard-response","451","585029","0.0-1.0-633.0","0","0","78391","","null","","","null","70","NaN","","","","","","","","","","","","","","",""
"","S2","","html-keyboard-response","452","585286","0.0-1.0-634.0","0","0","78391","","null","","","null","70","","NaN","","","","","","","","","","","","","",""
"","response","","html-keyboard-response","453","585956","0.0-1.0-635.0-0.0","0","0","78391","","668","","","75","70","","","2","70","training","adjacent","FE","6","5","M.jpg","N.jpg","1","0","0","",""
"","feedback","","html-keyboard-response","454","586962","0.0-1.0-636.0-0.0","0","0","78391","","null","","","null","70","","","","","","","","","","","","","","","",""
"","time_out","","html-keyboard-response","455","588969","0.0-1.0-638.0-0.0","0","0","78391","","null","","","null","70","","","","","","","","","","","","","","","",""
"","ITI","","html-keyboard-response","456","589981","0.0-1.0-639.0","0","0","78391","","null","","","null","70","","","","","","","","","","","","","","","NaN",""
"","S1","","html-keyboard-response","457","590235","0.0-1.0-641.0","0","0","78391","","null","","","null","71","","","","","","","","","","","","","","","",""
"","ISI","","html-keyboard-response","458","591246","0.0-1.0-642.0","0","0","78391","","null","","","null","71","NaN","","","","","","","","","","","","","","",""
"","S2","","html-keyboard-response","459","591503","0.0-1.0-643.0","0","0","78391","","null","","","null","71","","NaN","","","","","","","","","","","","","",""
"","response","","html-keyboard-response","460","591687","0.0-1.0-644.0-0.0","0","0","78391","","183","","","75","71","","","2","71","training","adjacent","AB","1","2","L.jpg","Q.jpg","1","1","1","",""
"","feedback","","html-keyboard-response","461","592691","0.0-1.0-645.0-0.0","0","0","78391","","null","","","null","71","","","","","","","","","","","","","","","",""
"","ITI","","html-keyboard-response","462","593702","0.0-1.0-648.0","0","0","78391","","null","","","null","71","","","","","","","","","","","","","","","NaN",""
"","S1","","html-keyboard-response","463","593963","0.0-1.0-650.0","0","0","78391","","null","","","null","72","","","","","","","","","","","","","","","",""
"","ISI","","html-keyboard-response","464","594968","0.0-1.0-651.0","0","0","78391","","null","","","null","72","NaN","","","","","","","","","","","","","","",""
"","S2","","html-keyboard-response","465","595228","0.0-1.0-652.0","0","0","78391","","null","","","null","72","","NaN","","","","","","","","","","","","","",""
"","response","","html-keyboard-response","466","595468","0.0-1.0-653.0-0.0","0","0","78391","","238","","","68","72","","","2","72","training","adjacent","ED","5","4","N.jpg","O.jpg","0","0","1","",""
"","feedback","","html-keyboard-response","467","596476","0.0-1.0-654.0-0.0","0","0","78391","","null","","","null","72","","","","","","","","","","","","","","","",""
"","ITI","","html-keyboard-response","468","597485","0.0-1.0-657.0","0","0","78391","","null","","","null","72","","","","","","","","","","","","","","","NaN",""
"","S1","","html-keyboard-response","469","597742","0.0-1.0-659.0","0","0","78391","","null","","","null","73","","","","","","","","","","","","","","","",""
"","ISI","","html-keyboard-response","470","598747","0.0-1.0-660.0","0","0","78391","","null","","","null","73","NaN","","","","","","","","","","","","","","",""
"","S2","","html-keyboard-response","471","599001","0.0-1.0-661.0","0","0","78391","","null","","","null","73","","NaN","","","","","","","","","","","","","",""
"","response","","html-keyboard-response","472","599217","0.0-1.0-662.0-0.0","0","0","78391","","214","","","75","73","","","2","73","training","adjacent","FG","6","7","M.jpg","P.jpg","1","1","1","",""
"","feedback","","html-keyboard-response","473","600227","0.0-1.0-663.0-0.0","0","0","78391","","null","","","null","73","","","","","","","","","","","","","","","",""
"","ITI","","html-keyboard-response","474","601236","0.0-1.0-666.0","0","0","78391","","null","","","null","73","","","","","","","","","","","","","","","NaN",""
"","S1","","html-keyboard-response","475","601493","0.0-1.0-668.0","0","0","78391","","null","","","null","74","","","","","","","","","","","","","","","",""
"","ISI","","html-keyboard-response","476","602502","0.0-1.0-669.0","0","0","78391","","null","","","null","74","NaN","","","","","","","","","","","","","","",""
"","S2","","html-keyboard-response","477","602764","0.0-1.0-670.0","0","0","78391","","null","","","null","74","","NaN","","","","","","","","","","","","","",""
"","response","","html-keyboard-response","478","603125","0.0-1.0-671.0-0.0","0","0","78391","","360","","","75","74","","","2","74","training","adjacent","DC","4","3","O.jpg","R.jpg","1","0","0","",""
"","feedback","","html-keyboard-response","479","604135","0.0-1.0-672.0-0.0","0","0","78391","","null","","","null","74","","","","","","","","","","","","","","","",""
"","time_out","","html-keyboard-response","480","606142","0.0-1.0-674.0-0.0","0","0","78391","","null","","","null","74","","","","","","","","","","","","","","","",""
"","ITI","","html-keyboard-response","481","607146","0.0-1.0-675.0","0","0","78391","","null","","","null","74","","","","","","","","","","","","","","","NaN",""
"","S1","","html-keyboard-response","482","607403","0.0-1.0-677.0","0","0","78391","","null","","","null","75","","","","","","","","","","","","","","","",""
"","ISI","","html-keyboard-response","483","608412","0.0-1.0-678.0","0","0","78391","","null","","","null","75","NaN","","","","","","","","","","","","","","",""
"","S2","","html-keyboard-response","484","608671","0.0-1.0-679.0","0","0","78391","","null","","","null","75","","NaN","","","","","","","","","","","","","",""
"","response","","html-keyboard-response","485","609250","0.0-1.0-680.0-0.0","0","0","78391","","576","","","68","75","","","2","75","training","adjacent","GF","7","6","P.jpg","M.jpg","0","0","1","",""
"","feedback","","html-keyboard-response","486","610253","0.0-1.0-681.0-0.0","0","0","78391","","null","","","null","75","","","","","","","","","","","","","","","",""
"","ITI","","html-keyboard-response","487","611262","0.0-1.0-684.0","0","0","78391","","null","","","null","75","","","","","","","","","","","","","","","NaN",""
"","S1","","html-keyboard-response","488","611521","0.0-1.0-686.0","0","0","78391","","null","","","null","76","","","","","","","","","","","","","","","",""
"","ISI","","html-keyboard-response","489","612534","0.0-1.0-687.0","0","0","78391","","null","","","null","76","NaN","","","","","","","","","","","","","","",""
"","S2","","html-keyboard-response","490","612788","0.0-1.0-688.0","0","0","78391","","null","","","null","76","","NaN","","","","","","","","","","","","","",""
"","response","","html-keyboard-response","491","613002","0.0-1.0-689.0-0.0","0","0","78391","","211","","","75","76","","","2","76","training","adjacent","CB","3","2","R.jpg","Q.jpg","1","0","0","",""
"","feedback","","html-keyboard-response","492","614014","0.0-1.0-690.0-0.0","0","0","78391","","null","","","null","76","","","","","","","","","","","","","","","",""
"","time_out","","html-keyboard-response","493","616021","0.0-1.0-692.0-0.0","0","0","78391","","null","","","null","76","","","","","","","","","","","","","","","",""
"","ITI","","html-keyboard-response","494","617027","0.0-1.0-693.0","0","0","78391","","null","","","null","76","","","","","","","","","","","","","","","NaN",""
"","S1","","html-keyboard-response","495","617286","0.0-1.0-695.0","0","0","78391","","null","","","null","77","","","","","","","","","","","","","","","",""
"","ISI","","html-keyboard-response","496","618292","0.0-1.0-696.0","0","0","78391","","null","","","null","77","NaN","","","","","","","","","","","","","","",""
"","S2","","html-keyboard-response","497","618548","0.0-1.0-697.0","0","0","78391","","null","","","null","77","","NaN","","","","","","","","","","","","","",""
"","response","","html-keyboard-response","498","619315","0.0-1.0-698.0-0.0","0","0","78391","","765","","","68","77","","","2","77","training","adjacent","ED","5","4","N.jpg","O.jpg","0","0","1","",""
"","feedback","","html-keyboard-response","499","620321","0.0-1.0-699.0-0.0","0","0","78391","","null","","","null","77","","","","","","","","","","","","","","","",""
"","ITI","","html-keyboard-response","500","621335","0.0-1.0-702.0","0","0","78391","","null","","","null","77","","","","","","","","","","","","","","","NaN",""
"","S1","","html-keyboard-response","501","621589","0.0-1.0-704.0","0","0","78391","","null","","","null","78","","","","","","","","","","","","","","","",""
"","ISI","","html-keyboard-response","502","622600","0.0-1.0-705.0","0","0","78391","","null","","","null","78","NaN","","","","","","","","","","","","","","",""
"","S2","","html-keyboard-response","503","622855","0.0-1.0-706.0","0","0","78391","","null","","","null","78","","NaN","","","","","","","","","","","","","",""
"","response","","html-keyboard-response","504","623366","0.0-1.0-707.0-0.0","0","0","78391","","508","","","75","78","","","2","78","training","adjacent","ED","5","4","N.jpg","O.jpg","1","0","0","",""
"","feedback","","html-keyboard-response","505","624371","0.0-1.0-708.0-0.0","0","0","78391","","null","","","null","78","","","","","","","","","","","","","","","",""
"","time_out","","html-keyboard-response","506","626379","0.0-1.0-710.0-0.0","0","0","78391","","null","","","null","78","","","","","","","","","","","","","","","",""
"","ITI","","html-keyboard-response","507","627388","0.0-1.0-711.0","0","0","78391","","null","","","null","78","","","","","","","","","","","","","","","NaN",""
"","S1","","html-keyboard-response","508","627645","0.0-1.0-713.0","0","0","78391","","null","","","null","79","","","","","","","","","","","","","","","",""
"","ISI","","html-keyboard-response","509","628651","0.0-1.0-714.0","0","0","78391","","null","","","null","79","NaN","","","","","","","","","","","","","","",""
"","S2","","html-keyboard-response","510","628904","0.0-1.0-715.0","0","0","78391","","null","","","null","79","","NaN","","","","","","","","","","","","","",""
"","response","","html-keyboard-response","511","629171","0.0-1.0-716.0-0.0","0","0","78391","","265","","","75","79","","","2","79","training","adjacent","FE","6","5","M.jpg","N.jpg","1","0","0","",""
"","feedback","","html-keyboard-response","512","630181","0.0-1.0-717.0-0.0","0","0","78391","","null","","","null","79","","","","","","","","","","","","","","","",""
"","time_out","","html-keyboard-response","513","632189","0.0-1.0-719.0-0.0","0","0","78391","","null","","","null","79","","","","","","","","","","","","","","","",""
"","ITI","","html-keyboard-response","514","633200","0.0-1.0-720.0","0","0","78391","","null","","","null","79","","","","","","","","","","","","","","","NaN",""
"","S1","","html-keyboard-response","515","633455","0.0-1.0-722.0","0","0","78391","","null","","","null","80","","","","","","","","","","","","","","","",""
"","ISI","","html-keyboard-response","516","634459","0.0-1.0-723.0","0","0","78391","","null","","","null","80","NaN","","","","","","","","","","","","","","",""
"","S2","","html-keyboard-response","517","634715","0.0-1.0-724.0","0","0","78391","","null","","","null","80","","NaN","","","","","","","","","","","","","",""
"","response","","html-keyboard-response","518","634815","0.0-1.0-725.0-0.0","0","0","78391","","98","","","68","80","","","2","80","training","adjacent","FE","6","5","M.jpg","N.jpg","0","0","1","",""
"","feedback","","html-keyboard-response","519","635821","0.0-1.0-726.0-0.0","0","0","78391","","null","","","null","80","","","","","","","","","","","","","","","",""
"","ITI","","html-keyboard-response","520","636828","0.0-1.0-729.0","0","0","78391","","null","","","null","80","","","","","","","","","","","","","","","NaN",""
"","S1","","html-keyboard-response","521","637084","0.0-1.0-731.0","0","0","78391","","null","","","null","81","","","","","","","","","","","","","","","",""
"","ISI","","html-keyboard-response","522","638089","0.0-1.0-732.0","0","0","78391","","null","","","null","81","NaN","","","","","","","","","","","","","","",""
"","S2","","html-keyboard-response","523","638349","0.0-1.0-733.0","0","0","78391","","null","","","null","81","","NaN","","","","","","","","","","","","","",""
"","response","","html-keyboard-response","524","638558","0.0-1.0-734.0-0.0","0","0","78391","","207","","","75","81","","","2","81","training","adjacent","BC","2","3","Q.jpg","R.jpg","1","1","1","",""
"","feedback","","html-keyboard-response","525","639568","0.0-1.0-735.0-0.0","0","0","78391","","null","","","null","81","","","","","","","","","","","","","","","",""
"","ITI","","html-keyboard-response","526","640573","0.0-1.0-738.0","0","0","78391","","null","","","null","81","","","","","","","","","","","","","","","NaN",""
"","S1","","html-keyboard-response","527","640828","0.0-1.0-740.0","0","0","78391","","null","","","null","82","","","","","","","","","","","","","","","",""
"","ISI","","html-keyboard-response","528","641838","0.0-1.0-741.0","0","0","78391","","null","","","null","82","NaN","","","","","","","","","","","","","","",""
"","S2","","html-keyboard-response","529","642093","0.0-1.0-742.0","0","0","78391","","null","","","null","82","","NaN","","","","","","","","","","","","","",""
"","response","","html-keyboard-response","530","642188","0.0-1.0-743.0-0.0","0","0","78391","","93","","","68","82","","","2","82","training","adjacent","ED","5","4","N.jpg","O.jpg","0","0","1","",""
"","feedback","","html-keyboard-response","531","643196","0.0-1.0-744.0-0.0","0","0","78391","","null","","","null","82","","","","","","","","","","","","","","","",""
"","ITI","","html-keyboard-response","532","644207","0.0-1.0-747.0","0","0","78391","","null","","","null","82","","","","","","","","","","","","","","","NaN",""
"","S1","","html-keyboard-response","533","644470","0.0-1.0-749.0","0","0","78391","","null","","","null","83","","","","","","","","","","","","","","","",""
"","ISI","","html-keyboard-response","534","645477","0.0-1.0-750.0","0","0","78391","","null","","","null","83","NaN","","","","","","","","","","","","","","",""
"","S2","","html-keyboard-response","535","645733","0.0-1.0-751.0","0","0","78391","","null","","","null","83","","NaN","","","","","","","","","","","","","",""
"","response","","html-keyboard-response","536","647491","0.0-1.0-752.0-0.0","0","0","78391","","null","","","null","83","","","2","83","training","adjacent","CB","3","2","R.jpg","Q.jpg","NaN","0","0","",""
"","too_slow_prompt","","html-keyboard-response","537","648502","0.0-1.0-754.0-0.0","1","0","78391","","null","","","null","","","","","","","","","","","","","","","","",""
"","time_out","","html-keyboard-response","538","650506","0.0-1.0-755.0-0.0","0","0","78391","","null","","","null","83","","","","","","","","","","","","","","","",""
"","ITI","","html-keyboard-response","539","651516","0.0-1.0-756.0","0","0","78391","","null","","","null","83","","","","","","","","","","","","","","","NaN",""
"","S1","","html-keyboard-response","540","651773","0.0-1.0-758.0","0","0","78391","","null","","","null","84","","","","","","","","","","","","","","","",""
"","ISI","","html-keyboard-response","541","652780","0.0-1.0-759.0","0","0","78391","","null","","","null","84","NaN","","","","","","","","","","","","","","",""
"","S2","","html-keyboard-response","542","653036","0.0-1.0-760.0","0","0","78391","","null","","","null","84","","NaN","","","","","","","","","","","","","",""
"","response","","html-keyboard-response","543","654599","0.0-1.0-761.0-0.0","0","0","78391","","1561","","","75","84","","","2","84","training","adjacent","BA","2","1","Q.jpg","L.jpg","1","0","0","",""
"","feedback","","html-keyboard-response","544","655608","0.0-1.0-762.0-0.0","0","0","78391","","null","","","null","84","","","","","","","","","","","","","","","",""
"","time_out","","html-keyboard-response","545","657616","0.0-1.0-764.0-0.0","0","0","78391","","null","","","null","84","","","","","","","","","","","","","","","",""
"","ITI","","html-keyboard-response","546","658620","0.0-1.0-765.0","0","0","78391","","null","","","null","84","","","","","","","","","","","","","","","NaN",""
"","S1","","html-keyboard-response","547","658873","0.0-1.0-767.0","0","0","78391","","null","","","null","85","","","","","","","","","","","","","","","",""
"","ISI","","html-keyboard-response","548","659877","0.0-1.0-768.0","0","0","78391","","null","","","null","85","NaN","","","","","","","","","","","","","","",""
"","S2","","html-keyboard-response","549","660135","0.0-1.0-769.0","0","0","78391","","null","","","null","85","","NaN","","","","","","","","","","","","","",""
"","response","","html-keyboard-response","550","661308","0.0-1.0-770.0-0.0","0","0","78391","","1171","","","75","85","","","2","85","training","adjacent","AB","1","2","L.jpg","Q.jpg","1","1","1","",""
"","feedback","","html-keyboard-response","551","662319","0.0-1.0-771.0-0.0","0","0","78391","","null","","","null","85","","","","","","","","","","","","","","","",""
"","ITI","","html-keyboard-response","552","663325","0.0-1.0-774.0","0","0","78391","","null","","","null","85","","","","","","","","","","","","","","","NaN",""
"","S1","","html-keyboard-response","553","663582","0.0-1.0-776.0","0","0","78391","","null","","","null","86","","","","","","","","","","","","","","","",""
"","ISI","","html-keyboard-response","554","664588","0.0-1.0-777.0","0","0","78391","","null","","","null","86","NaN","","","","","","","","","","","","","","",""
"","S2","","html-keyboard-response","555","664842","0.0-1.0-778.0","0","0","78391","","null","","","null","86","","NaN","","","","","","","","","","","","","",""
"","response","","html-keyboard-response","556","665715","0.0-1.0-779.0-0.0","0","0","78391","","870","","","68","86","","","2","86","training","adjacent","DC","4","3","O.jpg","R.jpg","0","0","1","",""
"","feedback","","html-keyboard-response","557","666724","0.0-1.0-780.0-0.0","0","0","78391","","null","","","null","86","","","","","","","","","","","","","","","",""
"","ITI","","html-keyboard-response","558","667736","0.0-1.0-783.0","0","0","78391","","null","","","null","86","","","","","","","","","","","","","","","NaN",""
"","S1","","html-keyboard-response","559","667992","0.0-1.0-785.0","0","0","78391","","null","","","null","87","","","","","","","","","","","","","","","",""
"","ISI","","html-keyboard-response","560","669000","0.0-1.0-786.0","0","0","78391","","null","","","null","87","NaN","","","","","","","","","","","","","","",""
"","S2","","html-keyboard-response","561","669259","0.0-1.0-787.0","0","0","78391","","null","","","null","87","","NaN","","","","","","","","","","","","","",""
"","response","","html-keyboard-response","562","669509","0.0-1.0-788.0-0.0","0","0","78391","","248","","","75","87","","","2","87","training","adjacent","EF","5","6","N.jpg","M.jpg","1","1","1","",""
"","feedback","","html-keyboard-response","563","670521","0.0-1.0-789.0-0.0","0","0","78391","","null","","","null","87","","","","","","","","","","","","","","","",""
"","ITI","","html-keyboard-response","564","671525","0.0-1.0-792.0","0","0","78391","","null","","","null","87","","","","","","","","","","","","","","","NaN",""
"","S1","","html-keyboard-response","565","671780","0.0-1.0-794.0","0","0","78391","","null","","","null","88","","","","","","","","","","","","","","","",""
"","ISI","","html-keyboard-response","566","672791","0.0-1.0-795.0","0","0","78391","","null","","","null","88","NaN","","","","","","","","","","","","","","",""
"","S2","","html-keyboard-response","567","673045","0.0-1.0-796.0","0","0","78391","","null","","","null","88","","NaN","","","","","","","","","","","","","",""
"","response","","html-keyboard-response","568","673082","0.0-1.0-797.0-0.0","0","0","78391","","34","","","75","88","","","2","88","training","adjacent","BC","2","3","Q.jpg","R.jpg","1","1","1","",""
"","feedback","","html-keyboard-response","569","674094","0.0-1.0-798.0-0.0","0","0","78391","","null","","","null","88","","","","","","","","","","","","","","","",""
"","ITI","","html-keyboard-response","570","675101","0.0-1.0-801.0","0","0","78391","","null","","","null","88","","","","","","","","","","","","","","","NaN",""
"","S1","","html-keyboard-response","571","675357","0.0-1.0-803.0","0","0","78391","","null","","","null","89","","","","","","","","","","","","","","","",""
"","ISI","","html-keyboard-response","572","676360","0.0-1.0-804.0","0","0","78391","","392","","","75","89","k","","","","","","","","","","","","","","",""
"","S2","","html-keyboard-response","573","676622","0.0-1.0-805.0","0","0","78391","","null","","","null","89","","NaN","","","","","","","","","","","","","",""
"","response","","html-keyboard-response","574","677037","0.0-1.0-806.0-0.0","0","0","78391","","412","","","75","89","","","2","89","training","adjacent","GF","7","6","P.jpg","M.jpg","1","0","0","",""
"","feedback","","html-keyboard-response","575","678044","0.0-1.0-807.0-0.0","0","0","78391","","null","","","null","89","","","","","","","","","","","","","","","",""
"","time_out","","html-keyboard-response","576","680053","0.0-1.0-809.0-0.0","0","0","78391","","null","","","null","89","","","","","","","","","","","","","","","",""
"","ITI","","html-keyboard-response","577","681059","0.0-1.0-810.0","0","0","78391","","null","","","null","89","","","","","","","","","","","","","","","NaN",""
"","S1","","html-keyboard-response","578","681319","0.0-1.0-812.0","0","0","78391","","null","","","null","90","","","","","","","","","","","","","","","",""
"","ISI","","html-keyboard-response","579","682326","0.0-1.0-813.0","0","0","78391","","274","","","75","90","k","","","","","","","","","","","","","","",""
"","S2","","html-keyboard-response","580","682582","0.0-1.0-814.0","0","0","78391","","null","","","null","90","","NaN","","","","","","","","","","","","","",""
"","response","","html-keyboard-response","581","682985","0.0-1.0-815.0-0.0","0","0","78391","","401","","","75","90","","","2","90","training","adjacent","BC","2","3","Q.jpg","R.jpg","1","1","1","",""
"","feedback","","html-keyboard-response","582","683994","0.0-1.0-816.0-0.0","0","0","78391","","null","","","null","90","","","","","","","","","","","","","","","",""
