"success","ttype","start_time","trial_type","trial_index","time_elapsed","internal_node_id","warning","missed_checkup","PID","view_history","rt","responses","repeat_instructions","key_press","index","keypress_isi","keypress_S2","block","trial_num","phase","group_type","pair_type","S1_stim","S2_stim","S1_img","S2_img","S1_chosen","S1_higher","accuracy","keypress_iti","total_bonus_tally"
"true","full_screen","d08052022hr1257","fullscreen","0","8471","0.0-0.0","0","0","13464","","","","","","","","","","","","","","","","","","","","","",""
"","instructions","","instructions","1","61982","0.0-1.0-0.0-0.0","0","0","13464","[{""page_index"":0,""viewing_time"":4913},{""page_index"":1,""viewing_time"":27670},{""page_index"":2,""viewing_time"":18438},{""page_index"":3,""viewing_time"":2484}]","53505","","","","","","","","","","","","","","","","","","","",""
"","comprehension_check","","survey-multi-choice","2","82677","0.0-1.0-0.0-1.0","0","0","13464","","20688","{""Q0"":""True"",""Q1"":""D"",""Q2"":""Once the second image appears and while the screen 'MAKE A CHOICE' is shown"",""Q3"":""Green mark"",""Q4"":""either D or K""}","0","","","","","","","","","","","","","","","","","",""
"","start_exp","","html-keyboard-response","3","85798","0.0-1.0-1.0","0","0","13464","","3117","","","32","","","","","","","","","","","","","","","","",""
"","S1","","html-keyboard-response","4","86058","0.0-1.0-2.0","0","0","13464","","null","","","null","0","","","","","","","","","","","","","","","",""
"","ISI","","html-keyboard-response","5","88064","0.0-1.0-3.0","0","0","13464","","null","","","null","0","NaN","","","","","","","","","","","","","","",""
"","S2","","html-keyboard-response","6","88323","0.0-1.0-4.0","0","0","13464","","null","","","null","0","","NaN","","","","","","","","","","","","","",""
"","response","","html-keyboard-response","7","88974","0.0-1.0-5.0-0.0","0","0","13464","","648","","","68","0","","","1","0","training","adjacent","CB","3","2","O.jpg","R.jpg","1","0","0","",""
"","feedback","","html-keyboard-response","8","89984","0.0-1.0-6.0-0.0","0","0","13464","","null","","","null","0","","","","","","","","","","","","","","","",""
"","time_out","","html-keyboard-response","9","91990","0.0-1.0-8.0-0.0","0","0","13464","","null","","","null","0","","","","","","","","","","","","","","","",""
"","ITI","","html-keyboard-response","10","92998","0.0-1.0-9.0","0","0","13464","","null","","","null","0","","","","","","","","","","","","","","","NaN",""
"","S1","","html-keyboard-response","11","93256","0.0-1.0-11.0","0","0","13464","","null","","","null","1","","","","","","","","","","","","","","","",""
"","ISI","","html-keyboard-response","12","95263","0.0-1.0-12.0","0","0","13464","","null","","","null","1","NaN","","","","","","","","","","","","","","",""
"","S2","","html-keyboard-response","13","95522","0.0-1.0-13.0","0","0","13464","","null","","","null","1","","NaN","","","","","","","","","","","","","",""
"","response","","html-keyboard-response","14","96027","0.0-1.0-14.0-0.0","0","0","13464","","500","","","75","1","","","1","1","training","adjacent","CD","3","4","O.jpg","L.jpg","0","1","0","",""
"","feedback","","html-keyboard-response","15","97033","0.0-1.0-15.0-0.0","0","0","13464","","null","","","null","1","","","","","","","","","","","","","","","",""
"","time_out","","html-keyboard-response","16","99038","0.0-1.0-17.0-0.0","0","0","13464","","null","","","null","1","","","","","","","","","","","","","","","",""
"","ITI","","html-keyboard-response","17","100047","0.0-1.0-18.0","0","0","13464","","null","","","null","1","","","","","","","","","","","","","","","NaN",""
"","S1","","html-keyboard-response","18","100301","0.0-1.0-20.0","0","0","13464","","null","","","null","2","","","","","","","","","","","","","","","",""
"","ISI","","html-keyboard-response","19","102309","0.0-1.0-21.0","0","0","13464","","null","","","null","2","NaN","","","","","","","","","","","","","","",""
"","S2","","html-keyboard-response","20","102569","0.0-1.0-22.0","0","0","13464","","null","","","null","2","","NaN","","","","","","","","","","","","","",""
"","response","","html-keyboard-response","21","103208","0.0-1.0-23.0-0.0","0","0","13464","","637","","","75","2","","","1","2","training","adjacent","CB","3","2","O.jpg","R.jpg","0","0","1","",""
"","feedback","","html-keyboard-response","22","104215","0.0-1.0-24.0-0.0","0","0","13464","","null","","","null","2","","","","","","","","","","","","","","","",""
"","ITI","","html-keyboard-response","23","105222","0.0-1.0-27.0","0","0","13464","","null","","","null","2","","","","","","","","","","","","","","","NaN",""
"","S1","","html-keyboard-response","24","105480","0.0-1.0-29.0","0","0","13464","","null","","","null","3","","","","","","","","","","","","","","","",""
"","ISI","","html-keyboard-response","25","107486","0.0-1.0-30.0","0","0","13464","","null","","","null","3","NaN","","","","","","","","","","","","","","",""
"","S2","","html-keyboard-response","26","107745","0.0-1.0-31.0","0","0","13464","","null","","","null","3","","NaN","","","","","","","","","","","","","",""
"","response","","html-keyboard-response","27","108242","0.0-1.0-32.0-0.0","0","0","13464","","494","","","68","3","","","1","3","training","adjacent","ED","5","4","N.jpg","L.jpg","1","0","0","",""
"","feedback","","html-keyboard-response","28","109250","0.0-1.0-33.0-0.0","0","0","13464","","null","","","null","3","","","","","","","","","","","","","","","",""
"","time_out","","html-keyboard-response","29","111258","0.0-1.0-35.0-0.0","0","0","13464","","null","","","null","3","","","","","","","","","","","","","","","",""
"","ITI","","html-keyboard-response","30","112261","0.0-1.0-36.0","0","0","13464","","null","","","null","3","","","","","","","","","","","","","","","NaN",""
"","S1","","html-keyboard-response","31","112520","0.0-1.0-38.0","0","0","13464","","null","","","null","4","","","","","","","","","","","","","","","",""
"","ISI","","html-keyboard-response","32","114529","0.0-1.0-39.0","0","0","13464","","null","","","null","4","NaN","","","","","","","","","","","","","","",""
"","S2","","html-keyboard-response","33","114783","0.0-1.0-40.0","0","0","13464","","null","","","null","4","","NaN","","","","","","","","","","","","","",""
"","response","","html-keyboard-response","34","115438","0.0-1.0-41.0-0.0","0","0","13464","","652","","","75","4","","","1","4","training","adjacent","GF","7","6","M.jpg","P.jpg","0","0","1","",""
"","feedback","","html-keyboard-response","35","116445","0.0-1.0-42.0-0.0","0","0","13464","","null","","","null","4","","","","","","","","","","","","","","","",""
"","ITI","","html-keyboard-response","36","117451","0.0-1.0-45.0","0","0","13464","","null","","","null","4","","","","","","","","","","","","","","","NaN",""
"","S1","","html-keyboard-response","37","117709","0.0-1.0-47.0","0","0","13464","","null","","","null","5","","","","","","","","","","","","","","","",""
"","ISI","","html-keyboard-response","38","119717","0.0-1.0-48.0","0","0","13464","","null","","","null","5","NaN","","","","","","","","","","","","","","",""
"","S2","","html-keyboard-response","39","119975","0.0-1.0-49.0","0","0","13464","","null","","","null","5","","NaN","","","","","","","","","","","","","",""
"","response","","html-keyboard-response","40","120667","0.0-1.0-50.0-0.0","0","0","13464","","688","","","75","5","","","1","5","training","adjacent","AB","1","2","Q.jpg","R.jpg","0","1","0","",""
"","feedback","","html-keyboard-response","41","121675","0.0-1.0-51.0-0.0","0","0","13464","","null","","","null","5","","","","","","","","","","","","","","","",""
"","time_out","","html-keyboard-response","42","123678","0.0-1.0-53.0-0.0","0","0","13464","","null","","","null","5","","","","","","","","","","","","","","","",""
"","ITI","","html-keyboard-response","43","124687","0.0-1.0-54.0","0","0","13464","","null","","","null","5","","","","","","","","","","","","","","","NaN",""
"","S1","","html-keyboard-response","44","124943","0.0-1.0-56.0","0","0","13464","","null","","","null","6","","","","","","","","","","","","","","","",""
"","ISI","","html-keyboard-response","45","126951","0.0-1.0-57.0","0","0","13464","","null","","","null","6","NaN","","","","","","","","","","","","","","",""
"","S2","","html-keyboard-response","46","127209","0.0-1.0-58.0","0","0","13464","","null","","","null","6","","NaN","","","","","","","","","","","","","",""
"","response","","html-keyboard-response","47","127962","0.0-1.0-59.0-0.0","0","0","13464","","749","","","68","6","","","1","6","training","adjacent","CD","3","4","O.jpg","L.jpg","1","1","1","",""
"","feedback","","html-keyboard-response","48","128968","0.0-1.0-60.0-0.0","0","0","13464","","null","","","null","6","","","","","","","","","","","","","","","",""
"","ITI","","html-keyboard-response","49","129975","0.0-1.0-63.0","0","0","13464","","null","","","null","6","","","","","","","","","","","","","","","NaN",""
"","S1","","html-keyboard-response","50","130229","0.0-1.0-65.0","0","0","13464","","null","","","null","7","","","","","","","","","","","","","","","",""
"","ISI","","html-keyboard-response","51","132236","0.0-1.0-66.0","0","0","13464","","null","","","null","7","NaN","","","","","","","","","","","","","","",""
"","S2","","html-keyboard-response","52","132492","0.0-1.0-67.0","0","0","13464","","null","","","null","7","","NaN","","","","","","","","","","","","","",""
"","response","","html-keyboard-response","53","133166","0.0-1.0-68.0-0.0","0","0","13464","","672","","","68","7","","","1","7","training","adjacent","CD","3","4","O.jpg","L.jpg","1","1","1","",""
"","feedback","","html-keyboard-response","54","134174","0.0-1.0-69.0-0.0","0","0","13464","","null","","","null","7","","","","","","","","","","","","","","","",""
"","ITI","","html-keyboard-response","55","135178","0.0-1.0-72.0","0","0","13464","","null","","","null","7","","","","","","","","","","","","","","","NaN",""
"","S1","","html-keyboard-response","56","135434","0.0-1.0-74.0","0","0","13464","","null","","","null","8","","","","","","","","","","","","","","","",""
"","ISI","","html-keyboard-response","57","137443","0.0-1.0-75.0","0","0","13464","","null","","","null","8","NaN","","","","","","","","","","","","","","",""
"","S2","","html-keyboard-response","58","137701","0.0-1.0-76.0","0","0","13464","","null","","","null","8","","NaN","","","","","","","","","","","","","",""
"","response","","html-keyboard-response","59","138544","0.0-1.0-77.0-0.0","0","0","13464","","841","","","68","8","","","1","8","training","adjacent","FE","6","5","P.jpg","N.jpg","1","0","0","",""
"","feedback","","html-keyboard-response","60","139551","0.0-1.0-78.0-0.0","0","0","13464","","null","","","null","8","","","","","","","","","","","","","","","",""
"","time_out","","html-keyboard-response","61","141560","0.0-1.0-80.0-0.0","0","0","13464","","null","","","null","8","","","","","","","","","","","","","","","",""
"","ITI","","html-keyboard-response","62","142567","0.0-1.0-81.0","0","0","13464","","null","","","null","8","","","","","","","","","","","","","","","NaN",""
"","S1","","html-keyboard-response","63","142825","0.0-1.0-83.0","0","0","13464","","null","","","null","9","","","","","","","","","","","","","","","",""
"","ISI","","html-keyboard-response","64","144830","0.0-1.0-84.0","0","0","13464","","null","","","null","9","NaN","","","","","","","","","","","","","","",""
"","S2","","html-keyboard-response","65","145088","0.0-1.0-85.0","0","0","13464","","null","","","null","9","","NaN","","","","","","","","","","","","","",""
"","response","","html-keyboard-response","66","145980","0.0-1.0-86.0-0.0","0","0","13464","","888","","","68","9","","","1","9","training","adjacent","GF","7","6","M.jpg","P.jpg","1","0","0","",""
"","feedback","","html-keyboard-response","67","146984","0.0-1.0-87.0-0.0","0","0","13464","","null","","","null","9","","","","","","","","","","","","","","","",""
"","time_out","","html-keyboard-response","68","148987","0.0-1.0-89.0-0.0","0","0","13464","","null","","","null","9","","","","","","","","","","","","","","","",""
"","ITI","","html-keyboard-response","69","149996","0.0-1.0-90.0","0","0","13464","","null","","","null","9","","","","","","","","","","","","","","","NaN",""
"","S1","","html-keyboard-response","70","150255","0.0-1.0-92.0","0","0","13464","","null","","","null","10","","","","","","","","","","","","","","","",""
"","ISI","","html-keyboard-response","71","152262","0.0-1.0-93.0","0","0","13464","","null","","","null","10","NaN","","","","","","","","","","","","","","",""
"","S2","","html-keyboard-response","72","152516","0.0-1.0-94.0","0","0","13464","","null","","","null","10","","NaN","","","","","","","","","","","","","",""
"","response","","html-keyboard-response","73","153435","0.0-1.0-95.0-0.0","0","0","13464","","916","","","68","10","","","1","10","training","adjacent","CB","3","2","O.jpg","R.jpg","1","0","0","",""
"","feedback","","html-keyboard-response","74","154441","0.0-1.0-96.0-0.0","0","0","13464","","null","","","null","10","","","","","","","","","","","","","","","",""
"","time_out","","html-keyboard-response","75","156450","0.0-1.0-98.0-0.0","0","0","13464","","null","","","null","10","","","","","","","","","","","","","","","",""
"","ITI","","html-keyboard-response","76","157458","0.0-1.0-99.0","0","0","13464","","null","","","null","10","","","","","","","","","","","","","","","NaN",""
"","S1","","html-keyboard-response","77","157715","0.0-1.0-101.0","0","0","13464","","null","","","null","11","","","","","","","","","","","","","","","",""
"","ISI","","html-keyboard-response","78","159722","0.0-1.0-102.0","0","0","13464","","null","","","null","11","NaN","","","","","","","","","","","","","","",""
"","S2","","html-keyboard-response","79","159980","0.0-1.0-103.0","0","0","13464","","null","","","null","11","","NaN","","","","","","","","","","","","","",""
"","response","","html-keyboard-response","80","160729","0.0-1.0-104.0-0.0","0","0","13464","","746","","","68","11","","","1","11","training","adjacent","FE","6","5","P.jpg","N.jpg","1","0","0","",""
"","feedback","","html-keyboard-response","81","161733","0.0-1.0-105.0-0.0","0","0","13464","","null","","","null","11","","","","","","","","","","","","","","","",""
"","time_out","","html-keyboard-response","82","163741","0.0-1.0-107.0-0.0","0","0","13464","","null","","","null","11","","","","","","","","","","","","","","","",""
"","ITI","","html-keyboard-response","83","164748","0.0-1.0-108.0","0","0","13464","","null","","","null","11","","","","","","","","","","","","","","","NaN",""
"","S1","","html-keyboard-response","84","165004","0.0-1.0-110.0","0","0","13464","","null","","","null","12","","","","","","","","","","","","","","","",""
"","ISI","","html-keyboard-response","85","167009","0.0-1.0-111.0","0","0","13464","","null","","","null","12","NaN","","","","","","","","","","","","","","",""
"","S2","","html-keyboard-response","86","167267","0.0-1.0-112.0","0","0","13464","","null","","","null","12","","NaN","","","","","","","","","","","","","",""
"","response","","html-keyboard-response","87","167829","0.0-1.0-113.0-0.0","0","0","13464","","558","","","68","12","","","1","12","training","adjacent","GF","7","6","M.jpg","P.jpg","1","0","0","",""
"","feedback","","html-keyboard-response","88","168834","0.0-1.0-114.0-0.0","0","0","13464","","null","","","null","12","","","","","","","","","","","","","","","",""
"","time_out","","html-keyboard-response","89","170838","0.0-1.0-116.0-0.0","0","0","13464","","null","","","null","12","","","","","","","","","","","","","","","",""
"","ITI","","html-keyboard-response","90","171847","0.0-1.0-117.0","0","0","13464","","null","","","null","12","","","","","","","","","","","","","","","NaN",""
"","S1","","html-keyboard-response","91","172105","0.0-1.0-119.0","0","0","13464","","null","","","null","13","","","","","","","","","","","","","","","",""
"","ISI","","html-keyboard-response","92","174109","0.0-1.0-120.0","0","0","13464","","null","","","null","13","NaN","","","","","","","","","","","","","","",""
"","S2","","html-keyboard-response","93","174367","0.0-1.0-121.0","0","0","13464","","null","","","null","13","","NaN","","","","","","","","","","","","","",""
"","response","","html-keyboard-response","94","174938","0.0-1.0-122.0-0.0","0","0","13464","","568","","","75","13","","","1","13","training","adjacent","FE","6","5","P.jpg","N.jpg","0","0","1","",""
"","feedback","","html-keyboard-response","95","175946","0.0-1.0-123.0-0.0","0","0","13464","","null","","","null","13","","","","","","","","","","","","","","","",""
"","ITI","","html-keyboard-response","96","176951","0.0-1.0-126.0","0","0","13464","","null","","","null","13","","","","","","","","","","","","","","","NaN",""
"","S1","","html-keyboard-response","97","177209","0.0-1.0-128.0","0","0","13464","","null","","","null","14","","","","","","","","","","","","","","","",""
"","ISI","","html-keyboard-response","98","179213","0.0-1.0-129.0","0","0","13464","","null","","","null","14","NaN","","","","","","","","","","","","","","",""
"","S2","","html-keyboard-response","99","179471","0.0-1.0-130.0","0","0","13464","","null","","","null","14","","NaN","","","","","","","","","","","","","",""
"","response","","html-keyboard-response","100","180221","0.0-1.0-131.0-0.0","0","0","13464","","747","","","68","14","","","1","14","training","adjacent","ED","5","4","N.jpg","L.jpg","1","0","0","",""
"","feedback","","html-keyboard-response","101","181226","0.0-1.0-132.0-0.0","0","0","13464","","null","","","null","14","","","","","","","","","","","","","","","",""
"","time_out","","html-keyboard-response","102","183231","0.0-1.0-134.0-0.0","0","0","13464","","null","","","null","14","","","","","","","","","","","","","","","",""
"","ITI","","html-keyboard-response","103","184234","0.0-1.0-135.0","0","0","13464","","null","","","null","14","","","","","","","","","","","","","","","NaN",""
"","S1","","html-keyboard-response","104","184493","0.0-1.0-137.0","0","0","13464","","null","","","null","15","","","","","","","","","","","","","","","",""
"","ISI","","html-keyboard-response","105","186496","0.0-1.0-138.0","0","0","13464","","null","","","null","15","NaN","","","","","","","","","","","","","","",""
"","S2","","html-keyboard-response","106","186754","0.0-1.0-139.0","0","0","13464","","null","","","null","15","","NaN","","","","","","","","","","","","","",""
"","response","","html-keyboard-response","107","187642","0.0-1.0-140.0-0.0","0","0","13464","","884","","","75","15","","","1","15","training","adjacent","BC","2","3","R.jpg","O.jpg","0","1","0","",""
"","feedback","","html-keyboard-response","108","188649","0.0-1.0-141.0-0.0","0","0","13464","","null","","","null","15","","","","","","","","","","","","","","","",""
"","time_out","","html-keyboard-response","109","190658","0.0-1.0-143.0-0.0","0","0","13464","","null","","","null","15","","","","","","","","","","","","","","","",""
"","ITI","","html-keyboard-response","110","191662","0.0-1.0-144.0","0","0","13464","","null","","","null","15","","","","","","","","","","","","","","","NaN",""
"","S1","","html-keyboard-response","111","191916","0.0-1.0-146.0","0","0","13464","","null","","","null","16","","","","","","","","","","","","","","","",""
"","ISI","","html-keyboard-response","112","193925","0.0-1.0-147.0","0","0","13464","","null","","","null","16","NaN","","","","","","","","","","","","","","",""
"","S2","","html-keyboard-response","113","194180","0.0-1.0-148.0","0","0","13464","","null","","","null","16","","NaN","","","","","","","","","","","","","",""
"","response","","html-keyboard-response","114","195083","0.0-1.0-149.0-0.0","0","0","13464","","899","","","75","16","","","1","16","training","adjacent","FG","6","7","P.jpg","M.jpg","0","1","0","",""
"","feedback","","html-keyboard-response","115","196089","0.0-1.0-150.0-0.0","0","0","13464","","null","","","null","16","","","","","","","","","","","","","","","",""
"","time_out","","html-keyboard-response","116","198098","0.0-1.0-152.0-0.0","0","0","13464","","null","","","null","16","","","","","","","","","","","","","","","",""
"","ITI","","html-keyboard-response","117","199106","0.0-1.0-153.0","0","0","13464","","null","","","null","16","","","","","","","","","","","","","","","NaN",""
"","S1","","html-keyboard-response","118","199364","0.0-1.0-155.0","0","0","13464","","null","","","null","17","","","","","","","","","","","","","","","",""
"","ISI","","html-keyboard-response","119","201372","0.0-1.0-156.0","0","0","13464","","null","","","null","17","NaN","","","","","","","","","","","","","","",""
"","S2","","html-keyboard-response","120","201626","0.0-1.0-157.0","0","0","13464","","null","","","null","17","","NaN","","","","","","","","","","","","","",""
"","response","","html-keyboard-response","121","202363","0.0-1.0-158.0-0.0","0","0","13464","","734","","","68","17","","","1","17","training","adjacent","EF","5","6","N.jpg","P.jpg","1","1","1","",""
"","feedback","","html-keyboard-response","122","203370","0.0-1.0-159.0-0.0","0","0","13464","","null","","","null","17","","","","","","","","","","","","","","","",""
"","ITI","","html-keyboard-response","123","204376","0.0-1.0-162.0","0","0","13464","","null","","","null","17","","","","","","","","","","","","","","","NaN",""
"","S1","","html-keyboard-response","124","204634","0.0-1.0-164.0","0","0","13464","","null","","","null","18","","","","","","","","","","","","","","","",""
"","ISI","","html-keyboard-response","125","206642","0.0-1.0-165.0","0","0","13464","","null","","","null","18","NaN","","","","","","","","","","","","","","",""
"","S2","","html-keyboard-response","126","206897","0.0-1.0-166.0","0","0","13464","","null","","","null","18","","NaN","","","","","","","","","","","","","",""
"","response","","html-keyboard-response","127","207669","0.0-1.0-167.0-0.0","0","0","13464","","768","","","68","18","","","1","18","training","adjacent","DC","4","3","L.jpg","O.jpg","1","0","0","",""
"","feedback","","html-keyboard-response","128","208675","0.0-1.0-168.0-0.0","0","0","13464","","null","","","null","18","","","","","","","","","","","","","","","",""
"","time_out","","html-keyboard-response","129","210684","0.0-1.0-170.0-0.0","0","0","13464","","null","","","null","18","","","","","","","","","","","","","","","",""
"","ITI","","html-keyboard-response","130","211692","0.0-1.0-171.0","0","0","13464","","null","","","null","18","","","","","","","","","","","","","","","NaN",""
"","S1","","html-keyboard-response","131","211950","0.0-1.0-173.0","0","0","13464","","null","","","null","19","","","","","","","","","","","","","","","",""
"","ISI","","html-keyboard-response","132","213954","0.0-1.0-174.0","0","0","13464","","null","","","null","19","NaN","","","","","","","","","","","","","","",""
"","S2","","html-keyboard-response","133","214212","0.0-1.0-175.0","0","0","13464","","null","","","null","19","","NaN","","","","","","","","","","","","","",""
"","response","","html-keyboard-response","134","214981","0.0-1.0-176.0-0.0","0","0","13464","","765","","","68","19","","","1","19","training","adjacent","BA","2","1","R.jpg","Q.jpg","1","0","0","",""
"","feedback","","html-keyboard-response","135","215987","0.0-1.0-177.0-0.0","0","0","13464","","null","","","null","19","","","","","","","","","","","","","","","",""
"","time_out","","html-keyboard-response","136","217990","0.0-1.0-179.0-0.0","0","0","13464","","null","","","null","19","","","","","","","","","","","","","","","",""
"","ITI","","html-keyboard-response","137","218998","0.0-1.0-180.0","0","0","13464","","null","","","null","19","","","","","","","","","","","","","","","NaN",""
"","S1","","html-keyboard-response","138","219257","0.0-1.0-182.0","0","0","13464","","null","","","null","20","","","","","","","","","","","","","","","",""
"","ISI","","html-keyboard-response","139","221263","0.0-1.0-183.0","0","0","13464","","null","","","null","20","NaN","","","","","","","","","","","","","","",""
"","S2","","html-keyboard-response","140","221521","0.0-1.0-184.0","0","0","13464","","null","","","null","20","","NaN","","","","","","","","","","","","","",""
"","response","","html-keyboard-response","141","222220","0.0-1.0-185.0-0.0","0","0","13464","","696","","","75","20","","","1","20","training","adjacent","EF","5","6","N.jpg","P.jpg","0","1","0","",""
"","feedback","","html-keyboard-response","142","223227","0.0-1.0-186.0-0.0","0","0","13464","","null","","","null","20","","","","","","","","","","","","","","","",""
"","time_out","","html-keyboard-response","143","225235","0.0-1.0-188.0-0.0","0","0","13464","","null","","","null","20","","","","","","","","","","","","","","","",""
"","ITI","","html-keyboard-response","144","226239","0.0-1.0-189.0","0","0","13464","","null","","","null","20","","","","","","","","","","","","","","","NaN",""
"","S1","","html-keyboard-response","145","226498","0.0-1.0-191.0","0","0","13464","","null","","","null","21","","","","","","","","","","","","","","","",""
"","ISI","","html-keyboard-response","146","228506","0.0-1.0-192.0","0","0","13464","","null","","","null","21","NaN","","","","","","","","","","","","","","",""
"","S2","","html-keyboard-response","147","228761","0.0-1.0-193.0","0","0","13464","","null","","","null","21","","NaN","","","","","","","","","","","","","",""
"","response","","html-keyboard-response","148","229771","0.0-1.0-194.0-0.0","0","0","13464","","1007","","","68","21","","","1","21","training","adjacent","DC","4","3","L.jpg","O.jpg","1","0","0","",""
"","feedback","","html-keyboard-response","149","230778","0.0-1.0-195.0-0.0","0","0","13464","","null","","","null","21","","","","","","","","","","","","","","","",""
"","time_out","","html-keyboard-response","150","232783","0.0-1.0-197.0-0.0","0","0","13464","","null","","","null","21","","","","","","","","","","","","","","","",""
"","ITI","","html-keyboard-response","151","233790","0.0-1.0-198.0","0","0","13464","","null","","","null","21","","","","","","","","","","","","","","","NaN",""
"","S1","","html-keyboard-response","152","234048","0.0-1.0-200.0","0","0","13464","","null","","","null","22","","","","","","","","","","","","","","","",""
"","ISI","","html-keyboard-response","153","236057","0.0-1.0-201.0","0","0","13464","","null","","","null","22","NaN","","","","","","","","","","","","","","",""
"","S2","","html-keyboard-response","154","236310","0.0-1.0-202.0","0","0","13464","","null","","","null","22","","NaN","","","","","","","","","","","","","",""
"","response","","html-keyboard-response","155","237238","0.0-1.0-203.0-0.0","0","0","13464","","926","","","75","22","","","1","22","training","adjacent","FG","6","7","P.jpg","M.jpg","0","1","0","",""
"","feedback","","html-keyboard-response","156","238245","0.0-1.0-204.0-0.0","0","0","13464","","null","","","null","22","","","","","","","","","","","","","","","",""
"","time_out","","html-keyboard-response","157","240248","0.0-1.0-206.0-0.0","0","0","13464","","null","","","null","22","","","","","","","","","","","","","","","",""
"","ITI","","html-keyboard-response","158","241256","0.0-1.0-207.0","0","0","13464","","null","","","null","22","","","","","","","","","","","","","","","NaN",""
"","S1","","html-keyboard-response","159","241515","0.0-1.0-209.0","0","0","13464","","null","","","null","23","","","","","","","","","","","","","","","",""
"","ISI","","html-keyboard-response","160","243523","0.0-1.0-210.0","0","0","13464","","null","","","null","23","NaN","","","","","","","","","","","","","","",""
"","S2","","html-keyboard-response","161","243781","0.0-1.0-211.0","0","0","13464","","null","","","null","23","","NaN","","","","","","","","","","","","","",""
"","response","","html-keyboard-response","162","244460","0.0-1.0-212.0-0.0","0","0","13464","","675","","","75","23","","","1","23","training","adjacent","AB","1","2","Q.jpg","R.jpg","0","1","0","",""
"","feedback","","html-keyboard-response","163","245467","0.0-1.0-213.0-0.0","0","0","13464","","null","","","null","23","","","","","","","","","","","","","","","",""
"","time_out","","html-keyboard-response","164","247476","0.0-1.0-215.0-0.0","0","0","13464","","null","","","null","23","","","","","","","","","","","","","","","",""
"","ITI","","html-keyboard-response","165","248481","0.0-1.0-216.0","0","0","13464","","null","","","null","23","","","","","","","","","","","","","","","NaN",""
"","S1","","html-keyboard-response","166","248737","0.0-1.0-218.0","0","0","13464","","null","","","null","24","","","","","","","","","","","","","","","",""
"","ISI","","html-keyboard-response","167","250742","0.0-1.0-219.0","0","0","13464","","null","","","null","24","NaN","","","","","","","","","","","","","","",""
"","S2","","html-keyboard-response","168","251001","0.0-1.0-220.0","0","0","13464","","null","","","null","24","","NaN","","","","","","","","","","","","","",""
"","response","","html-keyboard-response","169","251673","0.0-1.0-221.0-0.0","0","0","13464","","668","","","68","24","","","1","24","training","adjacent","FE","6","5","P.jpg","N.jpg","1","0","0","",""
"","feedback","","html-keyboard-response","170","252677","0.0-1.0-222.0-0.0","0","0","13464","","null","","","null","24","","","","","","","","","","","","","","","",""
"","time_out","","html-keyboard-response","171","254683","0.0-1.0-224.0-0.0","0","0","13464","","null","","","null","24","","","","","","","","","","","","","","","",""
"","ITI","","html-keyboard-response","172","255691","0.0-1.0-225.0","0","0","13464","","null","","","null","24","","","","","","","","","","","","","","","NaN",""
"","S1","","html-keyboard-response","173","255947","0.0-1.0-227.0","0","0","13464","","null","","","null","25","","","","","","","","","","","","","","","",""
"","ISI","","html-keyboard-response","174","257955","0.0-1.0-228.0","0","0","13464","","null","","","null","25","NaN","","","","","","","","","","","","","","",""
"","S2","","html-keyboard-response","175","258214","0.0-1.0-229.0","0","0","13464","","null","","","null","25","","NaN","","","","","","","","","","","","","",""
"","response","","html-keyboard-response","176","258971","0.0-1.0-230.0-0.0","0","0","13464","","754","","","75","25","","","1","25","training","adjacent","EF","5","6","N.jpg","P.jpg","0","1","0","",""
"","feedback","","html-keyboard-response","177","259976","0.0-1.0-231.0-0.0","0","0","13464","","null","","","null","25","","","","","","","","","","","","","","","",""
"","time_out","","html-keyboard-response","178","261983","0.0-1.0-233.0-0.0","0","0","13464","","null","","","null","25","","","","","","","","","","","","","","","",""
"","ITI","","html-keyboard-response","179","262991","0.0-1.0-234.0","0","0","13464","","null","","","null","25","","","","","","","","","","","","","","","NaN",""
"","S1","","html-keyboard-response","180","263246","0.0-1.0-236.0","0","0","13464","","null","","","null","26","","","","","","","","","","","","","","","",""
"","ISI","","html-keyboard-response","181","265254","0.0-1.0-237.0","0","0","13464","","null","","","null","26","NaN","","","","","","","","","","","","","","",""
"","S2","","html-keyboard-response","182","265513","0.0-1.0-238.0","0","0","13464","","null","","","null","26","","NaN","","","","","","","","","","","","","",""
"","response","","html-keyboard-response","183","266229","0.0-1.0-239.0-0.0","0","0","13464","","712","","","68","26","","","1","26","training","adjacent","DE","4","5","L.jpg","N.jpg","1","1","1","",""
"","feedback","","html-keyboard-response","184","267236","0.0-1.0-240.0-0.0","0","0","13464","","null","","","null","26","","","","","","","","","","","","","","","",""
"","ITI","","html-keyboard-response","185","268242","0.0-1.0-243.0","0","0","13464","","null","","","null","26","","","","","","","","","","","","","","","NaN",""
"","S1","","html-keyboard-response","186","268496","0.0-1.0-245.0","0","0","13464","","null","","","null","27","","","","","","","","","","","","","","","",""
"","ISI","","html-keyboard-response","187","270503","0.0-1.0-246.0","0","0","13464","","null","","","null","27","NaN","","","","","","","","","","","","","","",""
"","S2","","html-keyboard-response","188","270762","0.0-1.0-247.0","0","0","13464","","null","","","null","27","","NaN","","","","","","","","","","","","","",""
"","response","","html-keyboard-response","189","271594","0.0-1.0-248.0-0.0","0","0","13464","","829","","","68","27","","","1","27","training","adjacent","CD","3","4","O.jpg","L.jpg","1","1","1","",""
"","feedback","","html-keyboard-response","190","272601","0.0-1.0-249.0-0.0","0","0","13464","","null","","","null","27","","","","","","","","","","","","","","","",""
"","ITI","","html-keyboard-response","191","273608","0.0-1.0-252.0","0","0","13464","","null","","","null","27","","","","","","","","","","","","","","","NaN",""
"","S1","","html-keyboard-response","192","273867","0.0-1.0-254.0","0","0","13464","","null","","","null","28","","","","","","","","","","","","","","","",""
"","ISI","","html-keyboard-response","193","275875","0.0-1.0-255.0","0","0","13464","","null","","","null","28","NaN","","","","","","","","","","","","","","",""
"","S2","","html-keyboard-response","194","276132","0.0-1.0-256.0","0","0","13464","","null","","","null","28","","NaN","","","","","","","","","","","","","",""
"","response","","html-keyboard-response","195","276818","0.0-1.0-257.0-0.0","0","0","13464","","682","","","68","28","","","1","28","training","adjacent","DE","4","5","L.jpg","N.jpg","1","1","1","",""
"","feedback","","html-keyboard-response","196","277826","0.0-1.0-258.0-0.0","0","0","13464","","null","","","null","28","","","","","","","","","","","","","","","",""
"","ITI","","html-keyboard-response","197","278832","0.0-1.0-261.0","0","0","13464","","null","","","null","28","","","","","","","","","","","","","","","NaN",""
"","S1","","html-keyboard-response","198","279089","0.0-1.0-263.0","0","0","13464","","null","","","null","29","","","","","","","","","","","","","","","",""
"","ISI","","html-keyboard-response","199","281098","0.0-1.0-264.0","0","0","13464","","null","","","null","29","NaN","","","","","","","","","","","","","","",""
"","S2","","html-keyboard-response","200","281352","0.0-1.0-265.0","0","0","13464","","null","","","null","29","","NaN","","","","","","","","","","","","","",""
"","response","","html-keyboard-response","201","282005","0.0-1.0-266.0-0.0","0","0","13464","","651","","","75","29","","","1","29","training","adjacent","CB","3","2","O.jpg","R.jpg","0","0","1","",""
"","feedback","","html-keyboard-response","202","283012","0.0-1.0-267.0-0.0","0","0","13464","","null","","","null","29","","","","","","","","","","","","","","","",""
"","ITI","","html-keyboard-response","203","284019","0.0-1.0-270.0","0","0","13464","","null","","","null","29","","","","","","","","","","","","","","","NaN",""
"","S1","","html-keyboard-response","204","284277","0.0-1.0-272.0","0","0","13464","","null","","","null","30","","","","","","","","","","","","","","","",""
"","ISI","","html-keyboard-response","205","286286","0.0-1.0-273.0","0","0","13464","","null","","","null","30","NaN","","","","","","","","","","","","","","",""
"","S2","","html-keyboard-response","206","286540","0.0-1.0-274.0","0","0","13464","","null","","","null","30","","NaN","","","","","","","","","","","","","",""
"","response","","html-keyboard-response","207","287049","0.0-1.0-275.0-0.0","0","0","13464","","505","","","68","30","","","1","30","training","adjacent","AB","1","2","Q.jpg","R.jpg","1","1","1","",""
"","feedback","","html-keyboard-response","208","288055","0.0-1.0-276.0-0.0","0","0","13464","","null","","","null","30","","","","","","","","","","","","","","","",""
"","ITI","","html-keyboard-response","209","289062","0.0-1.0-279.0","0","0","13464","","null","","","null","30","","","","","","","","","","","","","","","NaN",""
"","S1","","html-keyboard-response","210","289317","0.0-1.0-281.0","0","0","13464","","null","","","null","31","","","","","","","","","","","","","","","",""
"","ISI","","html-keyboard-response","211","291325","0.0-1.0-282.0","0","0","13464","","null","","","null","31","NaN","","","","","","","","","","","","","","",""
"","S2","","html-keyboard-response","212","291583","0.0-1.0-283.0","0","0","13464","","null","","","null","31","","NaN","","","","","","","","","","","","","",""
"","response","","html-keyboard-response","213","292318","0.0-1.0-284.0-0.0","0","0","13464","","730","","","75","31","","","1","31","training","adjacent","ED","5","4","N.jpg","L.jpg","0","0","1","",""
"","feedback","","html-keyboard-response","214","293325","0.0-1.0-285.0-0.0","0","0","13464","","null","","","null","31","","","","","","","","","","","","","","","",""
"","ITI","","html-keyboard-response","215","294331","0.0-1.0-288.0","0","0","13464","","null","","","null","31","","","","","","","","","","","","","","","NaN",""
"","S1","","html-keyboard-response","216","294588","0.0-1.0-290.0","0","0","13464","","null","","","null","32","","","","","","","","","","","","","","","",""
"","ISI","","html-keyboard-response","217","296591","0.0-1.0-291.0","0","0","13464","","null","","","null","32","NaN","","","","","","","","","","","","","","",""
"","S2","","html-keyboard-response","218","296846","0.0-1.0-292.0","0","0","13464","","null","","","null","32","","NaN","","","","","","","","","","","","","",""
"","response","","html-keyboard-response","219","297460","0.0-1.0-293.0-0.0","0","0","13464","","611","","","75","32","","","1","32","training","adjacent","BC","2","3","R.jpg","O.jpg","0","1","0","",""
"","feedback","","html-keyboard-response","220","298467","0.0-1.0-294.0-0.0","0","0","13464","","null","","","null","32","","","","","","","","","","","","","","","",""
"","time_out","","html-keyboard-response","221","300474","0.0-1.0-296.0-0.0","0","0","13464","","null","","","null","32","","","","","","","","","","","","","","","",""
"","ITI","","html-keyboard-response","222","301481","0.0-1.0-297.0","0","0","13464","","null","","","null","32","","","","","","","","","","","","","","","NaN",""
"","S1","","html-keyboard-response","223","301738","0.0-1.0-299.0","0","0","13464","","null","","","null","33","","","","","","","","","","","","","","","",""
"","ISI","","html-keyboard-response","224","303744","0.0-1.0-300.0","0","0","13464","","null","","","null","33","NaN","","","","","","","","","","","","","","",""
"","S2","","html-keyboard-response","225","303999","0.0-1.0-301.0","0","0","13464","","null","","","null","33","","NaN","","","","","","","","","","","","","",""
"","response","","html-keyboard-response","226","304892","0.0-1.0-302.0-0.0","0","0","13464","","890","","","68","33","","","1","33","training","adjacent","BA","2","1","R.jpg","Q.jpg","1","0","0","",""
"","feedback","","html-keyboard-response","227","305900","0.0-1.0-303.0-0.0","0","0","13464","","null","","","null","33","","","","","","","","","","","","","","","",""
"","time_out","","html-keyboard-response","228","307906","0.0-1.0-305.0-0.0","0","0","13464","","null","","","null","33","","","","","","","","","","","","","","","",""
"","ITI","","html-keyboard-response","229","308914","0.0-1.0-306.0","0","0","13464","","null","","","null","33","","","","","","","","","","","","","","","NaN",""
"","S1","","html-keyboard-response","230","309170","0.0-1.0-308.0","0","0","13464","","null","","","null","34","","","","","","","","","","","","","","","",""
"","ISI","","html-keyboard-response","231","311178","0.0-1.0-309.0","0","0","13464","","null","","","null","34","NaN","","","","","","","","","","","","","","",""
"","S2","","html-keyboard-response","232","311437","0.0-1.0-310.0","0","0","13464","","null","","","null","34","","NaN","","","","","","","","","","","","","",""
"","response","","html-keyboard-response","233","312375","0.0-1.0-311.0-0.0","0","0","13464","","936","","","68","34","","","1","34","training","adjacent","BA","2","1","R.jpg","Q.jpg","1","0","0","",""
"","feedback","","html-keyboard-response","234","313381","0.0-1.0-312.0-0.0","0","0","13464","","null","","","null","34","","","","","","","","","","","","","","","",""
"","time_out","","html-keyboard-response","235","315387","0.0-1.0-314.0-0.0","0","0","13464","","null","","","null","34","","","","","","","","","","","","","","","",""
"","ITI","","html-keyboard-response","236","316395","0.0-1.0-315.0","0","0","13464","","null","","","null","34","","","","","","","","","","","","","","","NaN",""
"","S1","","html-keyboard-response","237","316650","0.0-1.0-317.0","0","0","13464","","null","","","null","35","","","","","","","","","","","","","","","",""
"","ISI","","html-keyboard-response","238","318658","0.0-1.0-318.0","0","0","13464","","null","","","null","35","NaN","","","","","","","","","","","","","","",""
"","S2","","html-keyboard-response","239","318912","0.0-1.0-319.0","0","0","13464","","null","","","null","35","","NaN","","","","","","","","","","","","","",""
"","response","","html-keyboard-response","240","319881","0.0-1.0-320.0-0.0","0","0","13464","","965","","","68","35","","","1","35","training","adjacent","GF","7","6","M.jpg","P.jpg","1","0","0","",""
"","feedback","","html-keyboard-response","241","320887","0.0-1.0-321.0-0.0","0","0","13464","","null","","","null","35","","","","","","","","","","","","","","","",""
"","time_out","","html-keyboard-response","242","322894","0.0-1.0-323.0-0.0","0","0","13464","","null","","","null","35","","","","","","","","","","","","","","","",""
"","ITI","","html-keyboard-response","243","323901","0.0-1.0-324.0","0","0","13464","","null","","","null","35","","","","","","","","","","","","","","","NaN",""
"","S1","","html-keyboard-response","244","324160","0.0-1.0-326.0","0","0","13464","","null","","","null","36","","","","","","","","","","","","","","","",""
"","ISI","","html-keyboard-response","245","326167","0.0-1.0-327.0","0","0","13464","","null","","","null","36","NaN","","","","","","","","","","","","","","",""
"","S2","","html-keyboard-response","246","326423","0.0-1.0-328.0","0","0","13464","","null","","","null","36","","NaN","","","","","","","","","","","","","",""
"","response","","html-keyboard-response","247","327447","0.0-1.0-329.0-0.0","0","0","13464","","1020","","","75","36","","","1","36","training","adjacent","BA","2","1","R.jpg","Q.jpg","0","0","1","",""
"","feedback","","html-keyboard-response","248","328453","0.0-1.0-330.0-0.0","0","0","13464","","null","","","null","36","","","","","","","","","","","","","","","",""
"","ITI","","html-keyboard-response","249","329460","0.0-1.0-333.0","0","0","13464","","null","","","null","36","","","","","","","","","","","","","","","NaN",""
"","S1","","html-keyboard-response","250","329718","0.0-1.0-335.0","0","0","13464","","null","","","null","37","","","","","","","","","","","","","","","",""
"","ISI","","html-keyboard-response","251","331726","0.0-1.0-336.0","0","0","13464","","null","","","null","37","NaN","","","","","","","","","","","","","","",""
"","S2","","html-keyboard-response","252","331982","0.0-1.0-337.0","0","0","13464","","null","","","null","37","","NaN","","","","","","","","","","","","","",""
"","response","","html-keyboard-response","253","332942","0.0-1.0-338.0-0.0","0","0","13464","","957","","","75","37","","","1","37","training","adjacent","FG","6","7","P.jpg","M.jpg","0","1","0","",""
"","feedback","","html-keyboard-response","254","333950","0.0-1.0-339.0-0.0","0","0","13464","","null","","","null","37","","","","","","","","","","","","","","","",""
"","time_out","","html-keyboard-response","255","335954","0.0-1.0-341.0-0.0","0","0","13464","","null","","","null","37","","","","","","","","","","","","","","","",""
"","ITI","","html-keyboard-response","256","336960","0.0-1.0-342.0","0","0","13464","","null","","","null","37","","","","","","","","","","","","","","","NaN",""
"","S1","","html-keyboard-response","257","337219","0.0-1.0-344.0","0","0","13464","","null","","","null","38","","","","","","","","","","","","","","","",""
"","ISI","","html-keyboard-response","258","339227","0.0-1.0-345.0","0","0","13464","","null","","","null","38","NaN","","","","","","","","","","","","","","",""
"","S2","","html-keyboard-response","259","339484","0.0-1.0-346.0","0","0","13464","","null","","","null","38","","NaN","","","","","","","","","","","","","",""
"","response","","html-keyboard-response","260","340280","0.0-1.0-347.0-0.0","0","0","13464","","793","","","68","38","","","1","38","training","adjacent","DE","4","5","L.jpg","N.jpg","1","1","1","",""
"","feedback","","html-keyboard-response","261","341287","0.0-1.0-348.0-0.0","0","0","13464","","null","","","null","38","","","","","","","","","","","","","","","",""
"","ITI","","html-keyboard-response","262","342293","0.0-1.0-351.0","0","0","13464","","null","","","null","38","","","","","","","","","","","","","","","NaN",""
"","S1","","html-keyboard-response","263","342549","0.0-1.0-353.0","0","0","13464","","null","","","null","39","","","","","","","","","","","","","","","",""
"","ISI","","html-keyboard-response","264","344557","0.0-1.0-354.0","0","0","13464","","null","","","null","39","NaN","","","","","","","","","","","","","","",""
"","S2","","html-keyboard-response","265","344816","0.0-1.0-355.0","0","0","13464","","null","","","null","39","","NaN","","","","","","","","","","","","","",""
"","response","","html-keyboard-response","266","345489","0.0-1.0-356.0-0.0","0","0","13464","","671","","","68","39","","","1","39","training","adjacent","DE","4","5","L.jpg","N.jpg","1","1","1","",""
"","feedback","","html-keyboard-response","267","346495","0.0-1.0-357.0-0.0","0","0","13464","","null","","","null","39","","","","","","","","","","","","","","","",""
"","ITI","","html-keyboard-response","268","347502","0.0-1.0-360.0","0","0","13464","","null","","","null","39","","","","","","","","","","","","","","","NaN",""
"","S1","","html-keyboard-response","269","347761","0.0-1.0-362.0","0","0","13464","","null","","","null","40","","","","","","","","","","","","","","","",""
"","ISI","","html-keyboard-response","270","349768","0.0-1.0-363.0","0","0","13464","","null","","","null","40","NaN","","","","","","","","","","","","","","",""
"","S2","","html-keyboard-response","271","350022","0.0-1.0-364.0","0","0","13464","","null","","","null","40","","NaN","","","","","","","","","","","","","",""
"","response","","html-keyboard-response","272","351041","0.0-1.0-365.0-0.0","0","0","13464","","1016","","","68","40","","","1","40","training","adjacent","BC","2","3","R.jpg","O.jpg","1","1","1","",""
"","feedback","","html-keyboard-response","273","352047","0.0-1.0-366.0-0.0","0","0","13464","","null","","","null","40","","","","","","","","","","","","","","","",""
"","ITI","","html-keyboard-response","274","353054","0.0-1.0-369.0","0","0","13464","","null","","","null","40","","","","","","","","","","","","","","","NaN",""
"","S1","","html-keyboard-response","275","353313","0.0-1.0-371.0","0","0","13464","","null","","","null","41","","","","","","","","","","","","","","","",""
"","ISI","","html-keyboard-response","276","355321","0.0-1.0-372.0","0","0","13464","","null","","","null","41","NaN","","","","","","","","","","","","","","",""
"","S2","","html-keyboard-response","277","355575","0.0-1.0-373.0","0","0","13464","","null","","","null","41","","NaN","","","","","","","","","","","","","",""
"","response","","html-keyboard-response","278","356648","0.0-1.0-374.0-0.0","0","0","13464","","1070","","","75","41","","","1","41","training","adjacent","DC","4","3","L.jpg","O.jpg","0","0","1","",""
"","feedback","","html-keyboard-response","279","357655","0.0-1.0-375.0-0.0","0","0","13464","","null","","","null","41","","","","","","","","","","","","","","","",""
"","ITI","","html-keyboard-response","280","358662","0.0-1.0-378.0","0","0","13464","","null","","","null","41","","","","","","","","","","","","","","","NaN",""
"","S1","","html-keyboard-response","281","358917","0.0-1.0-380.0","0","0","13464","","null","","","null","42","","","","","","","","","","","","","","","",""
"","ISI","","html-keyboard-response","282","360926","0.0-1.0-381.0","0","0","13464","","null","","","null","42","NaN","","","","","","","","","","","","","","",""
"","S2","","html-keyboard-response","283","361184","0.0-1.0-382.0","0","0","13464","","null","","","null","42","","NaN","","","","","","","","","","","","","",""
"","response","","html-keyboard-response","284","361948","0.0-1.0-383.0-0.0","0","0","13464","","761","","","75","42","","","1","42","training","adjacent","DC","4","3","L.jpg","O.jpg","0","0","1","",""
"","feedback","","html-keyboard-response","285","362954","0.0-1.0-384.0-0.0","0","0","13464","","null","","","null","42","","","","","","","","","","","","","","","",""
"","ITI","","html-keyboard-response","286","363961","0.0-1.0-387.0","0","0","13464","","null","","","null","42","","","","","","","","","","","","","","","NaN",""
"","S1","","html-keyboard-response","287","364219","0.0-1.0-389.0","0","0","13464","","null","","","null","43","","","","","","","","","","","","","","","",""
"","ISI","","html-keyboard-response","288","366228","0.0-1.0-390.0","0","0","13464","","null","","","null","43","NaN","","","","","","","","","","","","","","",""
"","S2","","html-keyboard-response","289","366483","0.0-1.0-391.0","0","0","13464","","null","","","null","43","","NaN","","","","","","","","","","","","","",""
"","response","","html-keyboard-response","290","367076","0.0-1.0-392.0-0.0","0","0","13464","","590","","","75","43","","","1","43","training","adjacent","EF","5","6","N.jpg","P.jpg","0","1","0","",""
"","feedback","","html-keyboard-response","291","368082","0.0-1.0-393.0-0.0","0","0","13464","","null","","","null","43","","","","","","","","","","","","","","","",""
"","time_out","","html-keyboard-response","292","370091","0.0-1.0-395.0-0.0","0","0","13464","","null","","","null","43","","","","","","","","","","","","","","","",""
"","ITI","","html-keyboard-response","293","371098","0.0-1.0-396.0","0","0","13464","","null","","","null","43","","","","","","","","","","","","","","","NaN",""
"","S1","","html-keyboard-response","294","371354","0.0-1.0-398.0","0","0","13464","","null","","","null","44","","","","","","","","","","","","","","","",""
"","ISI","","html-keyboard-response","295","373362","0.0-1.0-399.0","0","0","13464","","null","","","null","44","NaN","","","","","","","","","","","","","","",""
"","S2","","html-keyboard-response","296","373621","0.0-1.0-400.0","0","0","13464","","null","","","null","44","","NaN","","","","","","","","","","","","","",""
"","response","","html-keyboard-response","297","374406","0.0-1.0-401.0-0.0","0","0","13464","","781","","","75","44","","","1","44","training","adjacent","ED","5","4","N.jpg","L.jpg","0","0","1","",""
"","feedback","","html-keyboard-response","298","375413","0.0-1.0-402.0-0.0","0","0","13464","","null","","","null","44","","","","","","","","","","","","","","","",""
"","ITI","","html-keyboard-response","299","376419","0.0-1.0-405.0","0","0","13464","","null","","","null","44","","","","","","","","","","","","","","","NaN",""
"","S1","","html-keyboard-response","300","376675","0.0-1.0-407.0","0","0","13464","","null","","","null","45","","","","","","","","","","","","","","","",""
"","ISI","","html-keyboard-response","301","378683","0.0-1.0-408.0","0","0","13464","","null","","","null","45","NaN","","","","","","","","","","","","","","",""
"","S2","","html-keyboard-response","302","378941","0.0-1.0-409.0","0","0","13464","","null","","","null","45","","NaN","","","","","","","","","","","","","",""
"","response","","html-keyboard-response","303","379818","0.0-1.0-410.0-0.0","0","0","13464","","874","","","68","45","","","1","45","training","adjacent","AB","1","2","Q.jpg","R.jpg","1","1","1","",""
"","feedback","","html-keyboard-response","304","380827","0.0-1.0-411.0-0.0","0","0","13464","","null","","","null","45","","","","","","","","","","","","","","","",""
"","ITI","","html-keyboard-response","305","381833","0.0-1.0-414.0","0","0","13464","","null","","","null","45","","","","","","","","","","","","","","","NaN",""
"","S1","","html-keyboard-response","306","382092","0.0-1.0-416.0","0","0","13464","","null","","","null","46","","","","","","","","","","","","","","","",""
"","ISI","","html-keyboard-response","307","384096","0.0-1.0-417.0","0","0","13464","","null","","","null","46","NaN","","","","","","","","","","","","","","",""
"","S2","","html-keyboard-response","308","384355","0.0-1.0-418.0","0","0","13464","","null","","","null","46","","NaN","","","","","","","","","","","","","",""
"","response","","html-keyboard-response","309","385152","0.0-1.0-419.0-0.0","0","0","13464","","795","","","68","46","","","1","46","training","adjacent","FG","6","7","P.jpg","M.jpg","1","1","1","",""
"","feedback","","html-keyboard-response","310","386160","0.0-1.0-420.0-0.0","0","0","13464","","null","","","null","46","","","","","","","","","","","","","","","",""
"","ITI","","html-keyboard-response","311","387166","0.0-1.0-423.0","0","0","13464","","null","","","null","46","","","","","","","","","","","","","","","NaN",""
"","S1","","html-keyboard-response","312","387425","0.0-1.0-425.0","0","0","13464","","null","","","null","47","","","","","","","","","","","","","","","",""
"","ISI","","html-keyboard-response","313","389428","0.0-1.0-426.0","0","0","13464","","null","","","null","47","NaN","","","","","","","","","","","","","","",""
"","S2","","html-keyboard-response","314","389687","0.0-1.0-427.0","0","0","13464","","null","","","null","47","","NaN","","","","","","","","","","","","","",""
"","response","","html-keyboard-response","315","390638","0.0-1.0-428.0-0.0","0","0","13464","","948","","","75","47","","","1","47","training","adjacent","BC","2","3","R.jpg","O.jpg","0","1","0","",""
"","feedback","","html-keyboard-response","316","391644","0.0-1.0-429.0-0.0","0","0","13464","","null","","","null","47","","","","","","","","","","","","","","","",""
"","time_out","","html-keyboard-response","317","393651","0.0-1.0-431.0-0.0","0","0","13464","","null","","","null","47","","","","","","","","","","","","","","","",""
"","ITI","","html-keyboard-response","318","394654","0.0-1.0-432.0","0","0","13464","","null","","","null","47","","","","","","","","","","","","","","","NaN",""
"","block_over","","html-keyboard-response","319","405838","0.0-1.0-433.0-0.0","0","0","13464","","11178","","","32","47","","","","","","","","","","","","","","","",""
"","S1","","html-keyboard-response","320","406095","0.0-1.0-434.0","0","0","13464","","null","","","null","48","","","","","","","","","","","","","","","",""
"","ISI","","html-keyboard-response","321","408100","0.0-1.0-435.0","0","0","13464","","null","","","null","48","NaN","","","","","","","","","","","","","","",""
"","S2","","html-keyboard-response","322","408359","0.0-1.0-436.0","0","0","13464","","null","","","null","48","","NaN","","","","","","","","","","","","","",""
"","response","","html-keyboard-response","323","409069","0.0-1.0-437.0-0.0","0","0","13464","","707","","","68","48","","","2","48","training","adjacent","CB","3","2","O.jpg","R.jpg","1","0","0","",""
"","feedback","","html-keyboard-response","324","410076","0.0-1.0-438.0-0.0","0","0","13464","","null","","","null","48","","","","","","","","","","","","","","","",""
"","time_out","","html-keyboard-response","325","412081","0.0-1.0-440.0-0.0","0","0","13464","","null","","","null","48","","","","","","","","","","","","","","","",""
"","ITI","","html-keyboard-response","326","413086","0.0-1.0-441.0","0","0","13464","","null","","","null","48","","","","","","","","","","","","","","","NaN",""
"","S1","","html-keyboard-response","327","413344","0.0-1.0-443.0","0","0","13464","","null","","","null","49","","","","","","","","","","","","","","","",""
"","ISI","","html-keyboard-response","328","415350","0.0-1.0-444.0","0","0","13464","","null","","","null","49","NaN","","","","","","","","","","","","","","",""
"","S2","","html-keyboard-response","329","415608","0.0-1.0-445.0","0","0","13464","","null","","","null","49","","NaN","","","","","","","","","","","","","",""
"","response","","html-keyboard-response","330","416216","0.0-1.0-446.0-0.0","0","0","13464","","604","","","68","49","","","2","49","training","adjacent","EF","5","6","N.jpg","P.jpg","1","1","1","",""
"","feedback","","html-keyboard-response","331","417222","0.0-1.0-447.0-0.0","0","0","13464","","null","","","null","49","","","","","","","","","","","","","","","",""
"","ITI","","html-keyboard-response","332","418229","0.0-1.0-450.0","0","0","13464","","null","","","null","49","","","","","","","","","","","","","","","NaN",""
"","S1","","html-keyboard-response","333","418487","0.0-1.0-452.0","0","0","13464","","null","","","null","50","","","","","","","","","","","","","","","",""
"","ISI","","html-keyboard-response","334","420495","0.0-1.0-453.0","0","0","13464","","null","","","null","50","NaN","","","","","","","","","","","","","","",""
"","S2","","html-keyboard-response","335","420753","0.0-1.0-454.0","0","0","13464","","null","","","null","50","","NaN","","","","","","","","","","","","","",""
"","response","","html-keyboard-response","336","421392","0.0-1.0-455.0-0.0","0","0","13464","","636","","","68","50","","","2","50","training","adjacent","CD","3","4","O.jpg","L.jpg","1","1","1","",""
"","feedback","","html-keyboard-response","337","422399","0.0-1.0-456.0-0.0","0","0","13464","","null","","","null","50","","","","","","","","","","","","","","","",""
"","ITI","","html-keyboard-response","338","423405","0.0-1.0-459.0","0","0","13464","","null","","","null","50","","","","","","","","","","","","","","","NaN",""
"","S1","","html-keyboard-response","339","423663","0.0-1.0-461.0","0","0","13464","","null","","","null","51","","","","","","","","","","","","","","","",""
"","ISI","","html-keyboard-response","340","425671","0.0-1.0-462.0","0","0","13464","","null","","","null","51","NaN","","","","","","","","","","","","","","",""
"","S2","","html-keyboard-response","341","425929","0.0-1.0-463.0","0","0","13464","","null","","","null","51","","NaN","","","","","","","","","","","","","",""
"","response","","html-keyboard-response","342","426615","0.0-1.0-464.0-0.0","0","0","13464","","682","","","75","51","","","2","51","training","adjacent","BA","2","1","R.jpg","Q.jpg","0","0","1","",""
"","feedback","","html-keyboard-response","343","427621","0.0-1.0-465.0-0.0","0","0","13464","","null","","","null","51","","","","","","","","","","","","","","","",""
"","ITI","","html-keyboard-response","344","428628","0.0-1.0-468.0","0","0","13464","","null","","","null","51","","","","","","","","","","","","","","","NaN",""
"","S1","","html-keyboard-response","345","428884","0.0-1.0-470.0","0","0","13464","","null","","","null","52","","","","","","","","","","","","","","","",""
"","ISI","","html-keyboard-response","346","430887","0.0-1.0-471.0","0","0","13464","","null","","","null","52","NaN","","","","","","","","","","","","","","",""
"","S2","","html-keyboard-response","347","431145","0.0-1.0-472.0","0","0","13464","","null","","","null","52","","NaN","","","","","","","","","","","","","",""
"","response","","html-keyboard-response","348","431950","0.0-1.0-473.0-0.0","0","0","13464","","802","","","75","52","","","2","52","training","adjacent","GF","7","6","M.jpg","P.jpg","0","0","1","",""
"","feedback","","html-keyboard-response","349","432957","0.0-1.0-474.0-0.0","0","0","13464","","null","","","null","52","","","","","","","","","","","","","","","",""
"","ITI","","html-keyboard-response","350","433964","0.0-1.0-477.0","0","0","13464","","null","","","null","52","","","","","","","","","","","","","","","NaN",""
"","S1","","html-keyboard-response","351","434221","0.0-1.0-479.0","0","0","13464","","null","","","null","53","","","","","","","","","","","","","","","",""
"","ISI","","html-keyboard-response","352","436229","0.0-1.0-480.0","0","0","13464","","null","","","null","53","NaN","","","","","","","","","","","","","","",""
"","S2","","html-keyboard-response","353","436488","0.0-1.0-481.0","0","0","13464","","null","","","null","53","","NaN","","","","","","","","","","","","","",""
"","response","","html-keyboard-response","354","437552","0.0-1.0-482.0-0.0","0","0","13464","","1061","","","75","53","","","2","53","training","adjacent","FE","6","5","P.jpg","N.jpg","0","0","1","",""
"","feedback","","html-keyboard-response","355","438559","0.0-1.0-483.0-0.0","0","0","13464","","null","","","null","53","","","","","","","","","","","","","","","",""
"","ITI","","html-keyboard-response","356","439566","0.0-1.0-486.0","0","0","13464","","null","","","null","53","","","","","","","","","","","","","","","NaN",""
"","S1","","html-keyboard-response","357","439824","0.0-1.0-488.0","0","0","13464","","null","","","null","54","","","","","","","","","","","","","","","",""
"","ISI","","html-keyboard-response","358","441831","0.0-1.0-489.0","0","0","13464","","null","","","null","54","NaN","","","","","","","","","","","","","","",""
"","S2","","html-keyboard-response","359","442086","0.0-1.0-490.0","0","0","13464","","null","","","null","54","","NaN","","","","","","","","","","","","","",""
"","response","","html-keyboard-response","360","443241","0.0-1.0-491.0-0.0","0","0","13464","","1152","","","75","54","","","2","54","training","adjacent","CB","3","2","O.jpg","R.jpg","0","0","1","",""
"","feedback","","html-keyboard-response","361","444248","0.0-1.0-492.0-0.0","0","0","13464","","null","","","null","54","","","","","","","","","","","","","","","",""
"","ITI","","html-keyboard-response","362","445254","0.0-1.0-495.0","0","0","13464","","null","","","null","54","","","","","","","","","","","","","","","NaN",""
"","S1","","html-keyboard-response","363","445510","0.0-1.0-497.0","0","0","13464","","null","","","null","55","","","","","","","","","","","","","","","",""
"","ISI","","html-keyboard-response","364","447518","0.0-1.0-498.0","0","0","13464","","null","","","null","55","NaN","","","","","","","","","","","","","","",""
"","S2","","html-keyboard-response","365","447777","0.0-1.0-499.0","0","0","13464","","null","","","null","55","","NaN","","","","","","","","","","","","","",""
"","response","","html-keyboard-response","366","448490","0.0-1.0-500.0-0.0","0","0","13464","","710","","","68","55","","","2","55","training","adjacent","AB","1","2","Q.jpg","R.jpg","1","1","1","",""
"","feedback","","html-keyboard-response","367","449495","0.0-1.0-501.0-0.0","0","0","13464","","null","","","null","55","","","","","","","","","","","","","","","",""
"","ITI","","html-keyboard-response","368","450503","0.0-1.0-504.0","0","0","13464","","null","","","null","55","","","","","","","","","","","","","","","NaN",""
"","S1","","html-keyboard-response","369","450761","0.0-1.0-506.0","0","0","13464","","null","","","null","56","","","","","","","","","","","","","","","",""
"","ISI","","html-keyboard-response","370","452766","0.0-1.0-507.0","0","0","13464","","null","","","null","56","NaN","","","","","","","","","","","","","","",""
"","S2","","html-keyboard-response","371","453021","0.0-1.0-508.0","0","0","13464","","null","","","null","56","","NaN","","","","","","","","","","","","","",""
"","response","","html-keyboard-response","372","454199","0.0-1.0-509.0-0.0","0","0","13464","","1176","","","68","56","","","2","56","training","adjacent","ED","5","4","N.jpg","L.jpg","1","0","0","",""
"","feedback","","html-keyboard-response","373","455207","0.0-1.0-510.0-0.0","0","0","13464","","null","","","null","56","","","","","","","","","","","","","","","",""
"","time_out","","html-keyboard-response","374","457215","0.0-1.0-512.0-0.0","0","0","13464","","null","","","null","56","","","","","","","","","","","","","","","",""
"","ITI","","html-keyboard-response","375","458223","0.0-1.0-513.0","0","0","13464","","null","","","null","56","","","","","","","","","","","","","","","NaN",""
"","S1","","html-keyboard-response","376","458480","0.0-1.0-515.0","0","0","13464","","null","","","null","57","","","","","","","","","","","","","","","",""
"","ISI","","html-keyboard-response","377","460488","0.0-1.0-516.0","0","0","13464","","null","","","null","57","NaN","","","","","","","","","","","","","","",""
"","S2","","html-keyboard-response","378","460747","0.0-1.0-517.0","0","0","13464","","null","","","null","57","","NaN","","","","","","","","","","","","","",""
"","response","","html-keyboard-response","379","461593","0.0-1.0-518.0-0.0","0","0","13464","","844","","","75","57","","","2","57","training","adjacent","DC","4","3","L.jpg","O.jpg","0","0","1","",""
"","feedback","","html-keyboard-response","380","462599","0.0-1.0-519.0-0.0","0","0","13464","","null","","","null","57","","","","","","","","","","","","","","","",""
"","ITI","","html-keyboard-response","381","463607","0.0-1.0-522.0","0","0","13464","","null","","","null","57","","","","","","","","","","","","","","","NaN",""
"","S1","","html-keyboard-response","382","463865","0.0-1.0-524.0","0","0","13464","","null","","","null","58","","","","","","","","","","","","","","","",""
"","ISI","","html-keyboard-response","383","465873","0.0-1.0-525.0","0","0","13464","","null","","","null","58","NaN","","","","","","","","","","","","","","",""
"","S2","","html-keyboard-response","384","466128","0.0-1.0-526.0","0","0","13464","","null","","","null","58","","NaN","","","","","","","","","","","","","",""
"","response","","html-keyboard-response","385","467544","0.0-1.0-527.0-0.0","0","0","13464","","1412","","","68","58","","","2","58","training","adjacent","BC","2","3","R.jpg","O.jpg","1","1","1","",""
"","feedback","","html-keyboard-response","386","468551","0.0-1.0-528.0-0.0","0","0","13464","","null","","","null","58","","","","","","","","","","","","","","","",""
"","ITI","","html-keyboard-response","387","469557","0.0-1.0-531.0","0","0","13464","","null","","","null","58","","","","","","","","","","","","","","","NaN",""
"","S1","","html-keyboard-response","388","469812","0.0-1.0-533.0","0","0","13464","","null","","","null","59","","","","","","","","","","","","","","","",""
"","ISI","","html-keyboard-response","389","471815","0.0-1.0-534.0","0","0","13464","","null","","","null","59","NaN","","","","","","","","","","","","","","",""
"","S2","","html-keyboard-response","390","472074","0.0-1.0-535.0","0","0","13464","","null","","","null","59","","NaN","","","","","","","","","","","","","",""
"","response","","html-keyboard-response","391","473025","0.0-1.0-536.0-0.0","0","0","13464","","948","","","68","59","","","2","59","training","adjacent","DE","4","5","L.jpg","N.jpg","1","1","1","",""
"","feedback","","html-keyboard-response","392","474034","0.0-1.0-537.0-0.0","0","0","13464","","null","","","null","59","","","","","","","","","","","","","","","",""
"","ITI","","html-keyboard-response","393","475040","0.0-1.0-540.0","0","0","13464","","null","","","null","59","","","","","","","","","","","","","","","NaN",""
"","S1","","html-keyboard-response","394","475298","0.0-1.0-542.0","0","0","13464","","null","","","null","60","","","","","","","","","","","","","","","",""
"","ISI","","html-keyboard-response","395","477306","0.0-1.0-543.0","0","0","13464","","null","","","null","60","NaN","","","","","","","","","","","","","","",""
"","S2","","html-keyboard-response","396","477561","0.0-1.0-544.0","0","0","13464","","null","","","null","60","","NaN","","","","","","","","","","","","","",""
"","response","","html-keyboard-response","397","478259","0.0-1.0-545.0-0.0","0","0","13464","","694","","","68","60","","","2","60","training","adjacent","FE","6","5","P.jpg","N.jpg","1","0","0","",""
"","feedback","","html-keyboard-response","398","479265","0.0-1.0-546.0-0.0","0","0","13464","","null","","","null","60","","","","","","","","","","","","","","","",""
"","time_out","","html-keyboard-response","399","481274","0.0-1.0-548.0-0.0","0","0","13464","","null","","","null","60","","","","","","","","","","","","","","","",""
"","ITI","","html-keyboard-response","400","482277","0.0-1.0-549.0","0","0","13464","","null","","","null","60","","","","","","","","","","","","","","","NaN",""
"","S1","","html-keyboard-response","401","482535","0.0-1.0-551.0","0","0","13464","","null","","","null","61","","","","","","","","","","","","","","","",""
"","ISI","","html-keyboard-response","402","484540","0.0-1.0-552.0","0","0","13464","","null","","","null","61","NaN","","","","","","","","","","","","","","",""
"","S2","","html-keyboard-response","403","484794","0.0-1.0-553.0","0","0","13464","","null","","","null","61","","NaN","","","","","","","","","","","","","",""
"","response","","html-keyboard-response","404","485976","0.0-1.0-554.0-0.0","0","0","13464","","1179","","","68","61","","","2","61","training","adjacent","DE","4","5","L.jpg","N.jpg","1","1","1","",""
"","feedback","","html-keyboard-response","405","486982","0.0-1.0-555.0-0.0","0","0","13464","","null","","","null","61","","","","","","","","","","","","","","","",""
"","ITI","","html-keyboard-response","406","487988","0.0-1.0-558.0","0","0","13464","","null","","","null","61","","","","","","","","","","","","","","","NaN",""
"","S1","","html-keyboard-response","407","488247","0.0-1.0-560.0","0","0","13464","","null","","","null","62","","","","","","","","","","","","","","","",""
"","ISI","","html-keyboard-response","408","490254","0.0-1.0-561.0","0","0","13464","","null","","","null","62","NaN","","","","","","","","","","","","","","",""
"","S2","","html-keyboard-response","409","490512","0.0-1.0-562.0","0","0","13464","","null","","","null","62","","NaN","","","","","","","","","","","","","",""
"","response","","html-keyboard-response","410","491524","0.0-1.0-563.0-0.0","0","0","13464","","1008","","","75","62","","","2","62","training","adjacent","GF","7","6","M.jpg","P.jpg","0","0","1","",""
"","feedback","","html-keyboard-response","411","492530","0.0-1.0-564.0-0.0","0","0","13464","","null","","","null","62","","","","","","","","","","","","","","","",""
"","ITI","","html-keyboard-response","412","493538","0.0-1.0-567.0","0","0","13464","","null","","","null","62","","","","","","","","","","","","","","","NaN",""
"","S1","","html-keyboard-response","413","493796","0.0-1.0-569.0","0","0","13464","","null","","","null","63","","","","","","","","","","","","","","","",""
"","ISI","","html-keyboard-response","414","495804","0.0-1.0-570.0","0","0","13464","","null","","","null","63","NaN","","","","","","","","","","","","","","",""
"","S2","","html-keyboard-response","415","496062","0.0-1.0-571.0","0","0","13464","","null","","","null","63","","NaN","","","","","","","","","","","","","",""
"","response","","html-keyboard-response","416","496690","0.0-1.0-572.0-0.0","0","0","13464","","624","","","68","63","","","2","63","training","adjacent","CD","3","4","O.jpg","L.jpg","1","1","1","",""
"","feedback","","html-keyboard-response","417","497699","0.0-1.0-573.0-0.0","0","0","13464","","null","","","null","63","","","","","","","","","","","","","","","",""
"","ITI","","html-keyboard-response","418","498705","0.0-1.0-576.0","0","0","13464","","null","","","null","63","","","","","","","","","","","","","","","NaN",""
"","S1","","html-keyboard-response","419","498963","0.0-1.0-578.0","0","0","13464","","null","","","null","64","","","","","","","","","","","","","","","",""
"","ISI","","html-keyboard-response","420","500972","0.0-1.0-579.0","0","0","13464","","null","","","null","64","NaN","","","","","","","","","","","","","","",""
"","S2","","html-keyboard-response","421","501228","0.0-1.0-580.0","0","0","13464","","null","","","null","64","","NaN","","","","","","","","","","","","","",""
"","response","","html-keyboard-response","422","501967","0.0-1.0-581.0-0.0","0","0","13464","","736","","","75","64","","","2","64","training","adjacent","ED","5","4","N.jpg","L.jpg","0","0","1","",""
"","feedback","","html-keyboard-response","423","502974","0.0-1.0-582.0-0.0","0","0","13464","","null","","","null","64","","","","","","","","","","","","","","","",""
"","ITI","","html-keyboard-response","424","503981","0.0-1.0-585.0","0","0","13464","","null","","","null","64","","","","","","","","","","","","","","","NaN",""
"","S1","","html-keyboard-response","425","504237","0.0-1.0-587.0","0","0","13464","","null","","","null","65","","","","","","","","","","","","","","","",""
"","ISI","","html-keyboard-response","426","506245","0.0-1.0-588.0","0","0","13464","","null","","","null","65","NaN","","","","","","","","","","","","","","",""
"","S2","","html-keyboard-response","427","506500","0.0-1.0-589.0","0","0","13464","","null","","","null","65","","NaN","","","","","","","","","","","","","",""
"","response","","html-keyboard-response","428","507549","0.0-1.0-590.0-0.0","0","0","13464","","1046","","","68","65","","","2","65","training","adjacent","FG","6","7","P.jpg","M.jpg","1","1","1","",""
"","feedback","","html-keyboard-response","429","508555","0.0-1.0-591.0-0.0","0","0","13464","","null","","","null","65","","","","","","","","","","","","","","","",""
"","ITI","","html-keyboard-response","430","509562","0.0-1.0-594.0","0","0","13464","","null","","","null","65","","","","","","","","","","","","","","","NaN",""
"","S1","","html-keyboard-response","431","509821","0.0-1.0-596.0","0","0","13464","","null","","","null","66","","","","","","","","","","","","","","","",""
"","ISI","","html-keyboard-response","432","511828","0.0-1.0-597.0","0","0","13464","","null","","","null","66","NaN","","","","","","","","","","","","","","",""
"","S2","","html-keyboard-response","433","512085","0.0-1.0-598.0","0","0","13464","","null","","","null","66","","NaN","","","","","","","","","","","","","",""
"","response","","html-keyboard-response","434","512908","0.0-1.0-599.0-0.0","0","0","13464","","819","","","75","66","","","2","66","training","adjacent","CB","3","2","O.jpg","R.jpg","0","0","1","",""
"","feedback","","html-keyboard-response","435","513914","0.0-1.0-600.0-0.0","0","0","13464","","null","","","null","66","","","","","","","","","","","","","","","",""
"","ITI","","html-keyboard-response","436","514920","0.0-1.0-603.0","0","0","13464","","null","","","null","66","","","","","","","","","","","","","","","NaN",""
"","S1","","html-keyboard-response","437","515175","0.0-1.0-605.0","0","0","13464","","null","","","null","67","","","","","","","","","","","","","","","",""
"","ISI","","html-keyboard-response","438","517183","0.0-1.0-606.0","0","0","13464","","null","","","null","67","NaN","","","","","","","","","","","","","","",""
"","S2","","html-keyboard-response","439","517439","0.0-1.0-607.0","0","0","13464","","null","","","null","67","","NaN","","","","","","","","","","","","","",""
"","response","","html-keyboard-response","440","518146","0.0-1.0-608.0-0.0","0","0","13464","","705","","","75","67","","","2","67","training","adjacent","DC","4","3","L.jpg","O.jpg","0","0","1","",""
"","feedback","","html-keyboard-response","441","519153","0.0-1.0-609.0-0.0","0","0","13464","","null","","","null","67","","","","","","","","","","","","","","","",""
"","ITI","","html-keyboard-response","442","520159","0.0-1.0-612.0","0","0","13464","","null","","","null","67","","","","","","","","","","","","","","","NaN",""
"","S1","","html-keyboard-response","443","520415","0.0-1.0-614.0","0","0","13464","","null","","","null","68","","","","","","","","","","","","","","","",""
"","ISI","","html-keyboard-response","444","522419","0.0-1.0-615.0","0","0","13464","","null","","","null","68","NaN","","","","","","","","","","","","","","",""
"","S2","","html-keyboard-response","445","522676","0.0-1.0-616.0","0","0","13464","","null","","","null","68","","NaN","","","","","","","","","","","","","",""
"","response","","html-keyboard-response","446","523852","0.0-1.0-617.0-0.0","0","0","13464","","1172","","","75","68","","","2","68","training","adjacent","FG","6","7","P.jpg","M.jpg","0","1","0","",""
"","feedback","","html-keyboard-response","447","524861","0.0-1.0-618.0-0.0","0","0","13464","","null","","","null","68","","","","","","","","","","","","","","","",""
"","time_out","","html-keyboard-response","448","526865","0.0-1.0-620.0-0.0","0","0","13464","","null","","","null","68","","","","","","","","","","","","","","","",""
"","ITI","","html-keyboard-response","449","527874","0.0-1.0-621.0","0","0","13464","","null","","","null","68","","","","","","","","","","","","","","","NaN",""
"","S1","","html-keyboard-response","450","528130","0.0-1.0-623.0","0","0","13464","","null","","","null","69","","","","","","","","","","","","","","","",""
"","ISI","","html-keyboard-response","451","530138","0.0-1.0-624.0","0","0","13464","","null","","","null","69","NaN","","","","","","","","","","","","","","",""
"","S2","","html-keyboard-response","452","530396","0.0-1.0-625.0","0","0","13464","","null","","","null","69","","NaN","","","","","","","","","","","","","",""
"","response","","html-keyboard-response","453","531204","0.0-1.0-626.0-0.0","0","0","13464","","804","","","75","69","","","2","69","training","adjacent","BA","2","1","R.jpg","Q.jpg","0","0","1","",""
"","feedback","","html-keyboard-response","454","532211","0.0-1.0-627.0-0.0","0","0","13464","","null","","","null","69","","","","","","","","","","","","","","","",""
"","ITI","","html-keyboard-response","455","533217","0.0-1.0-630.0","0","0","13464","","null","","","null","69","","","","","","","","","","","","","","","NaN",""
"","S1","","html-keyboard-response","456","533476","0.0-1.0-632.0","0","0","13464","","null","","","null","70","","","","","","","","","","","","","","","",""
"","ISI","","html-keyboard-response","457","535479","0.0-1.0-633.0","0","0","13464","","null","","","null","70","NaN","","","","","","","","","","","","","","",""
"","S2","","html-keyboard-response","458","535738","0.0-1.0-634.0","0","0","13464","","null","","","null","70","","NaN","","","","","","","","","","","","","",""
"","response","","html-keyboard-response","459","536614","0.0-1.0-635.0-0.0","0","0","13464","","874","","","68","70","","","2","70","training","adjacent","FG","6","7","P.jpg","M.jpg","1","1","1","",""
"","feedback","","html-keyboard-response","460","537621","0.0-1.0-636.0-0.0","0","0","13464","","null","","","null","70","","","","","","","","","","","","","","","",""
"","ITI","","html-keyboard-response","461","538628","0.0-1.0-639.0","0","0","13464","","null","","","null","70","","","","","","","","","","","","","","","NaN",""
"","S1","","html-keyboard-response","462","538886","0.0-1.0-641.0","0","0","13464","","null","","","null","71","","","","","","","","","","","","","","","",""
"","ISI","","html-keyboard-response","463","540895","0.0-1.0-642.0","0","0","13464","","null","","","null","71","NaN","","","","","","","","","","","","","","",""
"","S2","","html-keyboard-response","464","541149","0.0-1.0-643.0","0","0","13464","","null","","","null","71","","NaN","","","","","","","","","","","","","",""
"","response","","html-keyboard-response","465","541695","0.0-1.0-644.0-0.0","0","0","13464","","542","","","75","71","","","2","71","training","adjacent","DC","4","3","L.jpg","O.jpg","0","0","1","",""
"","feedback","","html-keyboard-response","466","542703","0.0-1.0-645.0-0.0","0","0","13464","","null","","","null","71","","","","","","","","","","","","","","","",""
"","ITI","","html-keyboard-response","467","543711","0.0-1.0-648.0","0","0","13464","","null","","","null","71","","","","","","","","","","","","","","","NaN",""
"","S1","","html-keyboard-response","468","543970","0.0-1.0-650.0","0","0","13464","","null","","","null","72","","","","","","","","","","","","","","","",""
"","ISI","","html-keyboard-response","469","545975","0.0-1.0-651.0","0","0","13464","","null","","","null","72","NaN","","","","","","","","","","","","","","",""
"","S2","","html-keyboard-response","470","546232","0.0-1.0-652.0","0","0","13464","","null","","","null","72","","NaN","","","","","","","","","","","","","",""
"","response","","html-keyboard-response","471","547363","0.0-1.0-653.0-0.0","0","0","13464","","1127","","","75","72","","","2","72","training","adjacent","EF","5","6","N.jpg","P.jpg","0","1","0","",""
"","feedback","","html-keyboard-response","472","548370","0.0-1.0-654.0-0.0","0","0","13464","","null","","","null","72","","","","","","","","","","","","","","","",""
"","time_out","","html-keyboard-response","473","550372","0.0-1.0-656.0-0.0","0","0","13464","","null","","","null","72","","","","","","","","","","","","","","","",""
"","ITI","","html-keyboard-response","474","551381","0.0-1.0-657.0","0","0","13464","","null","","","null","72","","","","","","","","","","","","","","","NaN",""
"","S1","","html-keyboard-response","475","551639","0.0-1.0-659.0","0","0","13464","","null","","","null","73","","","","","","","","","","","","","","","",""
"","ISI","","html-keyboard-response","476","553647","0.0-1.0-660.0","0","0","13464","","null","","","null","73","NaN","","","","","","","","","","","","","","",""
"","S2","","html-keyboard-response","477","553902","0.0-1.0-661.0","0","0","13464","","null","","","null","73","","NaN","","","","","","","","","","","","","",""
"","response","","html-keyboard-response","478","554744","0.0-1.0-662.0-0.0","0","0","13464","","838","","","68","73","","","2","73","training","adjacent","FG","6","7","P.jpg","M.jpg","1","1","1","",""
"","feedback","","html-keyboard-response","479","555751","0.0-1.0-663.0-0.0","0","0","13464","","null","","","null","73","","","","","","","","","","","","","","","",""
"","ITI","","html-keyboard-response","480","556758","0.0-1.0-666.0","0","0","13464","","null","","","null","73","","","","","","","","","","","","","","","NaN",""
"","S1","","html-keyboard-response","481","557016","0.0-1.0-668.0","0","0","13464","","null","","","null","74","","","","","","","","","","","","","","","",""
"","ISI","","html-keyboard-response","482","559023","0.0-1.0-669.0","0","0","13464","","null","","","null","74","NaN","","","","","","","","","","","","","","",""
"","S2","","html-keyboard-response","483","559281","0.0-1.0-670.0","0","0","13464","","null","","","null","74","","NaN","","","","","","","","","","","","","",""
"","response","","html-keyboard-response","484","560214","0.0-1.0-671.0-0.0","0","0","13464","","930","","","75","74","","","2","74","training","adjacent","ED","5","4","N.jpg","L.jpg","0","0","1","",""
"","feedback","","html-keyboard-response","485","561220","0.0-1.0-672.0-0.0","0","0","13464","","null","","","null","74","","","","","","","","","","","","","","","",""
"","ITI","","html-keyboard-response","486","562227","0.0-1.0-675.0","0","0","13464","","null","","","null","74","","","","","","","","","","","","","","","NaN",""
"","S1","","html-keyboard-response","487","562481","0.0-1.0-677.0","0","0","13464","","null","","","null","75","","","","","","","","","","","","","","","",""
"","ISI","","html-keyboard-response","488","564488","0.0-1.0-678.0","0","0","13464","","null","","","null","75","NaN","","","","","","","","","","","","","","",""
"","S2","","html-keyboard-response","489","564742","0.0-1.0-679.0","0","0","13464","","null","","","null","75","","NaN","","","","","","","","","","","","","",""
"","response","","html-keyboard-response","490","566080","0.0-1.0-680.0-0.0","0","0","13464","","1335","","","68","75","","","2","75","training","adjacent","EF","5","6","N.jpg","P.jpg","1","1","1","",""
"","feedback","","html-keyboard-response","491","567086","0.0-1.0-681.0-0.0","0","0","13464","","null","","","null","75","","","","","","","","","","","","","","","",""
"","ITI","","html-keyboard-response","492","568094","0.0-1.0-684.0","0","0","13464","","null","","","null","75","","","","","","","","","","","","","","","NaN",""
"","S1","","html-keyboard-response","493","568351","0.0-1.0-686.0","0","0","13464","","null","","","null","76","","","","","","","","","","","","","","","",""
"","ISI","","html-keyboard-response","494","570359","0.0-1.0-687.0","0","0","13464","","null","","","null","76","NaN","","","","","","","","","","","","","","",""
"","S2","","html-keyboard-response","495","570613","0.0-1.0-688.0","0","0","13464","","null","","","null","76","","NaN","","","","","","","","","","","","","",""
"","response","","html-keyboard-response","496","571993","0.0-1.0-689.0-0.0","0","0","13464","","1376","","","68","76","","","2","76","training","adjacent","DE","4","5","L.jpg","N.jpg","1","1","1","",""
"","feedback","","html-keyboard-response","497","572999","0.0-1.0-690.0-0.0","0","0","13464","","null","","","null","76","","","","","","","","","","","","","","","",""
"","ITI","","html-keyboard-response","498","574006","0.0-1.0-693.0","0","0","13464","","null","","","null","76","","","","","","","","","","","","","","","NaN",""
"","S1","","html-keyboard-response","499","574266","0.0-1.0-695.0","0","0","13464","","null","","","null","77","","","","","","","","","","","","","","","",""
"","ISI","","html-keyboard-response","500","576273","0.0-1.0-696.0","0","0","13464","","null","","","null","77","NaN","","","","","","","","","","","","","","",""
"","S2","","html-keyboard-response","501","576532","0.0-1.0-697.0","0","0","13464","","null","","","null","77","","NaN","","","","","","","","","","","","","",""
"","response","","html-keyboard-response","502","577043","0.0-1.0-698.0-0.0","0","0","13464","","508","","","68","77","","","2","77","training","adjacent","CD","3","4","O.jpg","L.jpg","1","1","1","",""
"","feedback","","html-keyboard-response","503","578051","0.0-1.0-699.0-0.0","0","0","13464","","null","","","null","77","","","","","","","","","","","","","","","",""
"","ITI","","html-keyboard-response","504","579057","0.0-1.0-702.0","0","0","13464","","null","","","null","77","","","","","","","","","","","","","","","NaN",""
"","S1","","html-keyboard-response","505","579316","0.0-1.0-704.0","0","0","13464","","null","","","null","78","","","","","","","","","","","","","","","",""
"","ISI","","html-keyboard-response","506","581319","0.0-1.0-705.0","0","0","13464","","null","","","null","78","NaN","","","","","","","","","","","","","","",""
"","S2","","html-keyboard-response","507","581578","0.0-1.0-706.0","0","0","13464","","null","","","null","78","","NaN","","","","","","","","","","","","","",""
"","response","","html-keyboard-response","508","582678","0.0-1.0-707.0-0.0","0","0","13464","","1097","","","75","78","","","2","78","training","adjacent","AB","1","2","Q.jpg","R.jpg","0","1","0","",""
"","feedback","","html-keyboard-response","509","583686","0.0-1.0-708.0-0.0","0","0","13464","","null","","","null","78","","","","","","","","","","","","","","","",""
"","time_out","","html-keyboard-response","510","585692","0.0-1.0-710.0-0.0","0","0","13464","","null","","","null","78","","","","","","","","","","","","","","","",""
"","ITI","","html-keyboard-response","511","586700","0.0-1.0-711.0","0","0","13464","","null","","","null","78","","","","","","","","","","","","","","","NaN",""
"","S1","","html-keyboard-response","512","586957","0.0-1.0-713.0","0","0","13464","","null","","","null","79","","","","","","","","","","","","","","","",""
"","ISI","","html-keyboard-response","513","588964","0.0-1.0-714.0","0","0","13464","","null","","","null","79","NaN","","","","","","","","","","","","","","",""
"","S2","","html-keyboard-response","514","589223","0.0-1.0-715.0","0","0","13464","","null","","","null","79","","NaN","","","","","","","","","","","","","",""
"","response","","html-keyboard-response","515","590648","0.0-1.0-716.0-0.0","0","0","13464","","1421","","","68","79","","","2","79","training","adjacent","BC","2","3","R.jpg","O.jpg","1","1","1","",""
"","feedback","","html-keyboard-response","516","591655","0.0-1.0-717.0-0.0","0","0","13464","","null","","","null","79","","","","","","","","","","","","","","","",""
"","ITI","","html-keyboard-response","517","592662","0.0-1.0-720.0","0","0","13464","","null","","","null","79","","","","","","","","","","","","","","","NaN",""
"","S1","","html-keyboard-response","518","592920","0.0-1.0-722.0","0","0","13464","","null","","","null","80","","","","","","","","","","","","","","","",""
"","ISI","","html-keyboard-response","519","594924","0.0-1.0-723.0","0","0","13464","","null","","","null","80","NaN","","","","","","","","","","","","","","",""
"","S2","","html-keyboard-response","520","595182","0.0-1.0-724.0","0","0","13464","","null","","","null","80","","NaN","","","","","","","","","","","","","",""
"","response","","html-keyboard-response","521","596170","0.0-1.0-725.0-0.0","0","0","13464","","985","","","75","80","","","2","80","training","adjacent","DE","4","5","L.jpg","N.jpg","0","1","0","",""
"","feedback","","html-keyboard-response","522","597177","0.0-1.0-726.0-0.0","0","0","13464","","null","","","null","80","","","","","","","","","","","","","","","",""
"","time_out","","html-keyboard-response","523","599184","0.0-1.0-728.0-0.0","0","0","13464","","null","","","null","80","","","","","","","","","","","","","","","",""
"","ITI","","html-keyboard-response","524","600191","0.0-1.0-729.0","0","0","13464","","null","","","null","80","","","","","","","","","","","","","","","NaN",""
"","S1","","html-keyboard-response","525","600446","0.0-1.0-731.0","0","0","13464","","null","","","null","81","","","","","","","","","","","","","","","",""
"","ISI","","html-keyboard-response","526","602452","0.0-1.0-732.0","0","0","13464","","null","","","null","81","NaN","","","","","","","","","","","","","","",""
"","S2","","html-keyboard-response","527","602709","0.0-1.0-733.0","0","0","13464","","null","","","null","81","","NaN","","","","","","","","","","","","","",""
"","response","","html-keyboard-response","528","603592","0.0-1.0-734.0-0.0","0","0","13464","","881","","","75","81","","","2","81","training","adjacent","BC","2","3","R.jpg","O.jpg","0","1","0","",""
"","feedback","","html-keyboard-response","529","604601","0.0-1.0-735.0-0.0","0","0","13464","","null","","","null","81","","","","","","","","","","","","","","","",""
"","time_out","","html-keyboard-response","530","606607","0.0-1.0-737.0-0.0","0","0","13464","","null","","","null","81","","","","","","","","","","","","","","","",""
"","ITI","","html-keyboard-response","531","607613","0.0-1.0-738.0","0","0","13464","","null","","","null","81","","","","","","","","","","","","","","","NaN",""
"","S1","","html-keyboard-response","532","607873","0.0-1.0-740.0","0","0","13464","","null","","","null","82","","","","","","","","","","","","","","","",""
"","ISI","","html-keyboard-response","533","609881","0.0-1.0-741.0","0","0","13464","","null","","","null","82","NaN","","","","","","","","","","","","","","",""
"","S2","","html-keyboard-response","534","610134","0.0-1.0-742.0","0","0","13464","","null","","","null","82","","NaN","","","","","","","","","","","","","",""
"","response","","html-keyboard-response","535","611105","0.0-1.0-743.0-0.0","0","0","13464","","967","","","68","82","","","2","82","training","adjacent","ED","5","4","N.jpg","L.jpg","1","0","0","",""
"","feedback","","html-keyboard-response","536","612113","0.0-1.0-744.0-0.0","0","0","13464","","null","","","null","82","","","","","","","","","","","","","","","",""
"","time_out","","html-keyboard-response","537","614121","0.0-1.0-746.0-0.0","0","0","13464","","null","","","null","82","","","","","","","","","","","","","","","",""
"","ITI","","html-keyboard-response","538","615129","0.0-1.0-747.0","0","0","13464","","null","","","null","82","","","","","","","","","","","","","","","NaN",""
"","S1","","html-keyboard-response","539","615388","0.0-1.0-749.0","0","0","13464","","null","","","null","83","","","","","","","","","","","","","","","",""
"","ISI","","html-keyboard-response","540","617396","0.0-1.0-750.0","0","0","13464","","null","","","null","83","NaN","","","","","","","","","","","","","","",""
"","S2","","html-keyboard-response","541","617652","0.0-1.0-751.0","0","0","13464","","null","","","null","83","","NaN","","","","","","","","","","","","","",""
"","response","","html-keyboard-response","542","618692","0.0-1.0-752.0-0.0","0","0","13464","","1036","","","68","83","","","2","83","training","adjacent","CD","3","4","O.jpg","L.jpg","1","1","1","",""
"","feedback","","html-keyboard-response","543","619700","0.0-1.0-753.0-0.0","0","0","13464","","null","","","null","83","","","","","","","","","","","","","","","",""
"","ITI","","html-keyboard-response","544","620706","0.0-1.0-756.0","0","0","13464","","null","","","null","83","","","","","","","","","","","","","","","NaN",""
"","S1","","html-keyboard-response","545","620965","0.0-1.0-758.0","0","0","13464","","null","","","null","84","","","","","","","","","","","","","","","",""
"","ISI","","html-keyboard-response","546","622970","0.0-1.0-759.0","0","0","13464","","null","","","null","84","NaN","","","","","","","","","","","","","","",""
"","S2","","html-keyboard-response","547","623229","0.0-1.0-760.0","0","0","13464","","null","","","null","84","","NaN","","","","","","","","","","","","","",""
"","response","","html-keyboard-response","548","624367","0.0-1.0-761.0-0.0","0","0","13464","","1136","","","68","84","","","2","84","training","adjacent","GF","7","6","M.jpg","P.jpg","1","0","0","",""
"","feedback","","html-keyboard-response","549","625374","0.0-1.0-762.0-0.0","0","0","13464","","null","","","null","84","","","","","","","","","","","","","","","",""
"","time_out","","html-keyboard-response","550","627383","0.0-1.0-764.0-0.0","0","0","13464","","null","","","null","84","","","","","","","","","","","","","","","",""
"","ITI","","html-keyboard-response","551","628386","0.0-1.0-765.0","0","0","13464","","null","","","null","84","","","","","","","","","","","","","","","NaN",""
"","S1","","html-keyboard-response","552","628645","0.0-1.0-767.0","0","0","13464","","null","","","null","85","","","","","","","","","","","","","","","",""
"","ISI","","html-keyboard-response","553","630651","0.0-1.0-768.0","0","0","13464","","null","","","null","85","NaN","","","","","","","","","","","","","","",""
"","S2","","html-keyboard-response","554","630907","0.0-1.0-769.0","0","0","13464","","null","","","null","85","","NaN","","","","","","","","","","","","","",""
"","response","","html-keyboard-response","555","631536","0.0-1.0-770.0-0.0","0","0","13464","","626","","","75","85","","","2","85","training","adjacent","CB","3","2","O.jpg","R.jpg","0","0","1","",""
"","feedback","","html-keyboard-response","556","632543","0.0-1.0-771.0-0.0","0","0","13464","","null","","","null","85","","","","","","","","","","","","","","","",""
"","ITI","","html-keyboard-response","557","633550","0.0-1.0-774.0","0","0","13464","","null","","","null","85","","","","","","","","","","","","","","","NaN",""
"","S1","","html-keyboard-response","558","633809","0.0-1.0-776.0","0","0","13464","","null","","","null","86","","","","","","","","","","","","","","","",""
"","ISI","","html-keyboard-response","559","635814","0.0-1.0-777.0","0","0","13464","","null","","","null","86","NaN","","","","","","","","","","","","","","",""
"","S2","","html-keyboard-response","560","636073","0.0-1.0-778.0","0","0","13464","","null","","","null","86","","NaN","","","","","","","","","","","","","",""
"","response","","html-keyboard-response","561","637155","0.0-1.0-779.0-0.0","0","0","13464","","1079","","","75","86","","","2","86","training","adjacent","FE","6","5","P.jpg","N.jpg","0","0","1","",""
"","feedback","","html-keyboard-response","562","638163","0.0-1.0-780.0-0.0","0","0","13464","","null","","","null","86","","","","","","","","","","","","","","","",""
"","ITI","","html-keyboard-response","563","639169","0.0-1.0-783.0","0","0","13464","","null","","","null","86","","","","","","","","","","","","","","","NaN",""
"","S1","","html-keyboard-response","564","639427","0.0-1.0-785.0","0","0","13464","","null","","","null","87","","","","","","","","","","","","","","","",""
"","ISI","","html-keyboard-response","565","641436","0.0-1.0-786.0","0","0","13464","","null","","","null","87","NaN","","","","","","","","","","","","","","",""
"","S2","","html-keyboard-response","566","641691","0.0-1.0-787.0","0","0","13464","","null","","","null","87","","NaN","","","","","","","","","","","","","",""
"","response","","html-keyboard-response","567","642496","0.0-1.0-788.0-0.0","0","0","13464","","801","","","75","87","","","2","87","training","adjacent","BA","2","1","R.jpg","Q.jpg","0","0","1","",""
"","feedback","","html-keyboard-response","568","643503","0.0-1.0-789.0-0.0","0","0","13464","","null","","","null","87","","","","","","","","","","","","","","","",""
"","ITI","","html-keyboard-response","569","644510","0.0-1.0-792.0","0","0","13464","","null","","","null","87","","","","","","","","","","","","","","","NaN",""
"","S1","","html-keyboard-response","570","644768","0.0-1.0-794.0","0","0","13464","","null","","","null","88","","","","","","","","","","","","","","","",""
"","ISI","","html-keyboard-response","571","646774","0.0-1.0-795.0","0","0","13464","","null","","","null","88","NaN","","","","","","","","","","","","","","",""
"","S2","","html-keyboard-response","572","647030","0.0-1.0-796.0","0","0","13464","","null","","","null","88","","NaN","","","","","","","","","","","","","",""
"","response","","html-keyboard-response","573","648339","0.0-1.0-797.0-0.0","0","0","13464","","1304","","","68","88","","","2","88","training","adjacent","EF","5","6","N.jpg","P.jpg","1","1","1","",""
"","feedback","","html-keyboard-response","574","649347","0.0-1.0-798.0-0.0","0","0","13464","","null","","","null","88","","","","","","","","","","","","","","","",""
"","ITI","","html-keyboard-response","575","650354","0.0-1.0-801.0","0","0","13464","","null","","","null","88","","","","","","","","","","","","","","","NaN",""
"","S1","","html-keyboard-response","576","650612","0.0-1.0-803.0","0","0","13464","","null","","","null","89","","","","","","","","","","","","","","","",""
"","ISI","","html-keyboard-response","577","652616","0.0-1.0-804.0","0","0","13464","","null","","","null","89","NaN","","","","","","","","","","","","","","",""
"","S2","","html-keyboard-response","578","652875","0.0-1.0-805.0","0","0","13464","","null","","","null","89","","NaN","","","","","","","","","","","","","",""
"","response","","html-keyboard-response","579","654180","0.0-1.0-806.0-0.0","0","0","13464","","1302","","","68","89","","","2","89","training","adjacent","BC","2","3","R.jpg","O.jpg","1","1","1","",""
"","feedback","","html-keyboard-response","580","655190","0.0-1.0-807.0-0.0","0","0","13464","","null","","","null","89","","","","","","","","","","","","","","","",""
"","ITI","","html-keyboard-response","581","656196","0.0-1.0-810.0","0","0","13464","","null","","","null","89","","","","","","","","","","","","","","","NaN",""
"","S1","","html-keyboard-response","582","656455","0.0-1.0-812.0","0","0","13464","","null","","","null","90","","","","","","","","","","","","","","","",""
