"success","ttype","start_time","trial_type","trial_index","time_elapsed","internal_node_id","warning","missed_checkup","PID","view_history","rt","responses","repeat_instructions","key_press","index","keypress_isi","keypress_S2","block","trial_num","phase","group_type","pair_type","S1_stim","S2_stim","S1_img","S2_img","S1_chosen","S1_higher","accuracy","keypress_iti","total_bonus_tally"
"true","full_screen","d03042023hr1702","fullscreen","0","35066","0.0-0.0","0","0","89218","","","","","","","","","","","","","","","","","","","","","",""
"","instructions","","instructions","1","73732","0.0-1.0-0.0-0.0","0","0","89218","[{""page_index"":0,""viewing_time"":5681},{""page_index"":1,""viewing_time"":16396},{""page_index"":2,""viewing_time"":14120},{""page_index"":3,""viewing_time"":2467}]","38665","","","","","","","","","","","","","","","","","","","",""
"","comprehension_check","","survey-multi-choice","2","100696","0.0-1.0-0.0-1.0","0","0","89218","","26961","{""Q0"":""True"",""Q1"":""D"",""Q2"":""Only when the screen 'MAKE A CHOICE' is shown"",""Q3"":""Green mark"",""Q4"":""either D or K""}","1","","","","","","","","","","","","","","","","","",""
"","missed_instruction_checkup","","html-keyboard-response","3","103123","0.0-1.0-0.0-2.0-0.0","0","1","89218","","2425","","","32","","","","","","","","","","","","","","","","",""
"","instructions","","instructions","4","120939","0.0-1.0-0.1-0.1","0","0","89218","[{""page_index"":0,""viewing_time"":2046},{""page_index"":1,""viewing_time"":13860},{""page_index"":2,""viewing_time"":965},{""page_index"":3,""viewing_time"":944}]","17815","","","","","","","","","","","","","","","","","","","",""
"","comprehension_check","","survey-multi-choice","5","127792","0.0-1.0-0.1-1.1","0","0","89218","","6852","{""Q0"":""True"",""Q1"":""D"",""Q2"":""Once the second image appears and while the screen 'MAKE A CHOICE' is shown"",""Q3"":""Green mark"",""Q4"":""either D or K""}","0","","","","","","","","","","","","","","","","","",""
"","start_exp","","html-keyboard-response","6","147252","0.0-1.0-1.0","0","0","89218","","19457","","","32","","","","","","","","","","","","","","","","",""
"","S1","","html-keyboard-response","7","147504","0.0-1.0-2.0","0","0","89218","","null","","","null","0","","","","","","","","","","","","","","","",""
"","ISI","","html-keyboard-response","8","148006","0.0-1.0-3.0","0","0","89218","","null","","","null","0","NaN","","","","","","","","","","","","","","",""
"","S2","","html-keyboard-response","9","148257","0.0-1.0-4.0","0","0","89218","","null","","","null","0","","NaN","","","","","","","","","","","","","",""
"","response","","html-keyboard-response","10","148891","0.0-1.0-5.0-0.0","0","0","89218","","632","","","68","0","","","1","0","training","adjacent","DC","4","3","M.jpg","N.jpg","1","0","0","",""
"","feedback","","html-keyboard-response","11","149893","0.0-1.0-6.0-0.0","0","0","89218","","null","","","null","0","","","","","","","","","","","","","","","",""
"","time_out","","html-keyboard-response","12","151894","0.0-1.0-8.0-0.0","0","0","89218","","null","","","null","0","","","","","","","","","","","","","","","",""
"","ITI","","html-keyboard-response","13","152896","0.0-1.0-9.0","0","0","89218","","null","","","null","0","","","","","","","","","","","","","","","NaN",""
"","S1","","html-keyboard-response","14","153149","0.0-1.0-11.0","0","0","89218","","null","","","null","1","","","","","","","","","","","","","","","",""
"","ISI","","html-keyboard-response","15","153651","0.0-1.0-12.0","0","0","89218","","null","","","null","1","NaN","","","","","","","","","","","","","","",""
"","S2","","html-keyboard-response","16","153903","0.0-1.0-13.0","0","0","89218","","null","","","null","1","","NaN","","","","","","","","","","","","","",""
"","response","","html-keyboard-response","17","154685","0.0-1.0-14.0-0.0","0","0","89218","","781","","","75","1","","","1","1","training","adjacent","EF","5","6","P.jpg","O.jpg","0","1","0","",""
"","feedback","","html-keyboard-response","18","155686","0.0-1.0-15.0-0.0","0","0","89218","","null","","","null","1","","","","","","","","","","","","","","","",""
"","time_out","","html-keyboard-response","19","157688","0.0-1.0-17.0-0.0","0","0","89218","","null","","","null","1","","","","","","","","","","","","","","","",""
"","ITI","","html-keyboard-response","20","158689","0.0-1.0-18.0","0","0","89218","","null","","","null","1","","","","","","","","","","","","","","","NaN",""
"","S1","","html-keyboard-response","21","158940","0.0-1.0-20.0","0","0","89218","","null","","","null","2","","","","","","","","","","","","","","","",""
"","ISI","","html-keyboard-response","22","159441","0.0-1.0-21.0","0","0","89218","","null","","","null","2","NaN","","","","","","","","","","","","","","",""
"","S2","","html-keyboard-response","23","159693","0.0-1.0-22.0","0","0","89218","","null","","","null","2","","NaN","","","","","","","","","","","","","",""
"","response","","html-keyboard-response","24","160633","0.0-1.0-23.0-0.0","0","0","89218","","938","","","75","2","","","1","2","training","adjacent","GF","7","6","Q.jpg","O.jpg","0","0","1","",""
"","feedback","","html-keyboard-response","25","161634","0.0-1.0-24.0-0.0","0","0","89218","","null","","","null","2","","","","","","","","","","","","","","","",""
"","ITI","","html-keyboard-response","26","162636","0.0-1.0-27.0","0","0","89218","","null","","","null","2","","","","","","","","","","","","","","","NaN",""
"","S1","","html-keyboard-response","27","162888","0.0-1.0-29.0","0","0","89218","","null","","","null","3","","","","","","","","","","","","","","","",""
"","ISI","","html-keyboard-response","28","163389","0.0-1.0-30.0","0","0","89218","","null","","","null","3","NaN","","","","","","","","","","","","","","",""
"","S2","","html-keyboard-response","29","163641","0.0-1.0-31.0","0","0","89218","","null","","","null","3","","NaN","","","","","","","","","","","","","",""
"","response","","html-keyboard-response","30","164037","0.0-1.0-32.0-0.0","0","0","89218","","395","","","68","3","","","1","3","training","adjacent","FE","6","5","O.jpg","P.jpg","1","0","0","",""
"","feedback","","html-keyboard-response","31","165039","0.0-1.0-33.0-0.0","0","0","89218","","null","","","null","3","","","","","","","","","","","","","","","",""
"","time_out","","html-keyboard-response","32","167041","0.0-1.0-35.0-0.0","0","0","89218","","null","","","null","3","","","","","","","","","","","","","","","",""
"","ITI","","html-keyboard-response","33","168042","0.0-1.0-36.0","0","0","89218","","null","","","null","3","","","","","","","","","","","","","","","NaN",""
"","S1","","html-keyboard-response","34","168294","0.0-1.0-38.0","0","0","89218","","null","","","null","4","","","","","","","","","","","","","","","",""
"","ISI","","html-keyboard-response","35","168796","0.0-1.0-39.0","0","0","89218","","null","","","null","4","NaN","","","","","","","","","","","","","","",""
"","S2","","html-keyboard-response","36","169047","0.0-1.0-40.0","0","0","89218","","null","","","null","4","","NaN","","","","","","","","","","","","","",""
"","response","","html-keyboard-response","37","169753","0.0-1.0-41.0-0.0","0","0","89218","","705","","","75","4","","","1","4","training","adjacent","CD","3","4","N.jpg","M.jpg","0","1","0","",""
"","feedback","","html-keyboard-response","38","170755","0.0-1.0-42.0-0.0","0","0","89218","","null","","","null","4","","","","","","","","","","","","","","","",""
"","time_out","","html-keyboard-response","39","172757","0.0-1.0-44.0-0.0","0","0","89218","","null","","","null","4","","","","","","","","","","","","","","","",""
"","ITI","","html-keyboard-response","40","173758","0.0-1.0-45.0","0","0","89218","","null","","","null","4","","","","","","","","","","","","","","","NaN",""
"","S1","","html-keyboard-response","41","174009","0.0-1.0-47.0","0","0","89218","","null","","","null","5","","","","","","","","","","","","","","","",""
"","ISI","","html-keyboard-response","42","174510","0.0-1.0-48.0","0","0","89218","","null","","","null","5","NaN","","","","","","","","","","","","","","",""
"","S2","","html-keyboard-response","43","174762","0.0-1.0-49.0","0","0","89218","","null","","","null","5","","NaN","","","","","","","","","","","","","",""
"","response","","html-keyboard-response","44","175568","0.0-1.0-50.0-0.0","0","0","89218","","805","","","68","5","","","1","5","training","adjacent","FE","6","5","O.jpg","P.jpg","1","0","0","",""
"","feedback","","html-keyboard-response","45","176569","0.0-1.0-51.0-0.0","0","0","89218","","null","","","null","5","","","","","","","","","","","","","","","",""
"","time_out","","html-keyboard-response","46","178571","0.0-1.0-53.0-0.0","0","0","89218","","null","","","null","5","","","","","","","","","","","","","","","",""
"","ITI","","html-keyboard-response","47","179572","0.0-1.0-54.0","0","0","89218","","null","","","null","5","","","","","","","","","","","","","","","NaN",""
"","S1","","html-keyboard-response","48","179825","0.0-1.0-56.0","0","0","89218","","null","","","null","6","","","","","","","","","","","","","","","",""
"","ISI","","html-keyboard-response","49","180326","0.0-1.0-57.0","0","0","89218","","null","","","null","6","NaN","","","","","","","","","","","","","","",""
"","S2","","html-keyboard-response","50","180578","0.0-1.0-58.0","0","0","89218","","null","","","null","6","","NaN","","","","","","","","","","","","","",""
"","response","","html-keyboard-response","51","181748","0.0-1.0-59.0-0.0","0","0","89218","","1169","","","68","6","","","1","6","training","adjacent","ED","5","4","P.jpg","M.jpg","1","0","0","",""
"","feedback","","html-keyboard-response","52","182750","0.0-1.0-60.0-0.0","0","0","89218","","null","","","null","6","","","","","","","","","","","","","","","",""
"","time_out","","html-keyboard-response","53","184751","0.0-1.0-62.0-0.0","0","0","89218","","null","","","null","6","","","","","","","","","","","","","","","",""
"","ITI","","html-keyboard-response","54","185752","0.0-1.0-63.0","0","0","89218","","null","","","null","6","","","","","","","","","","","","","","","NaN",""
"","S1","","html-keyboard-response","55","186004","0.0-1.0-65.0","0","0","89218","","null","","","null","7","","","","","","","","","","","","","","","",""
"","ISI","","html-keyboard-response","56","186505","0.0-1.0-66.0","0","0","89218","","null","","","null","7","NaN","","","","","","","","","","","","","","",""
"","S2","","html-keyboard-response","57","186757","0.0-1.0-67.0","0","0","89218","","null","","","null","7","","NaN","","","","","","","","","","","","","",""
"","response","","html-keyboard-response","58","188117","0.0-1.0-68.0-0.0","0","0","89218","","1359","","","68","7","","","1","7","training","adjacent","GF","7","6","Q.jpg","O.jpg","1","0","0","",""
"","feedback","","html-keyboard-response","59","189118","0.0-1.0-69.0-0.0","0","0","89218","","null","","","null","7","","","","","","","","","","","","","","","",""
"","time_out","","html-keyboard-response","60","191119","0.0-1.0-71.0-0.0","0","0","89218","","null","","","null","7","","","","","","","","","","","","","","","",""
"","ITI","","html-keyboard-response","61","192121","0.0-1.0-72.0","0","0","89218","","null","","","null","7","","","","","","","","","","","","","","","NaN",""
"","S1","","html-keyboard-response","62","192373","0.0-1.0-74.0","0","0","89218","","null","","","null","8","","","","","","","","","","","","","","","",""
"","ISI","","html-keyboard-response","63","192875","0.0-1.0-75.0","0","0","89218","","null","","","null","8","NaN","","","","","","","","","","","","","","",""
"","S2","","html-keyboard-response","64","193127","0.0-1.0-76.0","0","0","89218","","null","","","null","8","","NaN","","","","","","","","","","","","","",""
"","response","","html-keyboard-response","65","194879","0.0-1.0-77.0-0.0","0","0","89218","","null","","","null","8","","","1","8","training","adjacent","FE","6","5","O.jpg","P.jpg","NaN","0","0","",""
"","too_slow_prompt","","html-keyboard-response","66","195881","0.0-1.0-79.0-0.0","1","0","89218","","null","","","null","","","","","","","","","","","","","","","","",""
"","time_out","","html-keyboard-response","67","197882","0.0-1.0-80.0-0.0","0","0","89218","","null","","","null","8","","","","","","","","","","","","","","","",""
"","ITI","","html-keyboard-response","68","198884","0.0-1.0-81.0","0","0","89218","","null","","","null","8","","","","","","","","","","","","","","","NaN",""
"","S1","","html-keyboard-response","69","199136","0.0-1.0-83.0","0","0","89218","","null","","","null","9","","","","","","","","","","","","","","","",""
"","ISI","","html-keyboard-response","70","199637","0.0-1.0-84.0","0","0","89218","","null","","","null","9","NaN","","","","","","","","","","","","","","",""
"","S2","","html-keyboard-response","71","199889","0.0-1.0-85.0","0","0","89218","","null","","","null","9","","NaN","","","","","","","","","","","","","",""
"","response","","html-keyboard-response","72","200307","0.0-1.0-86.0-0.0","0","0","89218","","417","","","75","9","","","1","9","training","adjacent","CB","3","2","N.jpg","R.jpg","0","0","1","",""
"","feedback","","html-keyboard-response","73","201308","0.0-1.0-87.0-0.0","0","0","89218","","null","","","null","9","","","","","","","","","","","","","","","",""
"","ITI","","html-keyboard-response","74","202310","0.0-1.0-90.0","0","0","89218","","null","","","null","9","","","","","","","","","","","","","","","NaN",""
"","S1","","html-keyboard-response","75","202562","0.0-1.0-92.0","0","0","89218","","null","","","null","10","","","","","","","","","","","","","","","",""
"","ISI","","html-keyboard-response","76","203063","0.0-1.0-93.0","0","0","89218","","null","","","null","10","NaN","","","","","","","","","","","","","","",""
"","S2","","html-keyboard-response","77","203314","0.0-1.0-94.0","0","0","89218","","null","","","null","10","","NaN","","","","","","","","","","","","","",""
"","response","","html-keyboard-response","78","203664","0.0-1.0-95.0-0.0","0","0","89218","","348","","","75","10","","","1","10","training","adjacent","DE","4","5","M.jpg","P.jpg","0","1","0","",""
"","feedback","","html-keyboard-response","79","204666","0.0-1.0-96.0-0.0","0","0","89218","","null","","","null","10","","","","","","","","","","","","","","","",""
"","time_out","","html-keyboard-response","80","206667","0.0-1.0-98.0-0.0","0","0","89218","","null","","","null","10","","","","","","","","","","","","","","","",""
"","ITI","","html-keyboard-response","81","207669","0.0-1.0-99.0","0","0","89218","","null","","","null","10","","","","","","","","","","","","","","","NaN",""
"","S1","","html-keyboard-response","82","207920","0.0-1.0-101.0","0","0","89218","","null","","","null","11","","","","","","","","","","","","","","","",""
"","ISI","","html-keyboard-response","83","208422","0.0-1.0-102.0","0","0","89218","","null","","","null","11","NaN","","","","","","","","","","","","","","",""
"","S2","","html-keyboard-response","84","208673","0.0-1.0-103.0","0","0","89218","","null","","","null","11","","NaN","","","","","","","","","","","","","",""
"","response","","html-keyboard-response","85","209212","0.0-1.0-104.0-0.0","0","0","89218","","538","","","75","11","","","1","11","training","adjacent","CD","3","4","N.jpg","M.jpg","0","1","0","",""
"","feedback","","html-keyboard-response","86","210213","0.0-1.0-105.0-0.0","0","0","89218","","null","","","null","11","","","","","","","","","","","","","","","",""
"","time_out","","html-keyboard-response","87","212215","0.0-1.0-107.0-0.0","0","0","89218","","null","","","null","11","","","","","","","","","","","","","","","",""
"","ITI","","html-keyboard-response","88","213217","0.0-1.0-108.0","0","0","89218","","null","","","null","11","","","","","","","","","","","","","","","NaN",""
"","S1","","html-keyboard-response","89","213469","0.0-1.0-110.0","0","0","89218","","null","","","null","12","","","","","","","","","","","","","","","",""
"","ISI","","html-keyboard-response","90","213970","0.0-1.0-111.0","0","0","89218","","null","","","null","12","NaN","","","","","","","","","","","","","","",""
"","S2","","html-keyboard-response","91","214222","0.0-1.0-112.0","0","0","89218","","null","","","null","12","","NaN","","","","","","","","","","","","","",""
"","response","","html-keyboard-response","92","215160","0.0-1.0-113.0-0.0","0","0","89218","","937","","","75","12","","","1","12","training","adjacent","BA","2","1","R.jpg","L.jpg","0","0","1","",""
"","feedback","","html-keyboard-response","93","216161","0.0-1.0-114.0-0.0","0","0","89218","","null","","","null","12","","","","","","","","","","","","","","","",""
"","ITI","","html-keyboard-response","94","217162","0.0-1.0-117.0","0","0","89218","","null","","","null","12","","","","","","","","","","","","","","","NaN",""
"","S1","","html-keyboard-response","95","217414","0.0-1.0-119.0","0","0","89218","","null","","","null","13","","","","","","","","","","","","","","","",""
"","ISI","","html-keyboard-response","96","217916","0.0-1.0-120.0","0","0","89218","","null","","","null","13","NaN","","","","","","","","","","","","","","",""
"","S2","","html-keyboard-response","97","218168","0.0-1.0-121.0","0","0","89218","","null","","","null","13","","NaN","","","","","","","","","","","","","",""
"","response","","html-keyboard-response","98","219470","0.0-1.0-122.0-0.0","0","0","89218","","1301","","","68","13","","","1","13","training","adjacent","FG","6","7","O.jpg","Q.jpg","1","1","1","",""
"","feedback","","html-keyboard-response","99","220472","0.0-1.0-123.0-0.0","0","0","89218","","null","","","null","13","","","","","","","","","","","","","","","",""
"","ITI","","html-keyboard-response","100","221474","0.0-1.0-126.0","0","0","89218","","null","","","null","13","","","","","","","","","","","","","","","NaN",""
"","S1","","html-keyboard-response","101","221725","0.0-1.0-128.0","0","0","89218","","null","","","null","14","","","","","","","","","","","","","","","",""
"","ISI","","html-keyboard-response","102","222227","0.0-1.0-129.0","0","0","89218","","null","","","null","14","NaN","","","","","","","","","","","","","","",""
"","S2","","html-keyboard-response","103","222479","0.0-1.0-130.0","0","0","89218","","null","","","null","14","","NaN","","","","","","","","","","","","","",""
"","response","","html-keyboard-response","104","223370","0.0-1.0-131.0-0.0","0","0","89218","","890","","","75","14","","","1","14","training","adjacent","ED","5","4","P.jpg","M.jpg","0","0","1","",""
"","feedback","","html-keyboard-response","105","224371","0.0-1.0-132.0-0.0","0","0","89218","","null","","","null","14","","","","","","","","","","","","","","","",""
"","ITI","","html-keyboard-response","106","225373","0.0-1.0-135.0","0","0","89218","","null","","","null","14","","","","","","","","","","","","","","","NaN",""
"","S1","","html-keyboard-response","107","225624","0.0-1.0-137.0","0","0","89218","","null","","","null","15","","","","","","","","","","","","","","","",""
"","ISI","","html-keyboard-response","108","226127","0.0-1.0-138.0","0","0","89218","","null","","","null","15","NaN","","","","","","","","","","","","","","",""
"","S2","","html-keyboard-response","109","226378","0.0-1.0-139.0","0","0","89218","","null","","","null","15","","NaN","","","","","","","","","","","","","",""
"","response","","html-keyboard-response","110","227123","0.0-1.0-140.0-0.0","0","0","89218","","744","","","75","15","","","1","15","training","adjacent","AB","1","2","L.jpg","R.jpg","0","1","0","",""
"","feedback","","html-keyboard-response","111","228125","0.0-1.0-141.0-0.0","0","0","89218","","null","","","null","15","","","","","","","","","","","","","","","",""
"","time_out","","html-keyboard-response","112","230126","0.0-1.0-143.0-0.0","0","0","89218","","null","","","null","15","","","","","","","","","","","","","","","",""
"","ITI","","html-keyboard-response","113","231128","0.0-1.0-144.0","0","0","89218","","null","","","null","15","","","","","","","","","","","","","","","NaN",""
"","S1","","html-keyboard-response","114","231384","0.0-1.0-146.0","0","0","89218","","null","","","null","16","","","","","","","","","","","","","","","",""
"","ISI","","html-keyboard-response","115","231886","0.0-1.0-147.0","0","0","89218","","null","","","null","16","NaN","","","","","","","","","","","","","","",""
"","S2","","html-keyboard-response","116","232138","0.0-1.0-148.0","0","0","89218","","null","","","null","16","","NaN","","","","","","","","","","","","","",""
"","response","","html-keyboard-response","117","232960","0.0-1.0-149.0-0.0","0","0","89218","","821","","","75","16","","","1","16","training","adjacent","AB","1","2","L.jpg","R.jpg","0","1","0","",""
"","feedback","","html-keyboard-response","118","233962","0.0-1.0-150.0-0.0","0","0","89218","","null","","","null","16","","","","","","","","","","","","","","","",""
"","time_out","","html-keyboard-response","119","235963","0.0-1.0-152.0-0.0","0","0","89218","","null","","","null","16","","","","","","","","","","","","","","","",""
"","ITI","","html-keyboard-response","120","236965","0.0-1.0-153.0","0","0","89218","","null","","","null","16","","","","","","","","","","","","","","","NaN",""
"","S1","","html-keyboard-response","121","237216","0.0-1.0-155.0","0","0","89218","","null","","","null","17","","","","","","","","","","","","","","","",""
"","ISI","","html-keyboard-response","122","237718","0.0-1.0-156.0","0","0","89218","","null","","","null","17","NaN","","","","","","","","","","","","","","",""
"","S2","","html-keyboard-response","123","237969","0.0-1.0-157.0","0","0","89218","","null","","","null","17","","NaN","","","","","","","","","","","","","",""
"","response","","html-keyboard-response","124","238790","0.0-1.0-158.0-0.0","0","0","89218","","820","","","68","17","","","1","17","training","adjacent","CD","3","4","N.jpg","M.jpg","1","1","1","",""
"","feedback","","html-keyboard-response","125","239792","0.0-1.0-159.0-0.0","0","0","89218","","null","","","null","17","","","","","","","","","","","","","","","",""
"","ITI","","html-keyboard-response","126","240793","0.0-1.0-162.0","0","0","89218","","null","","","null","17","","","","","","","","","","","","","","","NaN",""
"","S1","","html-keyboard-response","127","241045","0.0-1.0-164.0","0","0","89218","","null","","","null","18","","","","","","","","","","","","","","","",""
"","ISI","","html-keyboard-response","128","241546","0.0-1.0-165.0","0","0","89218","","null","","","null","18","NaN","","","","","","","","","","","","","","",""
"","S2","","html-keyboard-response","129","241798","0.0-1.0-166.0","0","0","89218","","null","","","null","18","","NaN","","","","","","","","","","","","","",""
"","response","","html-keyboard-response","130","242409","0.0-1.0-167.0-0.0","0","0","89218","","610","","","75","18","","","1","18","training","adjacent","BA","2","1","R.jpg","L.jpg","0","0","1","",""
"","feedback","","html-keyboard-response","131","243411","0.0-1.0-168.0-0.0","0","0","89218","","null","","","null","18","","","","","","","","","","","","","","","",""
"","ITI","","html-keyboard-response","132","244413","0.0-1.0-171.0","0","0","89218","","null","","","null","18","","","","","","","","","","","","","","","NaN",""
"","S1","","html-keyboard-response","133","244665","0.0-1.0-173.0","0","0","89218","","null","","","null","19","","","","","","","","","","","","","","","",""
"","ISI","","html-keyboard-response","134","245166","0.0-1.0-174.0","0","0","89218","","null","","","null","19","NaN","","","","","","","","","","","","","","",""
"","S2","","html-keyboard-response","135","245418","0.0-1.0-175.0","0","0","89218","","null","","","null","19","","NaN","","","","","","","","","","","","","",""
"","response","","html-keyboard-response","136","246142","0.0-1.0-176.0-0.0","0","0","89218","","723","","","68","19","","","1","19","training","adjacent","BC","2","3","R.jpg","N.jpg","1","1","1","",""
"","feedback","","html-keyboard-response","137","247144","0.0-1.0-177.0-0.0","0","0","89218","","null","","","null","19","","","","","","","","","","","","","","","",""
"","ITI","","html-keyboard-response","138","248145","0.0-1.0-180.0","0","0","89218","","null","","","null","19","","","","","","","","","","","","","","","NaN",""
"","S1","","html-keyboard-response","139","248397","0.0-1.0-182.0","0","0","89218","","null","","","null","20","","","","","","","","","","","","","","","",""
"","ISI","","html-keyboard-response","140","248898","0.0-1.0-183.0","0","0","89218","","null","","","null","20","NaN","","","","","","","","","","","","","","",""
"","S2","","html-keyboard-response","141","249150","0.0-1.0-184.0","0","0","89218","","null","","","null","20","","NaN","","","","","","","","","","","","","",""
"","response","","html-keyboard-response","142","249856","0.0-1.0-185.0-0.0","0","0","89218","","705","","","68","20","","","1","20","training","adjacent","EF","5","6","P.jpg","O.jpg","1","1","1","",""
"","feedback","","html-keyboard-response","143","250858","0.0-1.0-186.0-0.0","0","0","89218","","null","","","null","20","","","","","","","","","","","","","","","",""
"","ITI","","html-keyboard-response","144","251859","0.0-1.0-189.0","0","0","89218","","null","","","null","20","","","","","","","","","","","","","","","NaN",""
"","S1","","html-keyboard-response","145","252111","0.0-1.0-191.0","0","0","89218","","null","","","null","21","","","","","","","","","","","","","","","",""
"","ISI","","html-keyboard-response","146","252613","0.0-1.0-192.0","0","0","89218","","null","","","null","21","NaN","","","","","","","","","","","","","","",""
"","S2","","html-keyboard-response","147","252864","0.0-1.0-193.0","0","0","89218","","null","","","null","21","","NaN","","","","","","","","","","","","","",""
"","response","","html-keyboard-response","148","253400","0.0-1.0-194.0-0.0","0","0","89218","","535","","","75","21","","","1","21","training","adjacent","DC","4","3","M.jpg","N.jpg","0","0","1","",""
"","feedback","","html-keyboard-response","149","254402","0.0-1.0-195.0-0.0","0","0","89218","","null","","","null","21","","","","","","","","","","","","","","","",""
"","ITI","","html-keyboard-response","150","255404","0.0-1.0-198.0","0","0","89218","","null","","","null","21","","","","","","","","","","","","","","","NaN",""
"","S1","","html-keyboard-response","151","255656","0.0-1.0-200.0","0","0","89218","","null","","","null","22","","","","","","","","","","","","","","","",""
"","ISI","","html-keyboard-response","152","256157","0.0-1.0-201.0","0","0","89218","","null","","","null","22","NaN","","","","","","","","","","","","","","",""
"","S2","","html-keyboard-response","153","256409","0.0-1.0-202.0","0","0","89218","","null","","","null","22","","NaN","","","","","","","","","","","","","",""
"","response","","html-keyboard-response","154","256785","0.0-1.0-203.0-0.0","0","0","89218","","375","","","68","22","","","1","22","training","adjacent","AB","1","2","L.jpg","R.jpg","1","1","1","",""
"","feedback","","html-keyboard-response","155","257800","0.0-1.0-204.0-0.0","0","0","89218","","null","","","null","22","","","","","","","","","","","","","","","",""
"","ITI","","html-keyboard-response","156","258801","0.0-1.0-207.0","0","0","89218","","null","","","null","22","","","","","","","","","","","","","","","NaN",""
"","S1","","html-keyboard-response","157","259053","0.0-1.0-209.0","0","0","89218","","null","","","null","23","","","","","","","","","","","","","","","",""
"","ISI","","html-keyboard-response","158","259555","0.0-1.0-210.0","0","0","89218","","null","","","null","23","NaN","","","","","","","","","","","","","","",""
"","S2","","html-keyboard-response","159","259806","0.0-1.0-211.0","0","0","89218","","null","","","null","23","","NaN","","","","","","","","","","","","","",""
"","response","","html-keyboard-response","160","260390","0.0-1.0-212.0-0.0","0","0","89218","","583","","","68","23","","","1","23","training","adjacent","GF","7","6","Q.jpg","O.jpg","1","0","0","",""
"","feedback","","html-keyboard-response","161","261392","0.0-1.0-213.0-0.0","0","0","89218","","null","","","null","23","","","","","","","","","","","","","","","",""
"","time_out","","html-keyboard-response","162","263393","0.0-1.0-215.0-0.0","0","0","89218","","null","","","null","23","","","","","","","","","","","","","","","",""
"","ITI","","html-keyboard-response","163","264395","0.0-1.0-216.0","0","0","89218","","null","","","null","23","","","","","","","","","","","","","","","NaN",""
"","S1","","html-keyboard-response","164","264647","0.0-1.0-218.0","0","0","89218","","null","","","null","24","","","","","","","","","","","","","","","",""
"","ISI","","html-keyboard-response","165","265148","0.0-1.0-219.0","0","0","89218","","null","","","null","24","NaN","","","","","","","","","","","","","","",""
"","S2","","html-keyboard-response","166","265399","0.0-1.0-220.0","0","0","89218","","null","","","null","24","","NaN","","","","","","","","","","","","","",""
"","response","","html-keyboard-response","167","266117","0.0-1.0-221.0-0.0","0","0","89218","","717","","","68","24","","","1","24","training","adjacent","ED","5","4","P.jpg","M.jpg","1","0","0","",""
"","feedback","","html-keyboard-response","168","267119","0.0-1.0-222.0-0.0","0","0","89218","","null","","","null","24","","","","","","","","","","","","","","","",""
"","time_out","","html-keyboard-response","169","269121","0.0-1.0-224.0-0.0","0","0","89218","","null","","","null","24","","","","","","","","","","","","","","","",""
"","ITI","","html-keyboard-response","170","270122","0.0-1.0-225.0","0","0","89218","","null","","","null","24","","","","","","","","","","","","","","","NaN",""
"","S1","","html-keyboard-response","171","270374","0.0-1.0-227.0","0","0","89218","","null","","","null","25","","","","","","","","","","","","","","","",""
"","ISI","","html-keyboard-response","172","270875","0.0-1.0-228.0","0","0","89218","","null","","","null","25","NaN","","","","","","","","","","","","","","",""
"","S2","","html-keyboard-response","173","271127","0.0-1.0-229.0","0","0","89218","","null","","","null","25","","NaN","","","","","","","","","","","","","",""
"","response","","html-keyboard-response","174","271538","0.0-1.0-230.0-0.0","0","0","89218","","410","","","68","25","","","1","25","training","adjacent","FG","6","7","O.jpg","Q.jpg","1","1","1","",""
"","feedback","","html-keyboard-response","175","272540","0.0-1.0-231.0-0.0","0","0","89218","","null","","","null","25","","","","","","","","","","","","","","","",""
"","ITI","","html-keyboard-response","176","273542","0.0-1.0-234.0","0","0","89218","","null","","","null","25","","","","","","","","","","","","","","","NaN",""
"","S1","","html-keyboard-response","177","273794","0.0-1.0-236.0","0","0","89218","","null","","","null","26","","","","","","","","","","","","","","","",""
"","ISI","","html-keyboard-response","178","274296","0.0-1.0-237.0","0","0","89218","","null","","","null","26","NaN","","","","","","","","","","","","","","",""
"","S2","","html-keyboard-response","179","274547","0.0-1.0-238.0","0","0","89218","","null","","","null","26","","NaN","","","","","","","","","","","","","",""
"","response","","html-keyboard-response","180","275348","0.0-1.0-239.0-0.0","0","0","89218","","800","","","68","26","","","1","26","training","adjacent","FG","6","7","O.jpg","Q.jpg","1","1","1","",""
"","feedback","","html-keyboard-response","181","276350","0.0-1.0-240.0-0.0","0","0","89218","","null","","","null","26","","","","","","","","","","","","","","","",""
"","ITI","","html-keyboard-response","182","277352","0.0-1.0-243.0","0","0","89218","","null","","","null","26","","","","","","","","","","","","","","","NaN",""
"","S1","","html-keyboard-response","183","277604","0.0-1.0-245.0","0","0","89218","","null","","","null","27","","","","","","","","","","","","","","","",""
"","ISI","","html-keyboard-response","184","278105","0.0-1.0-246.0","0","0","89218","","null","","","null","27","NaN","","","","","","","","","","","","","","",""
"","S2","","html-keyboard-response","185","278357","0.0-1.0-247.0","0","0","89218","","null","","","null","27","","NaN","","","","","","","","","","","","","",""
"","response","","html-keyboard-response","186","278979","0.0-1.0-248.0-0.0","0","0","89218","","621","","","68","27","","","1","27","training","adjacent","CB","3","2","N.jpg","R.jpg","1","0","0","",""
"","feedback","","html-keyboard-response","187","279981","0.0-1.0-249.0-0.0","0","0","89218","","null","","","null","27","","","","","","","","","","","","","","","",""
"","time_out","","html-keyboard-response","188","281982","0.0-1.0-251.0-0.0","0","0","89218","","null","","","null","27","","","","","","","","","","","","","","","",""
"","ITI","","html-keyboard-response","189","282984","0.0-1.0-252.0","0","0","89218","","null","","","null","27","","","","","","","","","","","","","","","NaN",""
"","S1","","html-keyboard-response","190","283236","0.0-1.0-254.0","0","0","89218","","null","","","null","28","","","","","","","","","","","","","","","",""
"","ISI","","html-keyboard-response","191","283738","0.0-1.0-255.0","0","0","89218","","null","","","null","28","NaN","","","","","","","","","","","","","","",""
"","S2","","html-keyboard-response","192","283989","0.0-1.0-256.0","0","0","89218","","null","","","null","28","","NaN","","","","","","","","","","","","","",""
"","response","","html-keyboard-response","193","284770","0.0-1.0-257.0-0.0","0","0","89218","","780","","","68","28","","","1","28","training","adjacent","DC","4","3","M.jpg","N.jpg","1","0","0","",""
"","feedback","","html-keyboard-response","194","285784","0.0-1.0-258.0-0.0","0","0","89218","","null","","","null","28","","","","","","","","","","","","","","","",""
"","time_out","","html-keyboard-response","195","287785","0.0-1.0-260.0-0.0","0","0","89218","","null","","","null","28","","","","","","","","","","","","","","","",""
"","ITI","","html-keyboard-response","196","288786","0.0-1.0-261.0","0","0","89218","","null","","","null","28","","","","","","","","","","","","","","","NaN",""
"","S1","","html-keyboard-response","197","289038","0.0-1.0-263.0","0","0","89218","","null","","","null","29","","","","","","","","","","","","","","","",""
"","ISI","","html-keyboard-response","198","289539","0.0-1.0-264.0","0","0","89218","","null","","","null","29","NaN","","","","","","","","","","","","","","",""
"","S2","","html-keyboard-response","199","289792","0.0-1.0-265.0","0","0","89218","","null","","","null","29","","NaN","","","","","","","","","","","","","",""
"","response","","html-keyboard-response","200","290318","0.0-1.0-266.0-0.0","0","0","89218","","525","","","68","29","","","1","29","training","adjacent","CB","3","2","N.jpg","R.jpg","1","0","0","",""
"","feedback","","html-keyboard-response","201","291320","0.0-1.0-267.0-0.0","0","0","89218","","null","","","null","29","","","","","","","","","","","","","","","",""
"","time_out","","html-keyboard-response","202","293322","0.0-1.0-269.0-0.0","0","0","89218","","null","","","null","29","","","","","","","","","","","","","","","",""
"","ITI","","html-keyboard-response","203","294324","0.0-1.0-270.0","0","0","89218","","null","","","null","29","","","","","","","","","","","","","","","NaN",""
"","S1","","html-keyboard-response","204","294576","0.0-1.0-272.0","0","0","89218","","null","","","null","30","","","","","","","","","","","","","","","",""
"","ISI","","html-keyboard-response","205","295077","0.0-1.0-273.0","0","0","89218","","null","","","null","30","NaN","","","","","","","","","","","","","","",""
"","S2","","html-keyboard-response","206","295329","0.0-1.0-274.0","0","0","89218","","null","","","null","30","","NaN","","","","","","","","","","","","","",""
"","response","","html-keyboard-response","207","295976","0.0-1.0-275.0-0.0","0","0","89218","","646","","","75","30","","","1","30","training","adjacent","BA","2","1","R.jpg","L.jpg","0","0","1","",""
"","feedback","","html-keyboard-response","208","296977","0.0-1.0-276.0-0.0","0","0","89218","","null","","","null","30","","","","","","","","","","","","","","","",""
"","ITI","","html-keyboard-response","209","297979","0.0-1.0-279.0","0","0","89218","","null","","","null","30","","","","","","","","","","","","","","","NaN",""
"","S1","","html-keyboard-response","210","298231","0.0-1.0-281.0","0","0","89218","","null","","","null","31","","","","","","","","","","","","","","","",""
"","ISI","","html-keyboard-response","211","298733","0.0-1.0-282.0","0","0","89218","","null","","","null","31","NaN","","","","","","","","","","","","","","",""
"","S2","","html-keyboard-response","212","298985","0.0-1.0-283.0","0","0","89218","","null","","","null","31","","NaN","","","","","","","","","","","","","",""
"","response","","html-keyboard-response","213","300036","0.0-1.0-284.0-0.0","0","0","89218","","1050","","","75","31","","","1","31","training","adjacent","BC","2","3","R.jpg","N.jpg","0","1","0","",""
"","feedback","","html-keyboard-response","214","301038","0.0-1.0-285.0-0.0","0","0","89218","","null","","","null","31","","","","","","","","","","","","","","","",""
"","time_out","","html-keyboard-response","215","303039","0.0-1.0-287.0-0.0","0","0","89218","","null","","","null","31","","","","","","","","","","","","","","","",""
"","ITI","","html-keyboard-response","216","304041","0.0-1.0-288.0","0","0","89218","","null","","","null","31","","","","","","","","","","","","","","","NaN",""
"","S1","","html-keyboard-response","217","304293","0.0-1.0-290.0","0","0","89218","","null","","","null","32","","","","","","","","","","","","","","","",""
"","ISI","","html-keyboard-response","218","304795","0.0-1.0-291.0","0","0","89218","","null","","","null","32","NaN","","","","","","","","","","","","","","",""
"","S2","","html-keyboard-response","219","305047","0.0-1.0-292.0","0","0","89218","","null","","","null","32","","NaN","","","","","","","","","","","","","",""
"","response","","html-keyboard-response","220","305424","0.0-1.0-293.0-0.0","0","0","89218","","376","","","75","32","","","1","32","training","adjacent","EF","5","6","P.jpg","O.jpg","0","1","0","",""
"","feedback","","html-keyboard-response","221","306426","0.0-1.0-294.0-0.0","0","0","89218","","null","","","null","32","","","","","","","","","","","","","","","",""
"","time_out","","html-keyboard-response","222","308428","0.0-1.0-296.0-0.0","0","0","89218","","null","","","null","32","","","","","","","","","","","","","","","",""
"","ITI","","html-keyboard-response","223","309430","0.0-1.0-297.0","0","0","89218","","null","","","null","32","","","","","","","","","","","","","","","NaN",""
"","S1","","html-keyboard-response","224","309682","0.0-1.0-299.0","0","0","89218","","null","","","null","33","","","","","","","","","","","","","","","",""
"","ISI","","html-keyboard-response","225","310184","0.0-1.0-300.0","0","0","89218","","null","","","null","33","NaN","","","","","","","","","","","","","","",""
"","S2","","html-keyboard-response","226","310435","0.0-1.0-301.0","0","0","89218","","null","","","null","33","","NaN","","","","","","","","","","","","","",""
"","response","","html-keyboard-response","227","310954","0.0-1.0-302.0-0.0","0","0","89218","","517","","","68","33","","","1","33","training","adjacent","DE","4","5","M.jpg","P.jpg","1","1","1","",""
"","feedback","","html-keyboard-response","228","311955","0.0-1.0-303.0-0.0","0","0","89218","","null","","","null","33","","","","","","","","","","","","","","","",""
"","ITI","","html-keyboard-response","229","312956","0.0-1.0-306.0","0","0","89218","","null","","","null","33","","","","","","","","","","","","","","","NaN",""
"","S1","","html-keyboard-response","230","313208","0.0-1.0-308.0","0","0","89218","","null","","","null","34","","","","","","","","","","","","","","","",""
"","ISI","","html-keyboard-response","231","313710","0.0-1.0-309.0","0","0","89218","","null","","","null","34","NaN","","","","","","","","","","","","","","",""
"","S2","","html-keyboard-response","232","313968","0.0-1.0-310.0","0","0","89218","","null","","","null","34","","NaN","","","","","","","","","","","","","",""
"","response","","html-keyboard-response","233","314491","0.0-1.0-311.0-0.0","0","0","89218","","521","","","68","34","","","1","34","training","adjacent","BC","2","3","R.jpg","N.jpg","1","1","1","",""
"","feedback","","html-keyboard-response","234","315493","0.0-1.0-312.0-0.0","0","0","89218","","null","","","null","34","","","","","","","","","","","","","","","",""
"","ITI","","html-keyboard-response","235","316494","0.0-1.0-315.0","0","0","89218","","null","","","null","34","","","","","","","","","","","","","","","NaN",""
"","S1","","html-keyboard-response","236","316746","0.0-1.0-317.0","0","0","89218","","null","","","null","35","","","","","","","","","","","","","","","",""
"","ISI","","html-keyboard-response","237","317248","0.0-1.0-318.0","0","0","89218","","null","","","null","35","NaN","","","","","","","","","","","","","","",""
"","S2","","html-keyboard-response","238","317499","0.0-1.0-319.0","0","0","89218","","null","","","null","35","","NaN","","","","","","","","","","","","","",""
"","response","","html-keyboard-response","239","317966","0.0-1.0-320.0-0.0","0","0","89218","","465","","","75","35","","","1","35","training","adjacent","FE","6","5","O.jpg","P.jpg","0","0","1","",""
"","feedback","","html-keyboard-response","240","318968","0.0-1.0-321.0-0.0","0","0","89218","","null","","","null","35","","","","","","","","","","","","","","","",""
"","ITI","","html-keyboard-response","241","319969","0.0-1.0-324.0","0","0","89218","","null","","","null","35","","","","","","","","","","","","","","","NaN",""
"","S1","","html-keyboard-response","242","320221","0.0-1.0-326.0","0","0","89218","","null","","","null","36","","","","","","","","","","","","","","","",""
"","ISI","","html-keyboard-response","243","320723","0.0-1.0-327.0","0","0","89218","","null","","","null","36","NaN","","","","","","","","","","","","","","",""
"","S2","","html-keyboard-response","244","320974","0.0-1.0-328.0","0","0","89218","","null","","","null","36","","NaN","","","","","","","","","","","","","",""
"","response","","html-keyboard-response","245","321750","0.0-1.0-329.0-0.0","0","0","89218","","774","","","75","36","","","1","36","training","adjacent","CD","3","4","N.jpg","M.jpg","0","1","0","",""
"","feedback","","html-keyboard-response","246","322751","0.0-1.0-330.0-0.0","0","0","89218","","null","","","null","36","","","","","","","","","","","","","","","",""
"","time_out","","html-keyboard-response","247","324752","0.0-1.0-332.0-0.0","0","0","89218","","null","","","null","36","","","","","","","","","","","","","","","",""
"","ITI","","html-keyboard-response","248","325754","0.0-1.0-333.0","0","0","89218","","null","","","null","36","","","","","","","","","","","","","","","NaN",""
"","S1","","html-keyboard-response","249","326006","0.0-1.0-335.0","0","0","89218","","null","","","null","37","","","","","","","","","","","","","","","",""
"","ISI","","html-keyboard-response","250","326508","0.0-1.0-336.0","0","0","89218","","null","","","null","37","NaN","","","","","","","","","","","","","","",""
"","S2","","html-keyboard-response","251","326760","0.0-1.0-337.0","0","0","89218","","null","","","null","37","","NaN","","","","","","","","","","","","","",""
"","response","","html-keyboard-response","252","327204","0.0-1.0-338.0-0.0","0","0","89218","","443","","","75","37","","","1","37","training","adjacent","AB","1","2","L.jpg","R.jpg","0","1","0","",""
"","feedback","","html-keyboard-response","253","328206","0.0-1.0-339.0-0.0","0","0","89218","","null","","","null","37","","","","","","","","","","","","","","","",""
"","time_out","","html-keyboard-response","254","330207","0.0-1.0-341.0-0.0","0","0","89218","","null","","","null","37","","","","","","","","","","","","","","","",""
"","ITI","","html-keyboard-response","255","331208","0.0-1.0-342.0","0","0","89218","","null","","","null","37","","","","","","","","","","","","","","","NaN",""
"","S1","","html-keyboard-response","256","331460","0.0-1.0-344.0","0","0","89218","","null","","","null","38","","","","","","","","","","","","","","","",""
"","ISI","","html-keyboard-response","257","331963","0.0-1.0-345.0","0","0","89218","","null","","","null","38","NaN","","","","","","","","","","","","","","",""
"","S2","","html-keyboard-response","258","332214","0.0-1.0-346.0","0","0","89218","","null","","","null","38","","NaN","","","","","","","","","","","","","",""
"","response","","html-keyboard-response","259","332867","0.0-1.0-347.0-0.0","0","0","89218","","652","","","68","38","","","1","38","training","adjacent","CB","3","2","N.jpg","R.jpg","1","0","0","",""
"","feedback","","html-keyboard-response","260","333869","0.0-1.0-348.0-0.0","0","0","89218","","null","","","null","38","","","","","","","","","","","","","","","",""
"","time_out","","html-keyboard-response","261","335871","0.0-1.0-350.0-0.0","0","0","89218","","null","","","null","38","","","","","","","","","","","","","","","",""
"","ITI","","html-keyboard-response","262","336872","0.0-1.0-351.0","0","0","89218","","null","","","null","38","","","","","","","","","","","","","","","NaN",""
"","S1","","html-keyboard-response","263","337124","0.0-1.0-353.0","0","0","89218","","null","","","null","39","","","","","","","","","","","","","","","",""
"","ISI","","html-keyboard-response","264","337625","0.0-1.0-354.0","0","0","89218","","null","","","null","39","NaN","","","","","","","","","","","","","","",""
"","S2","","html-keyboard-response","265","337876","0.0-1.0-355.0","0","0","89218","","null","","","null","39","","NaN","","","","","","","","","","","","","",""
"","response","","html-keyboard-response","266","338886","0.0-1.0-356.0-0.0","0","0","89218","","1008","","","75","39","","","1","39","training","adjacent","GF","7","6","Q.jpg","O.jpg","0","0","1","",""
"","feedback","","html-keyboard-response","267","339887","0.0-1.0-357.0-0.0","0","0","89218","","null","","","null","39","","","","","","","","","","","","","","","",""
"","ITI","","html-keyboard-response","268","340889","0.0-1.0-360.0","0","0","89218","","null","","","null","39","","","","","","","","","","","","","","","NaN",""
"","S1","","html-keyboard-response","269","341141","0.0-1.0-362.0","0","0","89218","","null","","","null","40","","","","","","","","","","","","","","","",""
"","ISI","","html-keyboard-response","270","341643","0.0-1.0-363.0","0","0","89218","","null","","","null","40","NaN","","","","","","","","","","","","","","",""
"","S2","","html-keyboard-response","271","341894","0.0-1.0-364.0","0","0","89218","","null","","","null","40","","NaN","","","","","","","","","","","","","",""
"","response","","html-keyboard-response","272","342287","0.0-1.0-365.0-0.0","0","0","89218","","392","","","68","40","","","1","40","training","adjacent","DC","4","3","M.jpg","N.jpg","1","0","0","",""
"","feedback","","html-keyboard-response","273","343289","0.0-1.0-366.0-0.0","0","0","89218","","null","","","null","40","","","","","","","","","","","","","","","",""
"","time_out","","html-keyboard-response","274","345291","0.0-1.0-368.0-0.0","0","0","89218","","null","","","null","40","","","","","","","","","","","","","","","",""
"","ITI","","html-keyboard-response","275","346292","0.0-1.0-369.0","0","0","89218","","null","","","null","40","","","","","","","","","","","","","","","NaN",""
"","S1","","html-keyboard-response","276","346544","0.0-1.0-371.0","0","0","89218","","null","","","null","41","","","","","","","","","","","","","","","",""
"","ISI","","html-keyboard-response","277","347046","0.0-1.0-372.0","0","0","89218","","null","","","null","41","NaN","","","","","","","","","","","","","","",""
"","S2","","html-keyboard-response","278","347297","0.0-1.0-373.0","0","0","89218","","null","","","null","41","","NaN","","","","","","","","","","","","","",""
"","response","","html-keyboard-response","279","347989","0.0-1.0-374.0-0.0","0","0","89218","","691","","","68","41","","","1","41","training","adjacent","FG","6","7","O.jpg","Q.jpg","1","1","1","",""
"","feedback","","html-keyboard-response","280","348990","0.0-1.0-375.0-0.0","0","0","89218","","null","","","null","41","","","","","","","","","","","","","","","",""
"","ITI","","html-keyboard-response","281","349992","0.0-1.0-378.0","0","0","89218","","null","","","null","41","","","","","","","","","","","","","","","NaN",""
"","S1","","html-keyboard-response","282","350243","0.0-1.0-380.0","0","0","89218","","null","","","null","42","","","","","","","","","","","","","","","",""
"","ISI","","html-keyboard-response","283","350745","0.0-1.0-381.0","0","0","89218","","null","","","null","42","NaN","","","","","","","","","","","","","","",""
"","S2","","html-keyboard-response","284","350997","0.0-1.0-382.0","0","0","89218","","null","","","null","42","","NaN","","","","","","","","","","","","","",""
"","response","","html-keyboard-response","285","351654","0.0-1.0-383.0-0.0","0","0","89218","","656","","","75","42","","","1","42","training","adjacent","DE","4","5","M.jpg","P.jpg","0","1","0","",""
"","feedback","","html-keyboard-response","286","352656","0.0-1.0-384.0-0.0","0","0","89218","","null","","","null","42","","","","","","","","","","","","","","","",""
"","time_out","","html-keyboard-response","287","354658","0.0-1.0-386.0-0.0","0","0","89218","","null","","","null","42","","","","","","","","","","","","","","","",""
"","ITI","","html-keyboard-response","288","355660","0.0-1.0-387.0","0","0","89218","","null","","","null","42","","","","","","","","","","","","","","","NaN",""
"","S1","","html-keyboard-response","289","355912","0.0-1.0-389.0","0","0","89218","","null","","","null","43","","","","","","","","","","","","","","","",""
"","ISI","","html-keyboard-response","290","356413","0.0-1.0-390.0","0","0","89218","","null","","","null","43","NaN","","","","","","","","","","","","","","",""
"","S2","","html-keyboard-response","291","356665","0.0-1.0-391.0","0","0","89218","","null","","","null","43","","NaN","","","","","","","","","","","","","",""
"","response","","html-keyboard-response","292","357168","0.0-1.0-392.0-0.0","0","0","89218","","501","","","75","43","","","1","43","training","adjacent","ED","5","4","P.jpg","M.jpg","0","0","1","",""
"","feedback","","html-keyboard-response","293","358170","0.0-1.0-393.0-0.0","0","0","89218","","null","","","null","43","","","","","","","","","","","","","","","",""
"","ITI","","html-keyboard-response","294","359171","0.0-1.0-396.0","0","0","89218","","null","","","null","43","","","","","","","","","","","","","","","NaN",""
"","S1","","html-keyboard-response","295","359423","0.0-1.0-398.0","0","0","89218","","null","","","null","44","","","","","","","","","","","","","","","",""
"","ISI","","html-keyboard-response","296","359925","0.0-1.0-399.0","0","0","89218","","null","","","null","44","NaN","","","","","","","","","","","","","","",""
"","S2","","html-keyboard-response","297","360176","0.0-1.0-400.0","0","0","89218","","null","","","null","44","","NaN","","","","","","","","","","","","","",""
"","response","","html-keyboard-response","298","360394","0.0-1.0-401.0-0.0","0","0","89218","","217","","","75","44","","","1","44","training","adjacent","DE","4","5","M.jpg","P.jpg","0","1","0","",""
"","feedback","","html-keyboard-response","299","361395","0.0-1.0-402.0-0.0","0","0","89218","","null","","","null","44","","","","","","","","","","","","","","","",""
"","time_out","","html-keyboard-response","300","363398","0.0-1.0-404.0-0.0","0","0","89218","","null","","","null","44","","","","","","","","","","","","","","","",""
"","ITI","","html-keyboard-response","301","364400","0.0-1.0-405.0","0","0","89218","","null","","","null","44","","","","","","","","","","","","","","","NaN",""
"","S1","","html-keyboard-response","302","364651","0.0-1.0-407.0","0","0","89218","","null","","","null","45","","","","","","","","","","","","","","","",""
"","ISI","","html-keyboard-response","303","365153","0.0-1.0-408.0","0","0","89218","","null","","","null","45","NaN","","","","","","","","","","","","","","",""
"","S2","","html-keyboard-response","304","365405","0.0-1.0-409.0","0","0","89218","","null","","","null","45","","NaN","","","","","","","","","","","","","",""
"","response","","html-keyboard-response","305","366035","0.0-1.0-410.0-0.0","0","0","89218","","629","","","75","45","","","1","45","training","adjacent","BC","2","3","R.jpg","N.jpg","0","1","0","",""
"","feedback","","html-keyboard-response","306","367036","0.0-1.0-411.0-0.0","0","0","89218","","null","","","null","45","","","","","","","","","","","","","","","",""
"","time_out","","html-keyboard-response","307","369038","0.0-1.0-413.0-0.0","0","0","89218","","null","","","null","45","","","","","","","","","","","","","","","",""
"","ITI","","html-keyboard-response","308","370040","0.0-1.0-414.0","0","0","89218","","null","","","null","45","","","","","","","","","","","","","","","NaN",""
"","S1","","html-keyboard-response","309","370291","0.0-1.0-416.0","0","0","89218","","null","","","null","46","","","","","","","","","","","","","","","",""
"","ISI","","html-keyboard-response","310","370793","0.0-1.0-417.0","0","0","89218","","null","","","null","46","NaN","","","","","","","","","","","","","","",""
"","S2","","html-keyboard-response","311","371045","0.0-1.0-418.0","0","0","89218","","null","","","null","46","","NaN","","","","","","","","","","","","","",""
"","response","","html-keyboard-response","312","371553","0.0-1.0-419.0-0.0","0","0","89218","","507","","","75","46","","","1","46","training","adjacent","EF","5","6","P.jpg","O.jpg","0","1","0","",""
"","feedback","","html-keyboard-response","313","372554","0.0-1.0-420.0-0.0","0","0","89218","","null","","","null","46","","","","","","","","","","","","","","","",""
"","time_out","","html-keyboard-response","314","374556","0.0-1.0-422.0-0.0","0","0","89218","","null","","","null","46","","","","","","","","","","","","","","","",""
"","ITI","","html-keyboard-response","315","375558","0.0-1.0-423.0","0","0","89218","","null","","","null","46","","","","","","","","","","","","","","","NaN",""
"","S1","","html-keyboard-response","316","375809","0.0-1.0-425.0","0","0","89218","","null","","","null","47","","","","","","","","","","","","","","","",""
"","ISI","","html-keyboard-response","317","376311","0.0-1.0-426.0","0","0","89218","","null","","","null","47","NaN","","","","","","","","","","","","","","",""
"","S2","","html-keyboard-response","318","376562","0.0-1.0-427.0","0","0","89218","","null","","","null","47","","NaN","","","","","","","","","","","","","",""
"","response","","html-keyboard-response","319","377190","0.0-1.0-428.0-0.0","0","0","89218","","626","","","75","47","","","1","47","training","adjacent","BA","2","1","R.jpg","L.jpg","0","0","1","",""
"","feedback","","html-keyboard-response","320","378192","0.0-1.0-429.0-0.0","0","0","89218","","null","","","null","47","","","","","","","","","","","","","","","",""
"","ITI","","html-keyboard-response","321","379194","0.0-1.0-432.0","0","0","89218","","null","","","null","47","","","","","","","","","","","","","","","NaN",""
"","block_over","","html-keyboard-response","322","413550","0.0-1.0-433.0-0.0","0","0","89218","","34355","","","32","47","","","","","","","","","","","","","","","",""
"","S1","","html-keyboard-response","323","413802","0.0-1.0-434.0","0","0","89218","","null","","","null","48","","","","","","","","","","","","","","","",""
"","ISI","","html-keyboard-response","324","414303","0.0-1.0-435.0","0","0","89218","","null","","","null","48","NaN","","","","","","","","","","","","","","",""
"","S2","","html-keyboard-response","325","414555","0.0-1.0-436.0","0","0","89218","","null","","","null","48","","NaN","","","","","","","","","","","","","",""
"","response","","html-keyboard-response","326","415056","0.0-1.0-437.0-0.0","0","0","89218","","500","","","68","48","","","2","48","training","adjacent","FG","6","7","O.jpg","Q.jpg","1","1","1","",""
"","feedback","","html-keyboard-response","327","416058","0.0-1.0-438.0-0.0","0","0","89218","","null","","","null","48","","","","","","","","","","","","","","","",""
"","ITI","","html-keyboard-response","328","417059","0.0-1.0-441.0","0","0","89218","","null","","","null","48","","","","","","","","","","","","","","","NaN",""
"","S1","","html-keyboard-response","329","417311","0.0-1.0-443.0","0","0","89218","","null","","","null","49","","","","","","","","","","","","","","","",""
"","ISI","","html-keyboard-response","330","417813","0.0-1.0-444.0","0","0","89218","","null","","","null","49","NaN","","","","","","","","","","","","","","",""
"","S2","","html-keyboard-response","331","418064","0.0-1.0-445.0","0","0","89218","","null","","","null","49","","NaN","","","","","","","","","","","","","",""
"","response","","html-keyboard-response","332","418621","0.0-1.0-446.0-0.0","0","0","89218","","555","","","68","49","","","2","49","training","adjacent","GF","7","6","Q.jpg","O.jpg","1","0","0","",""
"","feedback","","html-keyboard-response","333","419623","0.0-1.0-447.0-0.0","0","0","89218","","null","","","null","49","","","","","","","","","","","","","","","",""
"","time_out","","html-keyboard-response","334","421625","0.0-1.0-449.0-0.0","0","0","89218","","null","","","null","49","","","","","","","","","","","","","","","",""
"","ITI","","html-keyboard-response","335","422627","0.0-1.0-450.0","0","0","89218","","null","","","null","49","","","","","","","","","","","","","","","NaN",""
"","S1","","html-keyboard-response","336","422879","0.0-1.0-452.0","0","0","89218","","null","","","null","50","","","","","","","","","","","","","","","",""
"","ISI","","html-keyboard-response","337","423380","0.0-1.0-453.0","0","0","89218","","null","","","null","50","NaN","","","","","","","","","","","","","","",""
"","S2","","html-keyboard-response","338","423632","0.0-1.0-454.0","0","0","89218","","null","","","null","50","","NaN","","","","","","","","","","","","","",""
"","response","","html-keyboard-response","339","423909","0.0-1.0-455.0-0.0","0","0","89218","","276","","","75","50","","","2","50","training","adjacent","GF","7","6","Q.jpg","O.jpg","0","0","1","",""
"","feedback","","html-keyboard-response","340","424910","0.0-1.0-456.0-0.0","0","0","89218","","null","","","null","50","","","","","","","","","","","","","","","",""
"","ITI","","html-keyboard-response","341","425912","0.0-1.0-459.0","0","0","89218","","null","","","null","50","","","","","","","","","","","","","","","NaN",""
"","S1","","html-keyboard-response","342","426164","0.0-1.0-461.0","0","0","89218","","null","","","null","51","","","","","","","","","","","","","","","",""
"","ISI","","html-keyboard-response","343","426665","0.0-1.0-462.0","0","0","89218","","null","","","null","51","NaN","","","","","","","","","","","","","","",""
"","S2","","html-keyboard-response","344","426917","0.0-1.0-463.0","0","0","89218","","null","","","null","51","","NaN","","","","","","","","","","","","","",""
"","response","","html-keyboard-response","345","427449","0.0-1.0-464.0-0.0","0","0","89218","","531","","","68","51","","","2","51","training","adjacent","FG","6","7","O.jpg","Q.jpg","1","1","1","",""
"","feedback","","html-keyboard-response","346","428451","0.0-1.0-465.0-0.0","0","0","89218","","null","","","null","51","","","","","","","","","","","","","","","",""
"","ITI","","html-keyboard-response","347","429452","0.0-1.0-468.0","0","0","89218","","null","","","null","51","","","","","","","","","","","","","","","NaN",""
"","S1","","html-keyboard-response","348","429704","0.0-1.0-470.0","0","0","89218","","null","","","null","52","","","","","","","","","","","","","","","",""
"","ISI","","html-keyboard-response","349","430205","0.0-1.0-471.0","0","0","89218","","null","","","null","52","NaN","","","","","","","","","","","","","","",""
"","S2","","html-keyboard-response","350","430457","0.0-1.0-472.0","0","0","89218","","null","","","null","52","","NaN","","","","","","","","","","","","","",""
"","response","","html-keyboard-response","351","431042","0.0-1.0-473.0-0.0","0","0","89218","","584","","","75","52","","","2","52","training","adjacent","BA","2","1","R.jpg","L.jpg","0","0","1","",""
"","feedback","","html-keyboard-response","352","432043","0.0-1.0-474.0-0.0","0","0","89218","","null","","","null","52","","","","","","","","","","","","","","","",""
"","ITI","","html-keyboard-response","353","433045","0.0-1.0-477.0","0","0","89218","","null","","","null","52","","","","","","","","","","","","","","","NaN",""
"","S1","","html-keyboard-response","354","433296","0.0-1.0-479.0","0","0","89218","","null","","","null","53","","","","","","","","","","","","","","","",""
"","ISI","","html-keyboard-response","355","433798","0.0-1.0-480.0","0","0","89218","","null","","","null","53","NaN","","","","","","","","","","","","","","",""
"","S2","","html-keyboard-response","356","434050","0.0-1.0-481.0","0","0","89218","","null","","","null","53","","NaN","","","","","","","","","","","","","",""
"","response","","html-keyboard-response","357","434537","0.0-1.0-482.0-0.0","0","0","89218","","486","","","68","53","","","2","53","training","adjacent","FG","6","7","O.jpg","Q.jpg","1","1","1","",""
"","feedback","","html-keyboard-response","358","435538","0.0-1.0-483.0-0.0","0","0","89218","","null","","","null","53","","","","","","","","","","","","","","","",""
"","ITI","","html-keyboard-response","359","436540","0.0-1.0-486.0","0","0","89218","","null","","","null","53","","","","","","","","","","","","","","","NaN",""
"","S1","","html-keyboard-response","360","436792","0.0-1.0-488.0","0","0","89218","","null","","","null","54","","","","","","","","","","","","","","","",""
"","ISI","","html-keyboard-response","361","437294","0.0-1.0-489.0","0","0","89218","","null","","","null","54","NaN","","","","","","","","","","","","","","",""
"","S2","","html-keyboard-response","362","437546","0.0-1.0-490.0","0","0","89218","","null","","","null","54","","NaN","","","","","","","","","","","","","",""
"","response","","html-keyboard-response","363","438203","0.0-1.0-491.0-0.0","0","0","89218","","656","","","68","54","","","2","54","training","adjacent","BC","2","3","R.jpg","N.jpg","1","1","1","",""
"","feedback","","html-keyboard-response","364","439204","0.0-1.0-492.0-0.0","0","0","89218","","null","","","null","54","","","","","","","","","","","","","","","",""
"","ITI","","html-keyboard-response","365","440207","0.0-1.0-495.0","0","0","89218","","null","","","null","54","","","","","","","","","","","","","","","NaN",""
"","S1","","html-keyboard-response","366","440459","0.0-1.0-497.0","0","0","89218","","null","","","null","55","","","","","","","","","","","","","","","",""
"","ISI","","html-keyboard-response","367","440960","0.0-1.0-498.0","0","0","89218","","null","","","null","55","NaN","","","","","","","","","","","","","","",""
"","S2","","html-keyboard-response","368","441212","0.0-1.0-499.0","0","0","89218","","null","","","null","55","","NaN","","","","","","","","","","","","","",""
"","response","","html-keyboard-response","369","441682","0.0-1.0-500.0-0.0","0","0","89218","","469","","","68","55","","","2","55","training","adjacent","DC","4","3","M.jpg","N.jpg","1","0","0","",""
"","feedback","","html-keyboard-response","370","442683","0.0-1.0-501.0-0.0","0","0","89218","","null","","","null","55","","","","","","","","","","","","","","","",""
"","time_out","","html-keyboard-response","371","444685","0.0-1.0-503.0-0.0","0","0","89218","","null","","","null","55","","","","","","","","","","","","","","","",""
"","ITI","","html-keyboard-response","372","445687","0.0-1.0-504.0","0","0","89218","","null","","","null","55","","","","","","","","","","","","","","","NaN",""
"","S1","","html-keyboard-response","373","445939","0.0-1.0-506.0","0","0","89218","","null","","","null","56","","","","","","","","","","","","","","","",""
"","ISI","","html-keyboard-response","374","446441","0.0-1.0-507.0","0","0","89218","","null","","","null","56","NaN","","","","","","","","","","","","","","",""
"","S2","","html-keyboard-response","375","446693","0.0-1.0-508.0","0","0","89218","","null","","","null","56","","NaN","","","","","","","","","","","","","",""
"","response","","html-keyboard-response","376","447524","0.0-1.0-509.0-0.0","0","0","89218","","830","","","75","56","","","2","56","training","adjacent","AB","1","2","L.jpg","R.jpg","0","1","0","",""
"","feedback","","html-keyboard-response","377","448526","0.0-1.0-510.0-0.0","0","0","89218","","null","","","null","56","","","","","","","","","","","","","","","",""
"","time_out","","html-keyboard-response","378","450527","0.0-1.0-512.0-0.0","0","0","89218","","null","","","null","56","","","","","","","","","","","","","","","",""
"","ITI","","html-keyboard-response","379","451529","0.0-1.0-513.0","0","0","89218","","null","","","null","56","","","","","","","","","","","","","","","NaN",""
"","S1","","html-keyboard-response","380","451781","0.0-1.0-515.0","0","0","89218","","null","","","null","57","","","","","","","","","","","","","","","",""
"","ISI","","html-keyboard-response","381","452283","0.0-1.0-516.0","0","0","89218","","null","","","null","57","NaN","","","","","","","","","","","","","","",""
"","S2","","html-keyboard-response","382","452535","0.0-1.0-517.0","0","0","89218","","null","","","null","57","","NaN","","","","","","","","","","","","","",""
"","response","","html-keyboard-response","383","453079","0.0-1.0-518.0-0.0","0","0","89218","","543","","","75","57","","","2","57","training","adjacent","GF","7","6","Q.jpg","O.jpg","0","0","1","",""
"","feedback","","html-keyboard-response","384","454080","0.0-1.0-519.0-0.0","0","0","89218","","null","","","null","57","","","","","","","","","","","","","","","",""
"","ITI","","html-keyboard-response","385","455082","0.0-1.0-522.0","0","0","89218","","null","","","null","57","","","","","","","","","","","","","","","NaN",""
"","S1","","html-keyboard-response","386","455334","0.0-1.0-524.0","0","0","89218","","null","","","null","58","","","","","","","","","","","","","","","",""
"","ISI","","html-keyboard-response","387","455835","0.0-1.0-525.0","0","0","89218","","null","","","null","58","NaN","","","","","","","","","","","","","","",""
"","S2","","html-keyboard-response","388","456087","0.0-1.0-526.0","0","0","89218","","null","","","null","58","","NaN","","","","","","","","","","","","","",""
"","response","","html-keyboard-response","389","456511","0.0-1.0-527.0-0.0","0","0","89218","","423","","","75","58","","","2","58","training","adjacent","BC","2","3","R.jpg","N.jpg","0","1","0","",""
"","feedback","","html-keyboard-response","390","457513","0.0-1.0-528.0-0.0","0","0","89218","","null","","","null","58","","","","","","","","","","","","","","","",""
"","time_out","","html-keyboard-response","391","459514","0.0-1.0-530.0-0.0","0","0","89218","","null","","","null","58","","","","","","","","","","","","","","","",""
"","ITI","","html-keyboard-response","392","460515","0.0-1.0-531.0","0","0","89218","","null","","","null","58","","","","","","","","","","","","","","","NaN",""
"","S1","","html-keyboard-response","393","460767","0.0-1.0-533.0","0","0","89218","","null","","","null","59","","","","","","","","","","","","","","","",""
"","ISI","","html-keyboard-response","394","461268","0.0-1.0-534.0","0","0","89218","","null","","","null","59","NaN","","","","","","","","","","","","","","",""
"","S2","","html-keyboard-response","395","461520","0.0-1.0-535.0","0","0","89218","","null","","","null","59","","NaN","","","","","","","","","","","","","",""
"","response","","html-keyboard-response","396","462068","0.0-1.0-536.0-0.0","0","0","89218","","547","","","75","59","","","2","59","training","adjacent","FE","6","5","O.jpg","P.jpg","0","0","1","",""
"","feedback","","html-keyboard-response","397","463070","0.0-1.0-537.0-0.0","0","0","89218","","null","","","null","59","","","","","","","","","","","","","","","",""
"","ITI","","html-keyboard-response","398","464072","0.0-1.0-540.0","0","0","89218","","null","","","null","59","","","","","","","","","","","","","","","NaN",""
"","S1","","html-keyboard-response","399","464324","0.0-1.0-542.0","0","0","89218","","null","","","null","60","","","","","","","","","","","","","","","",""
"","ISI","","html-keyboard-response","400","464825","0.0-1.0-543.0","0","0","89218","","null","","","null","60","NaN","","","","","","","","","","","","","","",""
"","S2","","html-keyboard-response","401","465077","0.0-1.0-544.0","0","0","89218","","null","","","null","60","","NaN","","","","","","","","","","","","","",""
"","response","","html-keyboard-response","402","466003","0.0-1.0-545.0-0.0","0","0","89218","","925","","","68","60","","","2","60","training","adjacent","CD","3","4","N.jpg","M.jpg","1","1","1","",""
"","feedback","","html-keyboard-response","403","467005","0.0-1.0-546.0-0.0","0","0","89218","","null","","","null","60","","","","","","","","","","","","","","","",""
"","ITI","","html-keyboard-response","404","468007","0.0-1.0-549.0","0","0","89218","","null","","","null","60","","","","","","","","","","","","","","","NaN",""
"","S1","","html-keyboard-response","405","468259","0.0-1.0-551.0","0","0","89218","","null","","","null","61","","","","","","","","","","","","","","","",""
"","ISI","","html-keyboard-response","406","468761","0.0-1.0-552.0","0","0","89218","","null","","","null","61","NaN","","","","","","","","","","","","","","",""
"","S2","","html-keyboard-response","407","469012","0.0-1.0-553.0","0","0","89218","","null","","","null","61","","NaN","","","","","","","","","","","","","",""
"","response","","html-keyboard-response","408","469654","0.0-1.0-554.0-0.0","0","0","89218","","640","","","68","61","","","2","61","training","adjacent","EF","5","6","P.jpg","O.jpg","1","1","1","",""
"","feedback","","html-keyboard-response","409","470656","0.0-1.0-555.0-0.0","0","0","89218","","null","","","null","61","","","","","","","","","","","","","","","",""
"","ITI","","html-keyboard-response","410","471657","0.0-1.0-558.0","0","0","89218","","null","","","null","61","","","","","","","","","","","","","","","NaN",""
"","S1","","html-keyboard-response","411","471909","0.0-1.0-560.0","0","0","89218","","null","","","null","62","","","","","","","","","","","","","","","",""
"","ISI","","html-keyboard-response","412","472411","0.0-1.0-561.0","0","0","89218","","null","","","null","62","NaN","","","","","","","","","","","","","","",""
"","S2","","html-keyboard-response","413","472663","0.0-1.0-562.0","0","0","89218","","null","","","null","62","","NaN","","","","","","","","","","","","","",""
"","response","","html-keyboard-response","414","473360","0.0-1.0-563.0-0.0","0","0","89218","","696","","","68","62","","","2","62","training","adjacent","DE","4","5","M.jpg","P.jpg","1","1","1","",""
"","feedback","","html-keyboard-response","415","474362","0.0-1.0-564.0-0.0","0","0","89218","","null","","","null","62","","","","","","","","","","","","","","","",""
"","ITI","","html-keyboard-response","416","475363","0.0-1.0-567.0","0","0","89218","","null","","","null","62","","","","","","","","","","","","","","","NaN",""
"","S1","","html-keyboard-response","417","475615","0.0-1.0-569.0","0","0","89218","","null","","","null","63","","","","","","","","","","","","","","","",""
"","ISI","","html-keyboard-response","418","476117","0.0-1.0-570.0","0","0","89218","","null","","","null","63","NaN","","","","","","","","","","","","","","",""
"","S2","","html-keyboard-response","419","476368","0.0-1.0-571.0","0","0","89218","","null","","","null","63","","NaN","","","","","","","","","","","","","",""
"","response","","html-keyboard-response","420","476963","0.0-1.0-572.0-0.0","0","0","89218","","594","","","68","63","","","2","63","training","adjacent","BA","2","1","R.jpg","L.jpg","1","0","0","",""
"","feedback","","html-keyboard-response","421","477964","0.0-1.0-573.0-0.0","0","0","89218","","null","","","null","63","","","","","","","","","","","","","","","",""
"","time_out","","html-keyboard-response","422","479966","0.0-1.0-575.0-0.0","0","0","89218","","null","","","null","63","","","","","","","","","","","","","","","",""
"","ITI","","html-keyboard-response","423","480967","0.0-1.0-576.0","0","0","89218","","null","","","null","63","","","","","","","","","","","","","","","NaN",""
"","S1","","html-keyboard-response","424","481219","0.0-1.0-578.0","0","0","89218","","null","","","null","64","","","","","","","","","","","","","","","",""
"","ISI","","html-keyboard-response","425","481720","0.0-1.0-579.0","0","0","89218","","null","","","null","64","NaN","","","","","","","","","","","","","","",""
"","S2","","html-keyboard-response","426","481972","0.0-1.0-580.0","0","0","89218","","null","","","null","64","","NaN","","","","","","","","","","","","","",""
"","response","","html-keyboard-response","427","482738","0.0-1.0-581.0-0.0","0","0","89218","","764","","","75","64","","","2","64","training","adjacent","CB","3","2","N.jpg","R.jpg","0","0","1","",""
"","feedback","","html-keyboard-response","428","483740","0.0-1.0-582.0-0.0","0","0","89218","","null","","","null","64","","","","","","","","","","","","","","","",""
"","ITI","","html-keyboard-response","429","484745","0.0-1.0-585.0","0","0","89218","","null","","","null","64","","","","","","","","","","","","","","","NaN",""
"","S1","","html-keyboard-response","430","484997","0.0-1.0-587.0","0","0","89218","","null","","","null","65","","","","","","","","","","","","","","","",""
"","ISI","","html-keyboard-response","431","485498","0.0-1.0-588.0","0","0","89218","","null","","","null","65","NaN","","","","","","","","","","","","","","",""
"","S2","","html-keyboard-response","432","485750","0.0-1.0-589.0","0","0","89218","","null","","","null","65","","NaN","","","","","","","","","","","","","",""
"","response","","html-keyboard-response","433","486452","0.0-1.0-590.0-0.0","0","0","89218","","700","","","75","65","","","2","65","training","adjacent","BA","2","1","R.jpg","L.jpg","0","0","1","",""
"","feedback","","html-keyboard-response","434","487453","0.0-1.0-591.0-0.0","0","0","89218","","null","","","null","65","","","","","","","","","","","","","","","",""
"","ITI","","html-keyboard-response","435","488455","0.0-1.0-594.0","0","0","89218","","null","","","null","65","","","","","","","","","","","","","","","NaN",""
"","S1","","html-keyboard-response","436","488707","0.0-1.0-596.0","0","0","89218","","null","","","null","66","","","","","","","","","","","","","","","",""
"","ISI","","html-keyboard-response","437","489209","0.0-1.0-597.0","0","0","89218","","null","","","null","66","NaN","","","","","","","","","","","","","","",""
"","S2","","html-keyboard-response","438","489460","0.0-1.0-598.0","0","0","89218","","null","","","null","66","","NaN","","","","","","","","","","","","","",""
"","response","","html-keyboard-response","439","490215","0.0-1.0-599.0-0.0","0","0","89218","","753","","","75","66","","","2","66","training","adjacent","EF","5","6","P.jpg","O.jpg","0","1","0","",""
"","feedback","","html-keyboard-response","440","491217","0.0-1.0-600.0-0.0","0","0","89218","","null","","","null","66","","","","","","","","","","","","","","","",""
"","time_out","","html-keyboard-response","441","493218","0.0-1.0-602.0-0.0","0","0","89218","","null","","","null","66","","","","","","","","","","","","","","","",""
"","ITI","","html-keyboard-response","442","494219","0.0-1.0-603.0","0","0","89218","","null","","","null","66","","","","","","","","","","","","","","","NaN",""
"","S1","","html-keyboard-response","443","494471","0.0-1.0-605.0","0","0","89218","","null","","","null","67","","","","","","","","","","","","","","","",""
"","ISI","","html-keyboard-response","444","494972","0.0-1.0-606.0","0","0","89218","","null","","","null","67","NaN","","","","","","","","","","","","","","",""
"","S2","","html-keyboard-response","445","495224","0.0-1.0-607.0","0","0","89218","","null","","","null","67","","NaN","","","","","","","","","","","","","",""
"","response","","html-keyboard-response","446","495931","0.0-1.0-608.0-0.0","0","0","89218","","706","","","68","67","","","2","67","training","adjacent","DE","4","5","M.jpg","P.jpg","1","1","1","",""
"","feedback","","html-keyboard-response","447","496933","0.0-1.0-609.0-0.0","0","0","89218","","null","","","null","67","","","","","","","","","","","","","","","",""
"","ITI","","html-keyboard-response","448","497935","0.0-1.0-612.0","0","0","89218","","null","","","null","67","","","","","","","","","","","","","","","NaN",""
"","S1","","html-keyboard-response","449","498187","0.0-1.0-614.0","0","0","89218","","null","","","null","68","","","","","","","","","","","","","","","",""
"","ISI","","html-keyboard-response","450","498688","0.0-1.0-615.0","0","0","89218","","null","","","null","68","NaN","","","","","","","","","","","","","","",""
"","S2","","html-keyboard-response","451","498940","0.0-1.0-616.0","0","0","89218","","null","","","null","68","","NaN","","","","","","","","","","","","","",""
"","response","","html-keyboard-response","452","499525","0.0-1.0-617.0-0.0","0","0","89218","","584","","","75","68","","","2","68","training","adjacent","DC","4","3","M.jpg","N.jpg","0","0","1","",""
"","feedback","","html-keyboard-response","453","500526","0.0-1.0-618.0-0.0","0","0","89218","","null","","","null","68","","","","","","","","","","","","","","","",""
"","ITI","","html-keyboard-response","454","501528","0.0-1.0-621.0","0","0","89218","","null","","","null","68","","","","","","","","","","","","","","","NaN",""
"","S1","","html-keyboard-response","455","501780","0.0-1.0-623.0","0","0","89218","","null","","","null","69","","","","","","","","","","","","","","","",""
"","ISI","","html-keyboard-response","456","502282","0.0-1.0-624.0","0","0","89218","","null","","","null","69","NaN","","","","","","","","","","","","","","",""
"","S2","","html-keyboard-response","457","502534","0.0-1.0-625.0","0","0","89218","","null","","","null","69","","NaN","","","","","","","","","","","","","",""
"","response","","html-keyboard-response","458","503155","0.0-1.0-626.0-0.0","0","0","89218","","620","","","75","69","","","2","69","training","adjacent","GF","7","6","Q.jpg","O.jpg","0","0","1","",""
"","feedback","","html-keyboard-response","459","504156","0.0-1.0-627.0-0.0","0","0","89218","","null","","","null","69","","","","","","","","","","","","","","","",""
"","ITI","","html-keyboard-response","460","505157","0.0-1.0-630.0","0","0","89218","","null","","","null","69","","","","","","","","","","","","","","","NaN",""
"","S1","","html-keyboard-response","461","505409","0.0-1.0-632.0","0","0","89218","","null","","","null","70","","","","","","","","","","","","","","","",""
"","ISI","","html-keyboard-response","462","505910","0.0-1.0-633.0","0","0","89218","","null","","","null","70","NaN","","","","","","","","","","","","","","",""
"","S2","","html-keyboard-response","463","506162","0.0-1.0-634.0","0","0","89218","","null","","","null","70","","NaN","","","","","","","","","","","","","",""
"","response","","html-keyboard-response","464","506771","0.0-1.0-635.0-0.0","0","0","89218","","608","","","68","70","","","2","70","training","adjacent","ED","5","4","P.jpg","M.jpg","1","0","0","",""
"","feedback","","html-keyboard-response","465","507773","0.0-1.0-636.0-0.0","0","0","89218","","null","","","null","70","","","","","","","","","","","","","","","",""
"","time_out","","html-keyboard-response","466","509775","0.0-1.0-638.0-0.0","0","0","89218","","null","","","null","70","","","","","","","","","","","","","","","",""
"","ITI","","html-keyboard-response","467","510776","0.0-1.0-639.0","0","0","89218","","null","","","null","70","","","","","","","","","","","","","","","NaN",""
"","S1","","html-keyboard-response","468","511028","0.0-1.0-641.0","0","0","89218","","null","","","null","71","","","","","","","","","","","","","","","",""
"","ISI","","html-keyboard-response","469","511529","0.0-1.0-642.0","0","0","89218","","null","","","null","71","NaN","","","","","","","","","","","","","","",""
"","S2","","html-keyboard-response","470","511780","0.0-1.0-643.0","0","0","89218","","null","","","null","71","","NaN","","","","","","","","","","","","","",""
"","response","","html-keyboard-response","471","512206","0.0-1.0-644.0-0.0","0","0","89218","","425","","","75","71","","","2","71","training","adjacent","CB","3","2","N.jpg","R.jpg","0","0","1","",""
"","feedback","","html-keyboard-response","472","513208","0.0-1.0-645.0-0.0","0","0","89218","","null","","","null","71","","","","","","","","","","","","","","","",""
"","ITI","","html-keyboard-response","473","514210","0.0-1.0-648.0","0","0","89218","","null","","","null","71","","","","","","","","","","","","","","","NaN",""
"","S1","","html-keyboard-response","474","514461","0.0-1.0-650.0","0","0","89218","","null","","","null","72","","","","","","","","","","","","","","","",""
"","ISI","","html-keyboard-response","475","514963","0.0-1.0-651.0","0","0","89218","","null","","","null","72","NaN","","","","","","","","","","","","","","",""
"","S2","","html-keyboard-response","476","515215","0.0-1.0-652.0","0","0","89218","","null","","","null","72","","NaN","","","","","","","","","","","","","",""
"","response","","html-keyboard-response","477","515700","0.0-1.0-653.0-0.0","0","0","89218","","484","","","68","72","","","2","72","training","adjacent","FG","6","7","O.jpg","Q.jpg","1","1","1","",""
"","feedback","","html-keyboard-response","478","516702","0.0-1.0-654.0-0.0","0","0","89218","","null","","","null","72","","","","","","","","","","","","","","","",""
"","ITI","","html-keyboard-response","479","517704","0.0-1.0-657.0","0","0","89218","","null","","","null","72","","","","","","","","","","","","","","","NaN",""
"","S1","","html-keyboard-response","480","517956","0.0-1.0-659.0","0","0","89218","","null","","","null","73","","","","","","","","","","","","","","","",""
"","ISI","","html-keyboard-response","481","518458","0.0-1.0-660.0","0","0","89218","","null","","","null","73","NaN","","","","","","","","","","","","","","",""
"","S2","","html-keyboard-response","482","518709","0.0-1.0-661.0","0","0","89218","","null","","","null","73","","NaN","","","","","","","","","","","","","",""
"","response","","html-keyboard-response","483","519519","0.0-1.0-662.0-0.0","0","0","89218","","809","","","68","73","","","2","73","training","adjacent","EF","5","6","P.jpg","O.jpg","1","1","1","",""
"","feedback","","html-keyboard-response","484","520521","0.0-1.0-663.0-0.0","0","0","89218","","null","","","null","73","","","","","","","","","","","","","","","",""
"","ITI","","html-keyboard-response","485","521522","0.0-1.0-666.0","0","0","89218","","null","","","null","73","","","","","","","","","","","","","","","NaN",""
"","S1","","html-keyboard-response","486","521774","0.0-1.0-668.0","0","0","89218","","null","","","null","74","","","","","","","","","","","","","","","",""
"","ISI","","html-keyboard-response","487","522276","0.0-1.0-669.0","0","0","89218","","null","","","null","74","NaN","","","","","","","","","","","","","","",""
"","S2","","html-keyboard-response","488","522528","0.0-1.0-670.0","0","0","89218","","null","","","null","74","","NaN","","","","","","","","","","","","","",""
"","response","","html-keyboard-response","489","523256","0.0-1.0-671.0-0.0","0","0","89218","","728","","","75","74","","","2","74","training","adjacent","ED","5","4","P.jpg","M.jpg","0","0","1","",""
"","feedback","","html-keyboard-response","490","524258","0.0-1.0-672.0-0.0","0","0","89218","","null","","","null","74","","","","","","","","","","","","","","","",""
"","ITI","","html-keyboard-response","491","525260","0.0-1.0-675.0","0","0","89218","","null","","","null","74","","","","","","","","","","","","","","","NaN",""
"","S1","","html-keyboard-response","492","525512","0.0-1.0-677.0","0","0","89218","","null","","","null","75","","","","","","","","","","","","","","","",""
"","ISI","","html-keyboard-response","493","526013","0.0-1.0-678.0","0","0","89218","","null","","","null","75","NaN","","","","","","","","","","","","","","",""
"","S2","","html-keyboard-response","494","526265","0.0-1.0-679.0","0","0","89218","","null","","","null","75","","NaN","","","","","","","","","","","","","",""
"","response","","html-keyboard-response","495","526660","0.0-1.0-680.0-0.0","0","0","89218","","394","","","75","75","","","2","75","training","adjacent","CB","3","2","N.jpg","R.jpg","0","0","1","",""
"","feedback","","html-keyboard-response","496","527661","0.0-1.0-681.0-0.0","0","0","89218","","null","","","null","75","","","","","","","","","","","","","","","",""
"","ITI","","html-keyboard-response","497","528663","0.0-1.0-684.0","0","0","89218","","null","","","null","75","","","","","","","","","","","","","","","NaN",""
"","S1","","html-keyboard-response","498","528914","0.0-1.0-686.0","0","0","89218","","null","","","null","76","","","","","","","","","","","","","","","",""
"","ISI","","html-keyboard-response","499","529416","0.0-1.0-687.0","0","0","89218","","null","","","null","76","NaN","","","","","","","","","","","","","","",""
"","S2","","html-keyboard-response","500","529668","0.0-1.0-688.0","0","0","89218","","null","","","null","76","","NaN","","","","","","","","","","","","","",""
"","response","","html-keyboard-response","501","530186","0.0-1.0-689.0-0.0","0","0","89218","","517","","","68","76","","","2","76","training","adjacent","BC","2","3","R.jpg","N.jpg","1","1","1","",""
"","feedback","","html-keyboard-response","502","531188","0.0-1.0-690.0-0.0","0","0","89218","","null","","","null","76","","","","","","","","","","","","","","","",""
"","ITI","","html-keyboard-response","503","532189","0.0-1.0-693.0","0","0","89218","","null","","","null","76","","","","","","","","","","","","","","","NaN",""
"","S1","","html-keyboard-response","504","532441","0.0-1.0-695.0","0","0","89218","","null","","","null","77","","","","","","","","","","","","","","","",""
"","ISI","","html-keyboard-response","505","532943","0.0-1.0-696.0","0","0","89218","","null","","","null","77","NaN","","","","","","","","","","","","","","",""
"","S2","","html-keyboard-response","506","533194","0.0-1.0-697.0","0","0","89218","","null","","","null","77","","NaN","","","","","","","","","","","","","",""
"","response","","html-keyboard-response","507","533787","0.0-1.0-698.0-0.0","0","0","89218","","591","","","68","77","","","2","77","training","adjacent","DC","4","3","M.jpg","N.jpg","1","0","0","",""
"","feedback","","html-keyboard-response","508","534789","0.0-1.0-699.0-0.0","0","0","89218","","null","","","null","77","","","","","","","","","","","","","","","",""
"","time_out","","html-keyboard-response","509","536791","0.0-1.0-701.0-0.0","0","0","89218","","null","","","null","77","","","","","","","","","","","","","","","",""
"","ITI","","html-keyboard-response","510","537793","0.0-1.0-702.0","0","0","89218","","null","","","null","77","","","","","","","","","","","","","","","NaN",""
"","S1","","html-keyboard-response","511","538045","0.0-1.0-704.0","0","0","89218","","null","","","null","78","","","","","","","","","","","","","","","",""
"","ISI","","html-keyboard-response","512","538547","0.0-1.0-705.0","0","0","89218","","null","","","null","78","NaN","","","","","","","","","","","","","","",""
"","S2","","html-keyboard-response","513","538798","0.0-1.0-706.0","0","0","89218","","null","","","null","78","","NaN","","","","","","","","","","","","","",""
"","response","","html-keyboard-response","514","539424","0.0-1.0-707.0-0.0","0","0","89218","","625","","","68","78","","","2","78","training","adjacent","EF","5","6","P.jpg","O.jpg","1","1","1","",""
"","feedback","","html-keyboard-response","515","540426","0.0-1.0-708.0-0.0","0","0","89218","","null","","","null","78","","","","","","","","","","","","","","","",""
"","ITI","","html-keyboard-response","516","541428","0.0-1.0-711.0","0","0","89218","","null","","","null","78","","","","","","","","","","","","","","","NaN",""
"","S1","","html-keyboard-response","517","541680","0.0-1.0-713.0","0","0","89218","","null","","","null","79","","","","","","","","","","","","","","","",""
"","ISI","","html-keyboard-response","518","542181","0.0-1.0-714.0","0","0","89218","","null","","","null","79","NaN","","","","","","","","","","","","","","",""
"","S2","","html-keyboard-response","519","542433","0.0-1.0-715.0","0","0","89218","","null","","","null","79","","NaN","","","","","","","","","","","","","",""
"","response","","html-keyboard-response","520","543040","0.0-1.0-716.0-0.0","0","0","89218","","606","","","68","79","","","2","79","training","adjacent","DE","4","5","M.jpg","P.jpg","1","1","1","",""
"","feedback","","html-keyboard-response","521","544042","0.0-1.0-717.0-0.0","0","0","89218","","null","","","null","79","","","","","","","","","","","","","","","",""
"","ITI","","html-keyboard-response","522","545044","0.0-1.0-720.0","0","0","89218","","null","","","null","79","","","","","","","","","","","","","","","NaN",""
"","S1","","html-keyboard-response","523","545296","0.0-1.0-722.0","0","0","89218","","null","","","null","80","","","","","","","","","","","","","","","",""
"","ISI","","html-keyboard-response","524","545798","0.0-1.0-723.0","0","0","89218","","null","","","null","80","NaN","","","","","","","","","","","","","","",""
"","S2","","html-keyboard-response","525","546050","0.0-1.0-724.0","0","0","89218","","null","","","null","80","","NaN","","","","","","","","","","","","","",""
"","response","","html-keyboard-response","526","546718","0.0-1.0-725.0-0.0","0","0","89218","","668","","","68","80","","","2","80","training","adjacent","AB","1","2","L.jpg","R.jpg","1","1","1","",""
"","feedback","","html-keyboard-response","527","547721","0.0-1.0-726.0-0.0","0","0","89218","","null","","","null","80","","","","","","","","","","","","","","","",""
"","ITI","","html-keyboard-response","528","548722","0.0-1.0-729.0","0","0","89218","","null","","","null","80","","","","","","","","","","","","","","","NaN",""
"","S1","","html-keyboard-response","529","548974","0.0-1.0-731.0","0","0","89218","","null","","","null","81","","","","","","","","","","","","","","","",""
"","ISI","","html-keyboard-response","530","549475","0.0-1.0-732.0","0","0","89218","","null","","","null","81","NaN","","","","","","","","","","","","","","",""
"","S2","","html-keyboard-response","531","549727","0.0-1.0-733.0","0","0","89218","","null","","","null","81","","NaN","","","","","","","","","","","","","",""
"","response","","html-keyboard-response","532","550400","0.0-1.0-734.0-0.0","0","0","89218","","672","","","75","81","","","2","81","training","adjacent","DE","4","5","M.jpg","P.jpg","0","1","0","",""
"","feedback","","html-keyboard-response","533","551401","0.0-1.0-735.0-0.0","0","0","89218","","null","","","null","81","","","","","","","","","","","","","","","",""
"","time_out","","html-keyboard-response","534","553403","0.0-1.0-737.0-0.0","0","0","89218","","null","","","null","81","","","","","","","","","","","","","","","",""
"","ITI","","html-keyboard-response","535","554404","0.0-1.0-738.0","0","0","89218","","null","","","null","81","","","","","","","","","","","","","","","NaN",""
"","S1","","html-keyboard-response","536","554656","0.0-1.0-740.0","0","0","89218","","null","","","null","82","","","","","","","","","","","","","","","",""
"","ISI","","html-keyboard-response","537","555158","0.0-1.0-741.0","0","0","89218","","null","","","null","82","NaN","","","","","","","","","","","","","","",""
"","S2","","html-keyboard-response","538","555410","0.0-1.0-742.0","0","0","89218","","null","","","null","82","","NaN","","","","","","","","","","","","","",""
"","response","","html-keyboard-response","539","556062","0.0-1.0-743.0-0.0","0","0","89218","","651","","","68","82","","","2","82","training","adjacent","AB","1","2","L.jpg","R.jpg","1","1","1","",""
"","feedback","","html-keyboard-response","540","557064","0.0-1.0-744.0-0.0","0","0","89218","","null","","","null","82","","","","","","","","","","","","","","","",""
"","ITI","","html-keyboard-response","541","558066","0.0-1.0-747.0","0","0","89218","","null","","","null","82","","","","","","","","","","","","","","","NaN",""
"","S1","","html-keyboard-response","542","558317","0.0-1.0-749.0","0","0","89218","","null","","","null","83","","","","","","","","","","","","","","","",""
"","ISI","","html-keyboard-response","543","558819","0.0-1.0-750.0","0","0","89218","","null","","","null","83","NaN","","","","","","","","","","","","","","",""
"","S2","","html-keyboard-response","544","559071","0.0-1.0-751.0","0","0","89218","","null","","","null","83","","NaN","","","","","","","","","","","","","",""
"","response","","html-keyboard-response","545","559612","0.0-1.0-752.0-0.0","0","0","89218","","540","","","68","83","","","2","83","training","adjacent","AB","1","2","L.jpg","R.jpg","1","1","1","",""
"","feedback","","html-keyboard-response","546","560613","0.0-1.0-753.0-0.0","0","0","89218","","null","","","null","83","","","","","","","","","","","","","","","",""
"","ITI","","html-keyboard-response","547","561615","0.0-1.0-756.0","0","0","89218","","null","","","null","83","","","","","","","","","","","","","","","NaN",""
"","S1","","html-keyboard-response","548","561867","0.0-1.0-758.0","0","0","89218","","null","","","null","84","","","","","","","","","","","","","","","",""
"","ISI","","html-keyboard-response","549","562368","0.0-1.0-759.0","0","0","89218","","null","","","null","84","NaN","","","","","","","","","","","","","","",""
"","S2","","html-keyboard-response","550","562620","0.0-1.0-760.0","0","0","89218","","null","","","null","84","","NaN","","","","","","","","","","","","","",""
"","response","","html-keyboard-response","551","563359","0.0-1.0-761.0-0.0","0","0","89218","","737","","","68","84","","","2","84","training","adjacent","BC","2","3","R.jpg","N.jpg","1","1","1","",""
"","feedback","","html-keyboard-response","552","564360","0.0-1.0-762.0-0.0","0","0","89218","","null","","","null","84","","","","","","","","","","","","","","","",""
"","ITI","","html-keyboard-response","553","565362","0.0-1.0-765.0","0","0","89218","","null","","","null","84","","","","","","","","","","","","","","","NaN",""
"","S1","","html-keyboard-response","554","565614","0.0-1.0-767.0","0","0","89218","","null","","","null","85","","","","","","","","","","","","","","","",""
"","ISI","","html-keyboard-response","555","566116","0.0-1.0-768.0","0","0","89218","","null","","","null","85","NaN","","","","","","","","","","","","","","",""
"","S2","","html-keyboard-response","556","566367","0.0-1.0-769.0","0","0","89218","","null","","","null","85","","NaN","","","","","","","","","","","","","",""
"","response","","html-keyboard-response","557","566912","0.0-1.0-770.0-0.0","0","0","89218","","544","","","75","85","","","2","85","training","adjacent","FE","6","5","O.jpg","P.jpg","0","0","1","",""
"","feedback","","html-keyboard-response","558","567914","0.0-1.0-771.0-0.0","0","0","89218","","null","","","null","85","","","","","","","","","","","","","","","",""
"","ITI","","html-keyboard-response","559","568917","0.0-1.0-774.0","0","0","89218","","null","","","null","85","","","","","","","","","","","","","","","NaN",""
"","S1","","html-keyboard-response","560","569169","0.0-1.0-776.0","0","0","89218","","null","","","null","86","","","","","","","","","","","","","","","",""
"","ISI","","html-keyboard-response","561","569670","0.0-1.0-777.0","0","0","89218","","null","","","null","86","NaN","","","","","","","","","","","","","","",""
"","S2","","html-keyboard-response","562","569922","0.0-1.0-778.0","0","0","89218","","null","","","null","86","","NaN","","","","","","","","","","","","","",""
"","response","","html-keyboard-response","563","570684","0.0-1.0-779.0-0.0","0","0","89218","","762","","","75","86","","","2","86","training","adjacent","DC","4","3","M.jpg","N.jpg","0","0","1","",""
"","feedback","","html-keyboard-response","564","571686","0.0-1.0-780.0-0.0","0","0","89218","","null","","","null","86","","","","","","","","","","","","","","","",""
"","ITI","","html-keyboard-response","565","572687","0.0-1.0-783.0","0","0","89218","","null","","","null","86","","","","","","","","","","","","","","","NaN",""
"","S1","","html-keyboard-response","566","572939","0.0-1.0-785.0","0","0","89218","","null","","","null","87","","","","","","","","","","","","","","","",""
"","ISI","","html-keyboard-response","567","573441","0.0-1.0-786.0","0","0","89218","","null","","","null","87","NaN","","","","","","","","","","","","","","",""
"","S2","","html-keyboard-response","568","573693","0.0-1.0-787.0","0","0","89218","","null","","","null","87","","NaN","","","","","","","","","","","","","",""
"","response","","html-keyboard-response","569","574339","0.0-1.0-788.0-0.0","0","0","89218","","645","","","68","87","","","2","87","training","adjacent","CD","3","4","N.jpg","M.jpg","1","1","1","",""
"","feedback","","html-keyboard-response","570","575341","0.0-1.0-789.0-0.0","0","0","89218","","null","","","null","87","","","","","","","","","","","","","","","",""
"","ITI","","html-keyboard-response","571","576343","0.0-1.0-792.0","0","0","89218","","null","","","null","87","","","","","","","","","","","","","","","NaN",""
"","S1","","html-keyboard-response","572","576594","0.0-1.0-794.0","0","0","89218","","null","","","null","88","","","","","","","","","","","","","","","",""
"","ISI","","html-keyboard-response","573","577096","0.0-1.0-795.0","0","0","89218","","null","","","null","88","NaN","","","","","","","","","","","","","","",""
"","S2","","html-keyboard-response","574","577348","0.0-1.0-796.0","0","0","89218","","null","","","null","88","","NaN","","","","","","","","","","","","","",""
"","response","","html-keyboard-response","575","578072","0.0-1.0-797.0-0.0","0","0","89218","","723","","","75","88","","","2","88","training","adjacent","FE","6","5","O.jpg","P.jpg","0","0","1","",""
"","feedback","","html-keyboard-response","576","579074","0.0-1.0-798.0-0.0","0","0","89218","","null","","","null","88","","","","","","","","","","","","","","","",""
"","ITI","","html-keyboard-response","577","580076","0.0-1.0-801.0","0","0","89218","","null","","","null","88","","","","","","","","","","","","","","","NaN",""
"","S1","","html-keyboard-response","578","580327","0.0-1.0-803.0","0","0","89218","","null","","","null","89","","","","","","","","","","","","","","","",""
"","ISI","","html-keyboard-response","579","580829","0.0-1.0-804.0","0","0","89218","","null","","","null","89","NaN","","","","","","","","","","","","","","",""
"","S2","","html-keyboard-response","580","581081","0.0-1.0-805.0","0","0","89218","","null","","","null","89","","NaN","","","","","","","","","","","","","",""
