"success","ttype","start_time","trial_type","trial_index","time_elapsed","internal_node_id","warning","missed_checkup","PID","view_history","rt","responses","repeat_instructions","key_press","index","keypress_isi","keypress_S2","block","trial_num","phase","group_type","pair_type","S1_stim","S2_stim","S1_img","S2_img","S1_chosen","S1_higher","accuracy","keypress_iti","total_bonus_tally"
"true","full_screen","d07292022hr2001","fullscreen","0","14979","0.0-0.0","0","0","89227","","","","","","","","","","","","","","","","","","","","","",""
"","instructions","","instructions","1","52457","0.0-1.0-0.0-0.0","0","0","89227","[{""page_index"":0,""viewing_time"":5570},{""page_index"":1,""viewing_time"":19452},{""page_index"":2,""viewing_time"":10503},{""page_index"":3,""viewing_time"":1949}]","37475","","","","","","","","","","","","","","","","","","","",""
"","comprehension_check","","survey-multi-choice","2","72130","0.0-1.0-0.0-1.0","0","0","89227","","19664","{""Q0"":""True"",""Q1"":""K"",""Q2"":""When you see the prompt 'MAKE A CHOICE' after the second image was presented"",""Q3"":""Green mark"",""Q4"":""either D or K""}","0","","","","","","","","","","","","","","","","","",""
"","start_exp","","html-keyboard-response","3","74275","0.0-1.0-1.0","0","0","89227","","2140","","","32","","","","","","","","","","","","","","","","",""
"","S1","","html-keyboard-response","4","74528","0.0-1.0-2.0","0","0","89227","","null","","","null","0","","","","","","","","","","","","","","","",""
"","ISI","","html-keyboard-response","5","76531","0.0-1.0-3.0","0","0","89227","","null","","","null","0","NaN","","","","","","","","","","","","","","",""
"","S2","","html-keyboard-response","6","76784","0.0-1.0-4.0","0","0","89227","","null","","","null","0","","NaN","","","","","","","","","","","","","",""
"","response","","html-keyboard-response","7","77517","0.0-1.0-5.0","0","0","89227","","730","","","68","0","","","1","0","training","adjacent","BC","2","3","M.jpg","P.jpg","0","1","0","",""
"","feedback","","html-keyboard-response","8","78520","0.0-1.0-6.0-0.0","0","0","89227","","null","","","null","0","","","","","","","","","","","","","","","",""
"","time_out","","html-keyboard-response","9","80524","0.0-1.0-8.0-0.0","0","0","89227","","null","","","null","0","","","","","","","","","","","","","","","",""
"","ITI","","html-keyboard-response","10","81528","0.0-1.0-9.0","0","0","89227","","null","","","null","0","","","","","","","","","","","","","","","NaN",""
"","S1","","html-keyboard-response","11","81781","0.0-1.0-11.0","0","0","89227","","null","","","null","1","","","","","","","","","","","","","","","",""
"","ISI","","html-keyboard-response","12","83783","0.0-1.0-12.0","0","0","89227","","null","","","null","1","NaN","","","","","","","","","","","","","","",""
"","S2","","html-keyboard-response","13","84040","0.0-1.0-13.0","0","0","89227","","null","","","null","1","","NaN","","","","","","","","","","","","","",""
"","response","","html-keyboard-response","14","84831","0.0-1.0-14.0","0","0","89227","","789","","","75","1","","","1","1","training","adjacent","DC","4","3","L.jpg","P.jpg","1","0","0","",""
"","feedback","","html-keyboard-response","15","85835","0.0-1.0-15.0-0.0","0","0","89227","","null","","","null","1","","","","","","","","","","","","","","","",""
"","time_out","","html-keyboard-response","16","87837","0.0-1.0-17.0-0.0","0","0","89227","","null","","","null","1","","","","","","","","","","","","","","","",""
"","ITI","","html-keyboard-response","17","88840","0.0-1.0-18.0","0","0","89227","","null","","","null","1","","","","","","","","","","","","","","","NaN",""
"","S1","","html-keyboard-response","18","89093","0.0-1.0-20.0","0","0","89227","","null","","","null","2","","","","","","","","","","","","","","","",""
"","ISI","","html-keyboard-response","19","91097","0.0-1.0-21.0","0","0","89227","","null","","","null","2","NaN","","","","","","","","","","","","","","",""
"","S2","","html-keyboard-response","20","91350","0.0-1.0-22.0","0","0","89227","","null","","","null","2","","NaN","","","","","","","","","","","","","",""
"","response","","html-keyboard-response","21","92110","0.0-1.0-23.0","0","0","89227","","758","","","68","2","","","1","2","training","adjacent","CB","3","2","P.jpg","M.jpg","0","0","1","",""
"","feedback","","html-keyboard-response","22","93114","0.0-1.0-24.0-0.0","0","0","89227","","null","","","null","2","","","","","","","","","","","","","","","",""
"","ITI","","html-keyboard-response","23","94117","0.0-1.0-27.0","0","0","89227","","null","","","null","2","","","","","","","","","","","","","","","NaN",""
"","S1","","html-keyboard-response","24","94370","0.0-1.0-29.0","0","0","89227","","null","","","null","3","","","","","","","","","","","","","","","",""
"","ISI","","html-keyboard-response","25","96381","0.0-1.0-30.0","0","0","89227","","null","","","null","3","NaN","","","","","","","","","","","","","","",""
"","S2","","html-keyboard-response","26","96636","0.0-1.0-31.0","0","0","89227","","null","","","null","3","","NaN","","","","","","","","","","","","","",""
"","response","","html-keyboard-response","27","97433","0.0-1.0-32.0","0","0","89227","","794","","","68","3","","","1","3","training","adjacent","CB","3","2","P.jpg","M.jpg","0","0","1","",""
"","feedback","","html-keyboard-response","28","98437","0.0-1.0-33.0-0.0","0","0","89227","","null","","","null","3","","","","","","","","","","","","","","","",""
"","ITI","","html-keyboard-response","29","99440","0.0-1.0-36.0","0","0","89227","","null","","","null","3","","","","","","","","","","","","","","","NaN",""
"","S1","","html-keyboard-response","30","99694","0.0-1.0-38.0","0","0","89227","","null","","","null","4","","","","","","","","","","","","","","","",""
"","ISI","","html-keyboard-response","31","101753","0.0-1.0-39.0","0","0","89227","","null","","","null","4","NaN","","","","","","","","","","","","","","",""
"","S2","","html-keyboard-response","32","102010","0.0-1.0-40.0","0","0","89227","","null","","","null","4","","NaN","","","","","","","","","","","","","",""
"","response","","html-keyboard-response","33","103490","0.0-1.0-41.0","0","0","89227","","1477","","","68","4","","","1","4","training","adjacent","GF","7","6","Q.jpg","R.jpg","0","0","1","",""
"","feedback","","html-keyboard-response","34","104494","0.0-1.0-42.0-0.0","0","0","89227","","null","","","null","4","","","","","","","","","","","","","","","",""
"","ITI","","html-keyboard-response","35","105498","0.0-1.0-45.0","0","0","89227","","null","","","null","4","","","","","","","","","","","","","","","NaN",""
"","S1","","html-keyboard-response","36","105758","0.0-1.0-47.0","0","0","89227","","null","","","null","5","","","","","","","","","","","","","","","",""
"","ISI","","html-keyboard-response","37","107767","0.0-1.0-48.0","0","0","89227","","null","","","null","5","NaN","","","","","","","","","","","","","","",""
"","S2","","html-keyboard-response","38","108021","0.0-1.0-49.0","0","0","89227","","null","","","null","5","","NaN","","","","","","","","","","","","","",""
"","response","","html-keyboard-response","39","108596","0.0-1.0-50.0","0","0","89227","","572","","","75","5","","","1","5","training","adjacent","DE","4","5","L.jpg","N.jpg","1","1","1","",""
"","feedback","","html-keyboard-response","40","109600","0.0-1.0-51.0-0.0","0","0","89227","","null","","","null","5","","","","","","","","","","","","","","","",""
"","ITI","","html-keyboard-response","41","110636","0.0-1.0-54.0","0","0","89227","","null","","","null","5","","","","","","","","","","","","","","","NaN",""
"","S1","","html-keyboard-response","42","110891","0.0-1.0-56.0","0","0","89227","","null","","","null","6","","","","","","","","","","","","","","","",""
"","ISI","","html-keyboard-response","43","112894","0.0-1.0-57.0","0","0","89227","","null","","","null","6","NaN","","","","","","","","","","","","","","",""
"","S2","","html-keyboard-response","44","113157","0.0-1.0-58.0","0","0","89227","","null","","","null","6","","NaN","","","","","","","","","","","","","",""
"","response","","html-keyboard-response","45","114031","0.0-1.0-59.0","0","0","89227","","870","","","68","6","","","1","6","training","adjacent","GF","7","6","Q.jpg","R.jpg","0","0","1","",""
"","feedback","","html-keyboard-response","46","115043","0.0-1.0-60.0-0.0","0","0","89227","","null","","","null","6","","","","","","","","","","","","","","","",""
"","ITI","","html-keyboard-response","47","116047","0.0-1.0-63.0","0","0","89227","","null","","","null","6","","","","","","","","","","","","","","","NaN",""
"","S1","","html-keyboard-response","48","116301","0.0-1.0-65.0","0","0","89227","","null","","","null","7","","","","","","","","","","","","","","","",""
"","ISI","","html-keyboard-response","49","118305","0.0-1.0-66.0","0","0","89227","","null","","","null","7","NaN","","","","","","","","","","","","","","",""
"","S2","","html-keyboard-response","50","118558","0.0-1.0-67.0","0","0","89227","","null","","","null","7","","NaN","","","","","","","","","","","","","",""
"","response","","html-keyboard-response","51","119033","0.0-1.0-68.0","0","0","89227","","471","","","68","7","","","1","7","training","adjacent","BC","2","3","M.jpg","P.jpg","0","1","0","",""
"","feedback","","html-keyboard-response","52","120037","0.0-1.0-69.0-0.0","0","0","89227","","null","","","null","7","","","","","","","","","","","","","","","",""
"","time_out","","html-keyboard-response","53","122040","0.0-1.0-71.0-0.0","0","0","89227","","null","","","null","7","","","","","","","","","","","","","","","",""
"","ITI","","html-keyboard-response","54","123043","0.0-1.0-72.0","0","0","89227","","null","","","null","7","","","","","","","","","","","","","","","NaN",""
"","S1","","html-keyboard-response","55","123297","0.0-1.0-74.0","0","0","89227","","null","","","null","8","","","","","","","","","","","","","","","",""
"","ISI","","html-keyboard-response","56","125303","0.0-1.0-75.0","0","0","89227","","null","","","null","8","NaN","","","","","","","","","","","","","","",""
"","S2","","html-keyboard-response","57","125591","0.0-1.0-76.0","0","0","89227","","null","","","null","8","","NaN","","","","","","","","","","","","","",""
"","response","","html-keyboard-response","58","126059","0.0-1.0-77.0","0","0","89227","","464","","","75","8","","","1","8","training","adjacent","FG","6","7","R.jpg","Q.jpg","1","1","1","",""
"","feedback","","html-keyboard-response","59","127065","0.0-1.0-78.0-0.0","0","0","89227","","null","","","null","8","","","","","","","","","","","","","","","",""
"","ITI","","html-keyboard-response","60","128069","0.0-1.0-81.0","0","0","89227","","null","","","null","8","","","","","","","","","","","","","","","NaN",""
"","S1","","html-keyboard-response","61","128324","0.0-1.0-83.0","0","0","89227","","null","","","null","9","","","","","","","","","","","","","","","",""
"","ISI","","html-keyboard-response","62","130326","0.0-1.0-84.0","0","0","89227","","null","","","null","9","NaN","","","","","","","","","","","","","","",""
"","S2","","html-keyboard-response","63","130589","0.0-1.0-85.0","0","0","89227","","null","","","null","9","","NaN","","","","","","","","","","","","","",""
"","response","","html-keyboard-response","64","131279","0.0-1.0-86.0","0","0","89227","","686","","","75","9","","","1","9","training","adjacent","ED","5","4","N.jpg","L.jpg","1","0","0","",""
"","feedback","","html-keyboard-response","65","132284","0.0-1.0-87.0-0.0","0","0","89227","","null","","","null","9","","","","","","","","","","","","","","","",""
"","time_out","","html-keyboard-response","66","134287","0.0-1.0-89.0-0.0","0","0","89227","","null","","","null","9","","","","","","","","","","","","","","","",""
"","ITI","","html-keyboard-response","67","135290","0.0-1.0-90.0","0","0","89227","","null","","","null","9","","","","","","","","","","","","","","","NaN",""
"","S1","","html-keyboard-response","68","135544","0.0-1.0-92.0","0","0","89227","","null","","","null","10","","","","","","","","","","","","","","","",""
"","ISI","","html-keyboard-response","69","137549","0.0-1.0-93.0","0","0","89227","","null","","","null","10","NaN","","","","","","","","","","","","","","",""
"","S2","","html-keyboard-response","70","137801","0.0-1.0-94.0","0","0","89227","","null","","","null","10","","NaN","","","","","","","","","","","","","",""
"","response","","html-keyboard-response","71","138107","0.0-1.0-95.0","0","0","89227","","303","","","68","10","","","1","10","training","adjacent","ED","5","4","N.jpg","L.jpg","0","0","1","",""
"","feedback","","html-keyboard-response","72","139112","0.0-1.0-96.0-0.0","0","0","89227","","null","","","null","10","","","","","","","","","","","","","","","",""
"","ITI","","html-keyboard-response","73","140116","0.0-1.0-99.0","0","0","89227","","null","","","null","10","","","","","","","","","","","","","","","NaN",""
"","S1","","html-keyboard-response","74","140370","0.0-1.0-101.0","0","0","89227","","null","","","null","11","","","","","","","","","","","","","","","",""
"","ISI","","html-keyboard-response","75","142372","0.0-1.0-102.0","0","0","89227","","null","","","null","11","NaN","","","","","","","","","","","","","","",""
"","S2","","html-keyboard-response","76","142624","0.0-1.0-103.0","0","0","89227","","null","","","null","11","","NaN","","","","","","","","","","","","","",""
"","response","","html-keyboard-response","77","143258","0.0-1.0-104.0","0","0","89227","","632","","","75","11","","","1","11","training","adjacent","CB","3","2","P.jpg","M.jpg","1","0","0","",""
"","feedback","","html-keyboard-response","78","144262","0.0-1.0-105.0-0.0","0","0","89227","","null","","","null","11","","","","","","","","","","","","","","","",""
"","time_out","","html-keyboard-response","79","146265","0.0-1.0-107.0-0.0","0","0","89227","","null","","","null","11","","","","","","","","","","","","","","","",""
"","ITI","","html-keyboard-response","80","147268","0.0-1.0-108.0","0","0","89227","","null","","","null","11","","","","","","","","","","","","","","","NaN",""
"","S1","","html-keyboard-response","81","147521","0.0-1.0-110.0","0","0","89227","","null","","","null","12","","","","","","","","","","","","","","","",""
"","ISI","","html-keyboard-response","82","149525","0.0-1.0-111.0","0","0","89227","","null","","","null","12","NaN","","","","","","","","","","","","","","",""
"","S2","","html-keyboard-response","83","149858","0.0-1.0-112.0","0","0","89227","","null","","","null","12","","NaN","","","","","","","","","","","","","",""
"","response","","html-keyboard-response","84","150182","0.0-1.0-113.0","0","0","89227","","322","","","75","12","","","1","12","training","adjacent","DC","4","3","L.jpg","P.jpg","1","0","0","",""
"","feedback","","html-keyboard-response","85","151186","0.0-1.0-114.0-0.0","0","0","89227","","null","","","null","12","","","","","","","","","","","","","","","",""
"","time_out","","html-keyboard-response","86","153191","0.0-1.0-116.0-0.0","0","0","89227","","null","","","null","12","","","","","","","","","","","","","","","",""
"","ITI","","html-keyboard-response","87","154195","0.0-1.0-117.0","0","0","89227","","null","","","null","12","","","","","","","","","","","","","","","NaN",""
"","S1","","html-keyboard-response","88","154448","0.0-1.0-119.0","0","0","89227","","null","","","null","13","","","","","","","","","","","","","","","",""
"","ISI","","html-keyboard-response","89","156451","0.0-1.0-120.0","0","0","89227","","null","","","null","13","NaN","","","","","","","","","","","","","","",""
"","S2","","html-keyboard-response","90","156705","0.0-1.0-121.0","0","0","89227","","null","","","null","13","","NaN","","","","","","","","","","","","","",""
"","response","","html-keyboard-response","91","157237","0.0-1.0-122.0","0","0","89227","","529","","","75","13","","","1","13","training","adjacent","FE","6","5","R.jpg","N.jpg","1","0","0","",""
"","feedback","","html-keyboard-response","92","158241","0.0-1.0-123.0-0.0","0","0","89227","","null","","","null","13","","","","","","","","","","","","","","","",""
"","time_out","","html-keyboard-response","93","160244","0.0-1.0-125.0-0.0","0","0","89227","","null","","","null","13","","","","","","","","","","","","","","","",""
"","ITI","","html-keyboard-response","94","161248","0.0-1.0-126.0","0","0","89227","","null","","","null","13","","","","","","","","","","","","","","","NaN",""
"","S1","","html-keyboard-response","95","161502","0.0-1.0-128.0","0","0","89227","","null","","","null","14","","","","","","","","","","","","","","","",""
"","ISI","","html-keyboard-response","96","163506","0.0-1.0-129.0","0","0","89227","","null","","","null","14","NaN","","","","","","","","","","","","","","",""
"","S2","","html-keyboard-response","97","163760","0.0-1.0-130.0","0","0","89227","","null","","","null","14","","NaN","","","","","","","","","","","","","",""
"","response","","html-keyboard-response","98","164058","0.0-1.0-131.0","0","0","89227","","297","","","68","14","","","1","14","training","adjacent","CD","3","4","P.jpg","L.jpg","0","1","0","",""
"","feedback","","html-keyboard-response","99","165060","0.0-1.0-132.0-0.0","0","0","89227","","null","","","null","14","","","","","","","","","","","","","","","",""
"","time_out","","html-keyboard-response","100","167064","0.0-1.0-134.0-0.0","0","0","89227","","null","","","null","14","","","","","","","","","","","","","","","",""
"","ITI","","html-keyboard-response","101","168069","0.0-1.0-135.0","0","0","89227","","null","","","null","14","","","","","","","","","","","","","","","NaN",""
"","S1","","html-keyboard-response","102","168383","0.0-1.0-137.0","0","0","89227","","null","","","null","15","","","","","","","","","","","","","","","",""
"","ISI","","html-keyboard-response","103","170387","0.0-1.0-138.0","0","0","89227","","null","","","null","15","NaN","","","","","","","","","","","","","","",""
"","S2","","html-keyboard-response","104","170642","0.0-1.0-139.0","0","0","89227","","null","","","null","15","","NaN","","","","","","","","","","","","","",""
"","response","","html-keyboard-response","105","170859","0.0-1.0-140.0","0","0","89227","","214","","","75","15","","","1","15","training","adjacent","FE","6","5","R.jpg","N.jpg","1","0","0","",""
"","feedback","","html-keyboard-response","106","171864","0.0-1.0-141.0-0.0","0","0","89227","","null","","","null","15","","","","","","","","","","","","","","","",""
"","time_out","","html-keyboard-response","107","173867","0.0-1.0-143.0-0.0","0","0","89227","","null","","","null","15","","","","","","","","","","","","","","","",""
"","ITI","","html-keyboard-response","108","174875","0.0-1.0-144.0","0","0","89227","","null","","","null","15","","","","","","","","","","","","","","","NaN",""
"","S1","","html-keyboard-response","109","175129","0.0-1.0-146.0","0","0","89227","","null","","","null","16","","","","","","","","","","","","","","","",""
"","ISI","","html-keyboard-response","110","177132","0.0-1.0-147.0","0","0","89227","","null","","","null","16","NaN","","","","","","","","","","","","","","",""
"","S2","","html-keyboard-response","111","177384","0.0-1.0-148.0","0","0","89227","","null","","","null","16","","NaN","","","","","","","","","","","","","",""
"","response","","html-keyboard-response","112","177902","0.0-1.0-149.0","0","0","89227","","515","","","75","16","","","1","16","training","adjacent","DE","4","5","L.jpg","N.jpg","1","1","1","",""
"","feedback","","html-keyboard-response","113","178906","0.0-1.0-150.0-0.0","0","0","89227","","null","","","null","16","","","","","","","","","","","","","","","",""
"","ITI","","html-keyboard-response","114","179909","0.0-1.0-153.0","0","0","89227","","null","","","null","16","","","","","","","","","","","","","","","NaN",""
"","S1","","html-keyboard-response","115","180164","0.0-1.0-155.0","0","0","89227","","null","","","null","17","","","","","","","","","","","","","","","",""
"","ISI","","html-keyboard-response","116","182167","0.0-1.0-156.0","0","0","89227","","null","","","null","17","NaN","","","","","","","","","","","","","","",""
"","S2","","html-keyboard-response","117","182421","0.0-1.0-157.0","0","0","89227","","null","","","null","17","","NaN","","","","","","","","","","","","","",""
"","response","","html-keyboard-response","118","182651","0.0-1.0-158.0","0","0","89227","","226","","","68","17","","","1","17","training","adjacent","DE","4","5","L.jpg","N.jpg","0","1","0","",""
"","feedback","","html-keyboard-response","119","183655","0.0-1.0-159.0-0.0","0","0","89227","","null","","","null","17","","","","","","","","","","","","","","","",""
"","time_out","","html-keyboard-response","120","185659","0.0-1.0-161.0-0.0","0","0","89227","","null","","","null","17","","","","","","","","","","","","","","","",""
"","ITI","","html-keyboard-response","121","186664","0.0-1.0-162.0","0","0","89227","","null","","","null","17","","","","","","","","","","","","","","","NaN",""
"","S1","","html-keyboard-response","122","186953","0.0-1.0-164.0","0","0","89227","","null","","","null","18","","","","","","","","","","","","","","","",""
"","ISI","","html-keyboard-response","123","188957","0.0-1.0-165.0","0","0","89227","","null","","","null","18","NaN","","","","","","","","","","","","","","",""
"","S2","","html-keyboard-response","124","189224","0.0-1.0-166.0","0","0","89227","","null","","","null","18","","NaN","","","","","","","","","","","","","",""
"","response","","html-keyboard-response","125","189454","0.0-1.0-167.0","0","0","89227","","228","","","75","18","","","1","18","training","adjacent","DE","4","5","L.jpg","N.jpg","1","1","1","",""
"","feedback","","html-keyboard-response","126","190458","0.0-1.0-168.0-0.0","0","0","89227","","null","","","null","18","","","","","","","","","","","","","","","",""
"","ITI","","html-keyboard-response","127","191461","0.0-1.0-171.0","0","0","89227","","null","","","null","18","","","","","","","","","","","","","","","NaN",""
"","S1","","html-keyboard-response","128","191714","0.0-1.0-173.0","0","0","89227","","null","","","null","19","","","","","","","","","","","","","","","",""
"","ISI","","html-keyboard-response","129","193717","0.0-1.0-174.0","0","0","89227","","null","","","null","19","NaN","","","","","","","","","","","","","","",""
"","S2","","html-keyboard-response","130","193970","0.0-1.0-175.0","0","0","89227","","null","","","null","19","","NaN","","","","","","","","","","","","","",""
"","response","","html-keyboard-response","131","194523","0.0-1.0-176.0","0","0","89227","","550","","","75","19","","","1","19","training","adjacent","FE","6","5","R.jpg","N.jpg","1","0","0","",""
"","feedback","","html-keyboard-response","132","195525","0.0-1.0-177.0-0.0","0","0","89227","","null","","","null","19","","","","","","","","","","","","","","","",""
"","time_out","","html-keyboard-response","133","197529","0.0-1.0-179.0-0.0","0","0","89227","","null","","","null","19","","","","","","","","","","","","","","","",""
"","ITI","","html-keyboard-response","134","198540","0.0-1.0-180.0","0","0","89227","","null","","","null","19","","","","","","","","","","","","","","","NaN",""
"","S1","","html-keyboard-response","135","198793","0.0-1.0-182.0","0","0","89227","","null","","","null","20","","","","","","","","","","","","","","","",""
"","ISI","","html-keyboard-response","136","200797","0.0-1.0-183.0","0","0","89227","","null","","","null","20","NaN","","","","","","","","","","","","","","",""
"","S2","","html-keyboard-response","137","201052","0.0-1.0-184.0","0","0","89227","","null","","","null","20","","NaN","","","","","","","","","","","","","",""
"","response","","html-keyboard-response","138","201634","0.0-1.0-185.0","0","0","89227","","579","","","68","20","","","1","20","training","adjacent","EF","5","6","N.jpg","R.jpg","0","1","0","",""
"","feedback","","html-keyboard-response","139","202638","0.0-1.0-186.0-0.0","0","0","89227","","null","","","null","20","","","","","","","","","","","","","","","",""
"","time_out","","html-keyboard-response","140","204641","0.0-1.0-188.0-0.0","0","0","89227","","null","","","null","20","","","","","","","","","","","","","","","",""
"","ITI","","html-keyboard-response","141","205653","0.0-1.0-189.0","0","0","89227","","null","","","null","20","","","","","","","","","","","","","","","NaN",""
"","S1","","html-keyboard-response","142","205906","0.0-1.0-191.0","0","0","89227","","null","","","null","21","","","","","","","","","","","","","","","",""
"","ISI","","html-keyboard-response","143","207910","0.0-1.0-192.0","0","0","89227","","null","","","null","21","NaN","","","","","","","","","","","","","","",""
"","S2","","html-keyboard-response","144","208163","0.0-1.0-193.0","0","0","89227","","null","","","null","21","","NaN","","","","","","","","","","","","","",""
"","response","","html-keyboard-response","145","208637","0.0-1.0-194.0","0","0","89227","","471","","","68","21","","","1","21","training","adjacent","BC","2","3","M.jpg","P.jpg","0","1","0","",""
"","feedback","","html-keyboard-response","146","209640","0.0-1.0-195.0-0.0","0","0","89227","","null","","","null","21","","","","","","","","","","","","","","","",""
"","time_out","","html-keyboard-response","147","211643","0.0-1.0-197.0-0.0","0","0","89227","","null","","","null","21","","","","","","","","","","","","","","","",""
"","ITI","","html-keyboard-response","148","212646","0.0-1.0-198.0","0","0","89227","","null","","","null","21","","","","","","","","","","","","","","","NaN",""
"","S1","","html-keyboard-response","149","212912","0.0-1.0-200.0","0","0","89227","","null","","","null","22","","","","","","","","","","","","","","","",""
"","ISI","","html-keyboard-response","150","214919","0.0-1.0-201.0","0","0","89227","","null","","","null","22","NaN","","","","","","","","","","","","","","",""
"","S2","","html-keyboard-response","151","215171","0.0-1.0-202.0","0","0","89227","","null","","","null","22","","NaN","","","","","","","","","","","","","",""
"","response","","html-keyboard-response","152","215486","0.0-1.0-203.0","0","0","89227","","312","","","75","22","","","1","22","training","adjacent","DC","4","3","L.jpg","P.jpg","1","0","0","",""
"","feedback","","html-keyboard-response","153","216490","0.0-1.0-204.0-0.0","0","0","89227","","null","","","null","22","","","","","","","","","","","","","","","",""
"","time_out","","html-keyboard-response","154","218494","0.0-1.0-206.0-0.0","0","0","89227","","null","","","null","22","","","","","","","","","","","","","","","",""
"","ITI","","html-keyboard-response","155","219498","0.0-1.0-207.0","0","0","89227","","null","","","null","22","","","","","","","","","","","","","","","NaN",""
"","S1","","html-keyboard-response","156","219752","0.0-1.0-209.0","0","0","89227","","null","","","null","23","","","","","","","","","","","","","","","",""
"","ISI","","html-keyboard-response","157","221762","0.0-1.0-210.0","0","0","89227","","null","","","null","23","NaN","","","","","","","","","","","","","","",""
"","S2","","html-keyboard-response","158","222015","0.0-1.0-211.0","0","0","89227","","null","","","null","23","","NaN","","","","","","","","","","","","","",""
"","response","","html-keyboard-response","159","222511","0.0-1.0-212.0","0","0","89227","","495","","","75","23","","","1","23","training","adjacent","FG","6","7","R.jpg","Q.jpg","1","1","1","",""
"","feedback","","html-keyboard-response","160","223524","0.0-1.0-213.0-0.0","0","0","89227","","null","","","null","23","","","","","","","","","","","","","","","",""
"","ITI","","html-keyboard-response","161","224526","0.0-1.0-216.0","0","0","89227","","null","","","null","23","","","","","","","","","","","","","","","NaN",""
"","S1","","html-keyboard-response","162","224779","0.0-1.0-218.0","0","0","89227","","null","","","null","24","","","","","","","","","","","","","","","",""
"","ISI","","html-keyboard-response","163","226783","0.0-1.0-219.0","0","0","89227","","null","","","null","24","NaN","","","","","","","","","","","","","","",""
"","S2","","html-keyboard-response","164","227037","0.0-1.0-220.0","0","0","89227","","null","","","null","24","","NaN","","","","","","","","","","","","","",""
"","response","","html-keyboard-response","165","227173","0.0-1.0-221.0","0","0","89227","","133","","","68","24","","","1","24","training","adjacent","BA","2","1","M.jpg","O.jpg","0","0","1","",""
"","feedback","","html-keyboard-response","166","228177","0.0-1.0-222.0-0.0","0","0","89227","","null","","","null","24","","","","","","","","","","","","","","","",""
"","ITI","","html-keyboard-response","167","229180","0.0-1.0-225.0","0","0","89227","","null","","","null","24","","","","","","","","","","","","","","","NaN",""
"","S1","","html-keyboard-response","168","229433","0.0-1.0-227.0","0","0","89227","","null","","","null","25","","","","","","","","","","","","","","","",""
"","ISI","","html-keyboard-response","169","231437","0.0-1.0-228.0","0","0","89227","","null","","","null","25","NaN","","","","","","","","","","","","","","",""
"","S2","","html-keyboard-response","170","231691","0.0-1.0-229.0","0","0","89227","","null","","","null","25","","NaN","","","","","","","","","","","","","",""
"","response","","html-keyboard-response","171","232213","0.0-1.0-230.0","0","0","89227","","520","","","68","25","","","1","25","training","adjacent","EF","5","6","N.jpg","R.jpg","0","1","0","",""
"","feedback","","html-keyboard-response","172","233217","0.0-1.0-231.0-0.0","0","0","89227","","null","","","null","25","","","","","","","","","","","","","","","",""
"","time_out","","html-keyboard-response","173","235221","0.0-1.0-233.0-0.0","0","0","89227","","null","","","null","25","","","","","","","","","","","","","","","",""
"","ITI","","html-keyboard-response","174","236225","0.0-1.0-234.0","0","0","89227","","null","","","null","25","","","","","","","","","","","","","","","NaN",""
"","S1","","html-keyboard-response","175","236478","0.0-1.0-236.0","0","0","89227","","null","","","null","26","","","","","","","","","","","","","","","",""
"","ISI","","html-keyboard-response","176","238480","0.0-1.0-237.0","0","0","89227","","null","","","null","26","NaN","","","","","","","","","","","","","","",""
"","S2","","html-keyboard-response","177","238733","0.0-1.0-238.0","0","0","89227","","null","","","null","26","","NaN","","","","","","","","","","","","","",""
"","response","","html-keyboard-response","178","239304","0.0-1.0-239.0","0","0","89227","","569","","","75","26","","","1","26","training","adjacent","FG","6","7","R.jpg","Q.jpg","1","1","1","",""
"","feedback","","html-keyboard-response","179","240308","0.0-1.0-240.0-0.0","0","0","89227","","null","","","null","26","","","","","","","","","","","","","","","",""
"","ITI","","html-keyboard-response","180","241311","0.0-1.0-243.0","0","0","89227","","null","","","null","26","","","","","","","","","","","","","","","NaN",""
"","S1","","html-keyboard-response","181","241563","0.0-1.0-245.0","0","0","89227","","null","","","null","27","","","","","","","","","","","","","","","",""
"","ISI","","html-keyboard-response","182","243565","0.0-1.0-246.0","0","0","89227","","null","","","null","27","NaN","","","","","","","","","","","","","","",""
"","S2","","html-keyboard-response","183","243818","0.0-1.0-247.0","0","0","89227","","null","","","null","27","","NaN","","","","","","","","","","","","","",""
"","response","","html-keyboard-response","184","244104","0.0-1.0-248.0","0","0","89227","","283","","","68","27","","","1","27","training","adjacent","BA","2","1","M.jpg","O.jpg","0","0","1","",""
"","feedback","","html-keyboard-response","185","245109","0.0-1.0-249.0-0.0","0","0","89227","","null","","","null","27","","","","","","","","","","","","","","","",""
"","ITI","","html-keyboard-response","186","246113","0.0-1.0-252.0","0","0","89227","","null","","","null","27","","","","","","","","","","","","","","","NaN",""
"","S1","","html-keyboard-response","187","246365","0.0-1.0-254.0","0","0","89227","","null","","","null","28","","","","","","","","","","","","","","","",""
"","ISI","","html-keyboard-response","188","248368","0.0-1.0-255.0","0","0","89227","","null","","","null","28","NaN","","","","","","","","","","","","","","",""
"","S2","","html-keyboard-response","189","248621","0.0-1.0-256.0","0","0","89227","","null","","","null","28","","NaN","","","","","","","","","","","","","",""
"","response","","html-keyboard-response","190","249298","0.0-1.0-257.0","0","0","89227","","674","","","68","28","","","1","28","training","adjacent","CD","3","4","P.jpg","L.jpg","0","1","0","",""
"","feedback","","html-keyboard-response","191","250301","0.0-1.0-258.0-0.0","0","0","89227","","null","","","null","28","","","","","","","","","","","","","","","",""
"","time_out","","html-keyboard-response","192","252304","0.0-1.0-260.0-0.0","0","0","89227","","null","","","null","28","","","","","","","","","","","","","","","",""
"","ITI","","html-keyboard-response","193","253308","0.0-1.0-261.0","0","0","89227","","null","","","null","28","","","","","","","","","","","","","","","NaN",""
"","S1","","html-keyboard-response","194","253631","0.0-1.0-263.0","0","0","89227","","null","","","null","29","","","","","","","","","","","","","","","",""
"","ISI","","html-keyboard-response","195","255633","0.0-1.0-264.0","0","0","89227","","null","","","null","29","NaN","","","","","","","","","","","","","","",""
"","S2","","html-keyboard-response","196","255887","0.0-1.0-265.0","0","0","89227","","null","","","null","29","","NaN","","","","","","","","","","","","","",""
"","response","","html-keyboard-response","197","256382","0.0-1.0-266.0","0","0","89227","","491","","","68","29","","","1","29","training","adjacent","EF","5","6","N.jpg","R.jpg","0","1","0","",""
"","feedback","","html-keyboard-response","198","257385","0.0-1.0-267.0-0.0","0","0","89227","","null","","","null","29","","","","","","","","","","","","","","","",""
"","time_out","","html-keyboard-response","199","259388","0.0-1.0-269.0-0.0","0","0","89227","","null","","","null","29","","","","","","","","","","","","","","","",""
"","ITI","","html-keyboard-response","200","260391","0.0-1.0-270.0","0","0","89227","","null","","","null","29","","","","","","","","","","","","","","","NaN",""
"","S1","","html-keyboard-response","201","260656","0.0-1.0-272.0","0","0","89227","","null","","","null","30","","","","","","","","","","","","","","","",""
"","ISI","","html-keyboard-response","202","262658","0.0-1.0-273.0","0","0","89227","","null","","","null","30","NaN","","","","","","","","","","","","","","",""
"","S2","","html-keyboard-response","203","262911","0.0-1.0-274.0","0","0","89227","","null","","","null","30","","NaN","","","","","","","","","","","","","",""
"","response","","html-keyboard-response","204","263243","0.0-1.0-275.0","0","0","89227","","330","","","75","30","","","1","30","training","adjacent","DC","4","3","L.jpg","P.jpg","1","0","0","",""
"","feedback","","html-keyboard-response","205","264247","0.0-1.0-276.0-0.0","0","0","89227","","null","","","null","30","","","","","","","","","","","","","","","",""
"","time_out","","html-keyboard-response","206","266249","0.0-1.0-278.0-0.0","0","0","89227","","null","","","null","30","","","","","","","","","","","","","","","",""
"","ITI","","html-keyboard-response","207","267252","0.0-1.0-279.0","0","0","89227","","null","","","null","30","","","","","","","","","","","","","","","NaN",""
"","S1","","html-keyboard-response","208","267505","0.0-1.0-281.0","0","0","89227","","null","","","null","31","","","","","","","","","","","","","","","",""
"","ISI","","html-keyboard-response","209","269508","0.0-1.0-282.0","0","0","89227","","null","","","null","31","NaN","","","","","","","","","","","","","","",""
"","S2","","html-keyboard-response","210","269761","0.0-1.0-283.0","0","0","89227","","null","","","null","31","","NaN","","","","","","","","","","","","","",""
"","response","","html-keyboard-response","211","269948","0.0-1.0-284.0","0","0","89227","","186","","","68","31","","","1","31","training","adjacent","BC","2","3","M.jpg","P.jpg","0","1","0","",""
"","feedback","","html-keyboard-response","212","270952","0.0-1.0-285.0-0.0","0","0","89227","","null","","","null","31","","","","","","","","","","","","","","","",""
"","time_out","","html-keyboard-response","213","272955","0.0-1.0-287.0-0.0","0","0","89227","","null","","","null","31","","","","","","","","","","","","","","","",""
"","ITI","","html-keyboard-response","214","273958","0.0-1.0-288.0","0","0","89227","","null","","","null","31","","","","","","","","","","","","","","","NaN",""
"","S1","","html-keyboard-response","215","274211","0.0-1.0-290.0","0","0","89227","","null","","","null","32","","","","","","","","","","","","","","","",""
"","ISI","","html-keyboard-response","216","276215","0.0-1.0-291.0","0","0","89227","","null","","","null","32","NaN","","","","","","","","","","","","","","",""
"","S2","","html-keyboard-response","217","276468","0.0-1.0-292.0","0","0","89227","","null","","","null","32","","NaN","","","","","","","","","","","","","",""
"","response","","html-keyboard-response","218","277208","0.0-1.0-293.0","0","0","89227","","739","","","68","32","","","1","32","training","adjacent","AB","1","2","O.jpg","M.jpg","0","1","0","",""
"","feedback","","html-keyboard-response","219","278211","0.0-1.0-294.0-0.0","0","0","89227","","null","","","null","32","","","","","","","","","","","","","","","",""
"","time_out","","html-keyboard-response","220","280214","0.0-1.0-296.0-0.0","0","0","89227","","null","","","null","32","","","","","","","","","","","","","","","",""
"","ITI","","html-keyboard-response","221","281232","0.0-1.0-297.0","0","0","89227","","null","","","null","32","","","","","","","","","","","","","","","NaN",""
"","S1","","html-keyboard-response","222","281484","0.0-1.0-299.0","0","0","89227","","null","","","null","33","","","","","","","","","","","","","","","",""
"","ISI","","html-keyboard-response","223","283488","0.0-1.0-300.0","0","0","89227","","null","","","null","33","NaN","","","","","","","","","","","","","","",""
"","S2","","html-keyboard-response","224","283741","0.0-1.0-301.0","0","0","89227","","null","","","null","33","","NaN","","","","","","","","","","","","","",""
"","response","","html-keyboard-response","225","284038","0.0-1.0-302.0","0","0","89227","","295","","","68","33","","","1","33","training","adjacent","ED","5","4","N.jpg","L.jpg","0","0","1","",""
"","feedback","","html-keyboard-response","226","285041","0.0-1.0-303.0-0.0","0","0","89227","","null","","","null","33","","","","","","","","","","","","","","","",""
"","ITI","","html-keyboard-response","227","286045","0.0-1.0-306.0","0","0","89227","","null","","","null","33","","","","","","","","","","","","","","","NaN",""
"","S1","","html-keyboard-response","228","286298","0.0-1.0-308.0","0","0","89227","","null","","","null","34","","","","","","","","","","","","","","","",""
"","ISI","","html-keyboard-response","229","288300","0.0-1.0-309.0","0","0","89227","","null","","","null","34","NaN","","","","","","","","","","","","","","",""
"","S2","","html-keyboard-response","230","288553","0.0-1.0-310.0","0","0","89227","","null","","","null","34","","NaN","","","","","","","","","","","","","",""
"","response","","html-keyboard-response","231","289025","0.0-1.0-311.0","0","0","89227","","470","","","75","34","","","1","34","training","adjacent","AB","1","2","O.jpg","M.jpg","1","1","1","",""
"","feedback","","html-keyboard-response","232","290028","0.0-1.0-312.0-0.0","0","0","89227","","null","","","null","34","","","","","","","","","","","","","","","",""
"","ITI","","html-keyboard-response","233","291030","0.0-1.0-315.0","0","0","89227","","null","","","null","34","","","","","","","","","","","","","","","NaN",""
"","S1","","html-keyboard-response","234","291284","0.0-1.0-317.0","0","0","89227","","null","","","null","35","","","","","","","","","","","","","","","",""
"","ISI","","html-keyboard-response","235","293287","0.0-1.0-318.0","0","0","89227","","null","","","null","35","NaN","","","","","","","","","","","","","","",""
"","S2","","html-keyboard-response","236","293540","0.0-1.0-319.0","0","0","89227","","null","","","null","35","","NaN","","","","","","","","","","","","","",""
"","response","","html-keyboard-response","237","294241","0.0-1.0-320.0","0","0","89227","","699","","","75","35","","","1","35","training","adjacent","CD","3","4","P.jpg","L.jpg","1","1","1","",""
"","feedback","","html-keyboard-response","238","295244","0.0-1.0-321.0-0.0","0","0","89227","","null","","","null","35","","","","","","","","","","","","","","","",""
"","ITI","","html-keyboard-response","239","296247","0.0-1.0-324.0","0","0","89227","","null","","","null","35","","","","","","","","","","","","","","","NaN",""
"","S1","","html-keyboard-response","240","296500","0.0-1.0-326.0","0","0","89227","","null","","","null","36","","","","","","","","","","","","","","","",""
"","ISI","","html-keyboard-response","241","298502","0.0-1.0-327.0","0","0","89227","","null","","","null","36","NaN","","","","","","","","","","","","","","",""
"","S2","","html-keyboard-response","242","298755","0.0-1.0-328.0","0","0","89227","","null","","","null","36","","NaN","","","","","","","","","","","","","",""
"","response","","html-keyboard-response","243","298995","0.0-1.0-329.0","0","0","89227","","238","","","68","36","","","1","36","training","adjacent","GF","7","6","Q.jpg","R.jpg","0","0","1","",""
"","feedback","","html-keyboard-response","244","299998","0.0-1.0-330.0-0.0","0","0","89227","","null","","","null","36","","","","","","","","","","","","","","","",""
"","ITI","","html-keyboard-response","245","301002","0.0-1.0-333.0","0","0","89227","","null","","","null","36","","","","","","","","","","","","","","","NaN",""
"","S1","","html-keyboard-response","246","301255","0.0-1.0-335.0","0","0","89227","","null","","","null","37","","","","","","","","","","","","","","","",""
"","ISI","","html-keyboard-response","247","303257","0.0-1.0-336.0","0","0","89227","","null","","","null","37","NaN","","","","","","","","","","","","","","",""
"","S2","","html-keyboard-response","248","303510","0.0-1.0-337.0","0","0","89227","","null","","","null","37","","NaN","","","","","","","","","","","","","",""
"","response","","html-keyboard-response","249","304014","0.0-1.0-338.0","0","0","89227","","502","","","75","37","","","1","37","training","adjacent","FE","6","5","R.jpg","N.jpg","1","0","0","",""
"","feedback","","html-keyboard-response","250","305018","0.0-1.0-339.0-0.0","0","0","89227","","null","","","null","37","","","","","","","","","","","","","","","",""
"","time_out","","html-keyboard-response","251","307022","0.0-1.0-341.0-0.0","0","0","89227","","null","","","null","37","","","","","","","","","","","","","","","",""
"","ITI","","html-keyboard-response","252","308025","0.0-1.0-342.0","0","0","89227","","null","","","null","37","","","","","","","","","","","","","","","NaN",""
"","S1","","html-keyboard-response","253","308278","0.0-1.0-344.0","0","0","89227","","null","","","null","38","","","","","","","","","","","","","","","",""
"","ISI","","html-keyboard-response","254","310280","0.0-1.0-345.0","0","0","89227","","null","","","null","38","NaN","","","","","","","","","","","","","","",""
"","S2","","html-keyboard-response","255","310532","0.0-1.0-346.0","0","0","89227","","null","","","null","38","","NaN","","","","","","","","","","","","","",""
"","response","","html-keyboard-response","256","310962","0.0-1.0-347.0","0","0","89227","","429","","","68","38","","","1","38","training","adjacent","GF","7","6","Q.jpg","R.jpg","0","0","1","",""
"","feedback","","html-keyboard-response","257","311964","0.0-1.0-348.0-0.0","0","0","89227","","null","","","null","38","","","","","","","","","","","","","","","",""
"","ITI","","html-keyboard-response","258","312968","0.0-1.0-351.0","0","0","89227","","null","","","null","38","","","","","","","","","","","","","","","NaN",""
"","S1","","html-keyboard-response","259","313220","0.0-1.0-353.0","0","0","89227","","null","","","null","39","","","","","","","","","","","","","","","",""
"","ISI","","html-keyboard-response","260","315224","0.0-1.0-354.0","0","0","89227","","null","","","null","39","NaN","","","","","","","","","","","","","","",""
"","S2","","html-keyboard-response","261","315476","0.0-1.0-355.0","0","0","89227","","null","","","null","39","","NaN","","","","","","","","","","","","","",""
"","response","","html-keyboard-response","262","315919","0.0-1.0-356.0","0","0","89227","","442","","","75","39","","","1","39","training","adjacent","FG","6","7","R.jpg","Q.jpg","1","1","1","",""
"","feedback","","html-keyboard-response","263","316923","0.0-1.0-357.0-0.0","0","0","89227","","null","","","null","39","","","","","","","","","","","","","","","",""
"","ITI","","html-keyboard-response","264","317926","0.0-1.0-360.0","0","0","89227","","null","","","null","39","","","","","","","","","","","","","","","NaN",""
"","S1","","html-keyboard-response","265","318179","0.0-1.0-362.0","0","0","89227","","null","","","null","40","","","","","","","","","","","","","","","",""
"","ISI","","html-keyboard-response","266","320181","0.0-1.0-363.0","0","0","89227","","null","","","null","40","NaN","","","","","","","","","","","","","","",""
"","S2","","html-keyboard-response","267","320434","0.0-1.0-364.0","0","0","89227","","null","","","null","40","","NaN","","","","","","","","","","","","","",""
"","response","","html-keyboard-response","268","320968","0.0-1.0-365.0","0","0","89227","","533","","","75","40","","","1","40","training","adjacent","CB","3","2","P.jpg","M.jpg","1","0","0","",""
"","feedback","","html-keyboard-response","269","321972","0.0-1.0-366.0-0.0","0","0","89227","","null","","","null","40","","","","","","","","","","","","","","","",""
"","time_out","","html-keyboard-response","270","323975","0.0-1.0-368.0-0.0","0","0","89227","","null","","","null","40","","","","","","","","","","","","","","","",""
"","ITI","","html-keyboard-response","271","324978","0.0-1.0-369.0","0","0","89227","","null","","","null","40","","","","","","","","","","","","","","","NaN",""
"","S1","","html-keyboard-response","272","325231","0.0-1.0-371.0","0","0","89227","","null","","","null","41","","","","","","","","","","","","","","","",""
"","ISI","","html-keyboard-response","273","327233","0.0-1.0-372.0","0","0","89227","","null","","","null","41","NaN","","","","","","","","","","","","","","",""
"","S2","","html-keyboard-response","274","327486","0.0-1.0-373.0","0","0","89227","","null","","","null","41","","NaN","","","","","","","","","","","","","",""
"","response","","html-keyboard-response","275","327796","0.0-1.0-374.0","0","0","89227","","308","","","68","41","","","1","41","training","adjacent","ED","5","4","N.jpg","L.jpg","0","0","1","",""
"","feedback","","html-keyboard-response","276","328799","0.0-1.0-375.0-0.0","0","0","89227","","null","","","null","41","","","","","","","","","","","","","","","",""
"","ITI","","html-keyboard-response","277","329802","0.0-1.0-378.0","0","0","89227","","null","","","null","41","","","","","","","","","","","","","","","NaN",""
"","S1","","html-keyboard-response","278","330065","0.0-1.0-380.0","0","0","89227","","null","","","null","42","","","","","","","","","","","","","","","",""
"","ISI","","html-keyboard-response","279","332069","0.0-1.0-381.0","0","0","89227","","null","","","null","42","NaN","","","","","","","","","","","","","","",""
"","S2","","html-keyboard-response","280","332321","0.0-1.0-382.0","0","0","89227","","null","","","null","42","","NaN","","","","","","","","","","","","","",""
"","response","","html-keyboard-response","281","332879","0.0-1.0-383.0","0","0","89227","","556","","","75","42","","","1","42","training","adjacent","BA","2","1","M.jpg","O.jpg","1","0","0","",""
"","feedback","","html-keyboard-response","282","333883","0.0-1.0-384.0-0.0","0","0","89227","","null","","","null","42","","","","","","","","","","","","","","","",""
"","time_out","","html-keyboard-response","283","335885","0.0-1.0-386.0-0.0","0","0","89227","","null","","","null","42","","","","","","","","","","","","","","","",""
"","ITI","","html-keyboard-response","284","336888","0.0-1.0-387.0","0","0","89227","","null","","","null","42","","","","","","","","","","","","","","","NaN",""
"","S1","","html-keyboard-response","285","337141","0.0-1.0-389.0","0","0","89227","","null","","","null","43","","","","","","","","","","","","","","","",""
"","ISI","","html-keyboard-response","286","339144","0.0-1.0-390.0","0","0","89227","","null","","","null","43","NaN","","","","","","","","","","","","","","",""
"","S2","","html-keyboard-response","287","339397","0.0-1.0-391.0","0","0","89227","","null","","","null","43","","NaN","","","","","","","","","","","","","",""
"","response","","html-keyboard-response","288","340256","0.0-1.0-392.0","0","0","89227","","856","","","75","43","","","1","43","training","adjacent","AB","1","2","O.jpg","M.jpg","1","1","1","",""
"","feedback","","html-keyboard-response","289","341259","0.0-1.0-393.0-0.0","0","0","89227","","null","","","null","43","","","","","","","","","","","","","","","",""
"","ITI","","html-keyboard-response","290","342263","0.0-1.0-396.0","0","0","89227","","null","","","null","43","","","","","","","","","","","","","","","NaN",""
"","S1","","html-keyboard-response","291","342516","0.0-1.0-398.0","0","0","89227","","null","","","null","44","","","","","","","","","","","","","","","",""
"","ISI","","html-keyboard-response","292","344519","0.0-1.0-399.0","0","0","89227","","null","","","null","44","NaN","","","","","","","","","","","","","","",""
"","S2","","html-keyboard-response","293","344772","0.0-1.0-400.0","0","0","89227","","null","","","null","44","","NaN","","","","","","","","","","","","","",""
"","response","","html-keyboard-response","294","345029","0.0-1.0-401.0","0","0","89227","","255","","","68","44","","","1","44","training","adjacent","BA","2","1","M.jpg","O.jpg","0","0","1","",""
"","feedback","","html-keyboard-response","295","346032","0.0-1.0-402.0-0.0","0","0","89227","","null","","","null","44","","","","","","","","","","","","","","","",""
"","ITI","","html-keyboard-response","296","347035","0.0-1.0-405.0","0","0","89227","","null","","","null","44","","","","","","","","","","","","","","","NaN",""
"","S1","","html-keyboard-response","297","347288","0.0-1.0-407.0","0","0","89227","","null","","","null","45","","","","","","","","","","","","","","","",""
"","ISI","","html-keyboard-response","298","349292","0.0-1.0-408.0","0","0","89227","","null","","","null","45","NaN","","","","","","","","","","","","","","",""
"","S2","","html-keyboard-response","299","349544","0.0-1.0-409.0","0","0","89227","","null","","","null","45","","NaN","","","","","","","","","","","","","",""
"","response","","html-keyboard-response","300","350263","0.0-1.0-410.0","0","0","89227","","716","","","75","45","","","1","45","training","adjacent","AB","1","2","O.jpg","M.jpg","1","1","1","",""
"","feedback","","html-keyboard-response","301","351266","0.0-1.0-411.0-0.0","0","0","89227","","null","","","null","45","","","","","","","","","","","","","","","",""
"","ITI","","html-keyboard-response","302","352269","0.0-1.0-414.0","0","0","89227","","null","","","null","45","","","","","","","","","","","","","","","NaN",""
"","S1","","html-keyboard-response","303","352521","0.0-1.0-416.0","0","0","89227","","null","","","null","46","","","","","","","","","","","","","","","",""
"","ISI","","html-keyboard-response","304","354524","0.0-1.0-417.0","0","0","89227","","null","","","null","46","NaN","","","","","","","","","","","","","","",""
"","S2","","html-keyboard-response","305","354777","0.0-1.0-418.0","0","0","89227","","null","","","null","46","","NaN","","","","","","","","","","","","","",""
"","response","","html-keyboard-response","306","355052","0.0-1.0-419.0","0","0","89227","","272","","","68","46","","","1","46","training","adjacent","EF","5","6","N.jpg","R.jpg","0","1","0","",""
"","feedback","","html-keyboard-response","307","356055","0.0-1.0-420.0-0.0","0","0","89227","","null","","","null","46","","","","","","","","","","","","","","","",""
"","time_out","","html-keyboard-response","308","358057","0.0-1.0-422.0-0.0","0","0","89227","","null","","","null","46","","","","","","","","","","","","","","","",""
"","ITI","","html-keyboard-response","309","359060","0.0-1.0-423.0","0","0","89227","","null","","","null","46","","","","","","","","","","","","","","","NaN",""
"","S1","","html-keyboard-response","310","359313","0.0-1.0-425.0","0","0","89227","","null","","","null","47","","","","","","","","","","","","","","","",""
"","ISI","","html-keyboard-response","311","361317","0.0-1.0-426.0","0","0","89227","","null","","","null","47","NaN","","","","","","","","","","","","","","",""
"","S2","","html-keyboard-response","312","361570","0.0-1.0-427.0","0","0","89227","","null","","","null","47","","NaN","","","","","","","","","","","","","",""
"","response","","html-keyboard-response","313","362017","0.0-1.0-428.0","0","0","89227","","446","","","68","47","","","1","47","training","adjacent","CD","3","4","P.jpg","L.jpg","0","1","0","",""
"","feedback","","html-keyboard-response","314","363021","0.0-1.0-429.0-0.0","0","0","89227","","null","","","null","47","","","","","","","","","","","","","","","",""
"","time_out","","html-keyboard-response","315","365023","0.0-1.0-431.0-0.0","0","0","89227","","null","","","null","47","","","","","","","","","","","","","","","",""
"","ITI","","html-keyboard-response","316","366026","0.0-1.0-432.0","0","0","89227","","null","","","null","47","","","","","","","","","","","","","","","NaN",""
"","block_over","","html-keyboard-response","317","369792","0.0-1.0-433.0-0.0","0","0","89227","","3763","","","32","47","","","","","","","","","","","","","","","",""
"","S1","","html-keyboard-response","318","370045","0.0-1.0-434.0","0","0","89227","","null","","","null","48","","","","","","","","","","","","","","","",""
"","ISI","","html-keyboard-response","319","372048","0.0-1.0-435.0","0","0","89227","","null","","","null","48","NaN","","","","","","","","","","","","","","",""
"","S2","","html-keyboard-response","320","372302","0.0-1.0-436.0","0","0","89227","","null","","","null","48","","NaN","","","","","","","","","","","","","",""
"","response","","html-keyboard-response","321","372903","0.0-1.0-437.0","0","0","89227","","598","","","68","48","","","2","48","training","adjacent","EF","5","6","N.jpg","R.jpg","0","1","0","",""
"","feedback","","html-keyboard-response","322","373906","0.0-1.0-438.0-0.0","0","0","89227","","null","","","null","48","","","","","","","","","","","","","","","",""
"","time_out","","html-keyboard-response","323","375909","0.0-1.0-440.0-0.0","0","0","89227","","null","","","null","48","","","","","","","","","","","","","","","",""
"","ITI","","html-keyboard-response","324","376911","0.0-1.0-441.0","0","0","89227","","null","","","null","48","","","","","","","","","","","","","","","NaN",""
"","S1","","html-keyboard-response","325","377163","0.0-1.0-443.0","0","0","89227","","null","","","null","49","","","","","","","","","","","","","","","",""
"","ISI","","html-keyboard-response","326","379166","0.0-1.0-444.0","0","0","89227","","null","","","null","49","NaN","","","","","","","","","","","","","","",""
"","S2","","html-keyboard-response","327","379420","0.0-1.0-445.0","0","0","89227","","null","","","null","49","","NaN","","","","","","","","","","","","","",""
"","response","","html-keyboard-response","328","380256","0.0-1.0-446.0","0","0","89227","","834","","","75","49","","","2","49","training","adjacent","CD","3","4","P.jpg","L.jpg","1","1","1","",""
"","feedback","","html-keyboard-response","329","381260","0.0-1.0-447.0-0.0","0","0","89227","","null","","","null","49","","","","","","","","","","","","","","","",""
"","ITI","","html-keyboard-response","330","382262","0.0-1.0-450.0","0","0","89227","","null","","","null","49","","","","","","","","","","","","","","","NaN",""
"","S1","","html-keyboard-response","331","382515","0.0-1.0-452.0","0","0","89227","","null","","","null","50","","","","","","","","","","","","","","","",""
"","ISI","","html-keyboard-response","332","384518","0.0-1.0-453.0","0","0","89227","","null","","","null","50","NaN","","","","","","","","","","","","","","",""
"","S2","","html-keyboard-response","333","384771","0.0-1.0-454.0","0","0","89227","","null","","","null","50","","NaN","","","","","","","","","","","","","",""
"","response","","html-keyboard-response","334","385319","0.0-1.0-455.0","0","0","89227","","546","","","75","50","","","2","50","training","adjacent","FG","6","7","R.jpg","Q.jpg","1","1","1","",""
"","feedback","","html-keyboard-response","335","386322","0.0-1.0-456.0-0.0","0","0","89227","","null","","","null","50","","","","","","","","","","","","","","","",""
"","ITI","","html-keyboard-response","336","387325","0.0-1.0-459.0","0","0","89227","","null","","","null","50","","","","","","","","","","","","","","","NaN",""
"","S1","","html-keyboard-response","337","387579","0.0-1.0-461.0","0","0","89227","","null","","","null","51","","","","","","","","","","","","","","","",""
"","ISI","","html-keyboard-response","338","389581","0.0-1.0-462.0","0","0","89227","","null","","","null","51","NaN","","","","","","","","","","","","","","",""
"","S2","","html-keyboard-response","339","389833","0.0-1.0-463.0","0","0","89227","","null","","","null","51","","NaN","","","","","","","","","","","","","",""
"","response","","html-keyboard-response","340","390199","0.0-1.0-464.0","0","0","89227","","364","","","75","51","","","2","51","training","adjacent","FG","6","7","R.jpg","Q.jpg","1","1","1","",""
"","feedback","","html-keyboard-response","341","391204","0.0-1.0-465.0-0.0","0","0","89227","","null","","","null","51","","","","","","","","","","","","","","","",""
"","ITI","","html-keyboard-response","342","392207","0.0-1.0-468.0","0","0","89227","","null","","","null","51","","","","","","","","","","","","","","","NaN",""
"","S1","","html-keyboard-response","343","392460","0.0-1.0-470.0","0","0","89227","","null","","","null","52","","","","","","","","","","","","","","","",""
"","ISI","","html-keyboard-response","344","394463","0.0-1.0-471.0","0","0","89227","","null","","","null","52","NaN","","","","","","","","","","","","","","",""
"","S2","","html-keyboard-response","345","394715","0.0-1.0-472.0","0","0","89227","","null","","","null","52","","NaN","","","","","","","","","","","","","",""
"","response","","html-keyboard-response","346","395522","0.0-1.0-473.0","0","0","89227","","804","","","75","52","","","2","52","training","adjacent","ED","5","4","N.jpg","L.jpg","1","0","0","",""
"","feedback","","html-keyboard-response","347","396525","0.0-1.0-474.0-0.0","0","0","89227","","null","","","null","52","","","","","","","","","","","","","","","",""
"","time_out","","html-keyboard-response","348","398528","0.0-1.0-476.0-0.0","0","0","89227","","null","","","null","52","","","","","","","","","","","","","","","",""
"","ITI","","html-keyboard-response","349","399531","0.0-1.0-477.0","0","0","89227","","null","","","null","52","","","","","","","","","","","","","","","NaN",""
"","S1","","html-keyboard-response","350","399784","0.0-1.0-479.0","0","0","89227","","null","","","null","53","","","","","","","","","","","","","","","",""
"","ISI","","html-keyboard-response","351","401787","0.0-1.0-480.0","0","0","89227","","null","","","null","53","NaN","","","","","","","","","","","","","","",""
"","S2","","html-keyboard-response","352","402040","0.0-1.0-481.0","0","0","89227","","null","","","null","53","","NaN","","","","","","","","","","","","","",""
"","response","","html-keyboard-response","353","402865","0.0-1.0-482.0","0","0","89227","","823","","","75","53","","","2","53","training","adjacent","BA","2","1","M.jpg","O.jpg","1","0","0","",""
"","feedback","","html-keyboard-response","354","403869","0.0-1.0-483.0-0.0","0","0","89227","","null","","","null","53","","","","","","","","","","","","","","","",""
"","time_out","","html-keyboard-response","355","405872","0.0-1.0-485.0-0.0","0","0","89227","","null","","","null","53","","","","","","","","","","","","","","","",""
"","ITI","","html-keyboard-response","356","406874","0.0-1.0-486.0","0","0","89227","","null","","","null","53","","","","","","","","","","","","","","","NaN",""
"","S1","","html-keyboard-response","357","407126","0.0-1.0-488.0","0","0","89227","","null","","","null","54","","","","","","","","","","","","","","","",""
"","ISI","","html-keyboard-response","358","409130","0.0-1.0-489.0","0","0","89227","","null","","","null","54","NaN","","","","","","","","","","","","","","",""
"","S2","","html-keyboard-response","359","409383","0.0-1.0-490.0","0","0","89227","","null","","","null","54","","NaN","","","","","","","","","","","","","",""
"","response","","html-keyboard-response","360","409727","0.0-1.0-491.0","0","0","89227","","341","","","75","54","","","2","54","training","adjacent","DE","4","5","L.jpg","N.jpg","1","1","1","",""
"","feedback","","html-keyboard-response","361","410731","0.0-1.0-492.0-0.0","0","0","89227","","null","","","null","54","","","","","","","","","","","","","","","",""
"","ITI","","html-keyboard-response","362","411734","0.0-1.0-495.0","0","0","89227","","null","","","null","54","","","","","","","","","","","","","","","NaN",""
"","S1","","html-keyboard-response","363","411988","0.0-1.0-497.0","0","0","89227","","null","","","null","55","","","","","","","","","","","","","","","",""
"","ISI","","html-keyboard-response","364","413990","0.0-1.0-498.0","0","0","89227","","null","","","null","55","NaN","","","","","","","","","","","","","","",""
"","S2","","html-keyboard-response","365","414243","0.0-1.0-499.0","0","0","89227","","null","","","null","55","","NaN","","","","","","","","","","","","","",""
"","response","","html-keyboard-response","366","414367","0.0-1.0-500.0","0","0","89227","","122","","","68","55","","","2","55","training","adjacent","GF","7","6","Q.jpg","R.jpg","0","0","1","",""
"","feedback","","html-keyboard-response","367","415370","0.0-1.0-501.0-0.0","0","0","89227","","null","","","null","55","","","","","","","","","","","","","","","",""
"","ITI","","html-keyboard-response","368","416372","0.0-1.0-504.0","0","0","89227","","null","","","null","55","","","","","","","","","","","","","","","NaN",""
"","S1","","html-keyboard-response","369","416626","0.0-1.0-506.0","0","0","89227","","null","","","null","56","","","","","","","","","","","","","","","",""
"","ISI","","html-keyboard-response","370","418628","0.0-1.0-507.0","0","0","89227","","null","","","null","56","NaN","","","","","","","","","","","","","","",""
"","S2","","html-keyboard-response","371","418881","0.0-1.0-508.0","0","0","89227","","null","","","null","56","","NaN","","","","","","","","","","","","","",""
"","response","","html-keyboard-response","372","419769","0.0-1.0-509.0","0","0","89227","","885","","","75","56","","","2","56","training","adjacent","BC","2","3","M.jpg","P.jpg","1","1","1","",""
"","feedback","","html-keyboard-response","373","420773","0.0-1.0-510.0-0.0","0","0","89227","","null","","","null","56","","","","","","","","","","","","","","","",""
"","ITI","","html-keyboard-response","374","421775","0.0-1.0-513.0","0","0","89227","","null","","","null","56","","","","","","","","","","","","","","","NaN",""
"","S1","","html-keyboard-response","375","422029","0.0-1.0-515.0","0","0","89227","","null","","","null","57","","","","","","","","","","","","","","","",""
"","ISI","","html-keyboard-response","376","424033","0.0-1.0-516.0","0","0","89227","","null","","","null","57","NaN","","","","","","","","","","","","","","",""
"","S2","","html-keyboard-response","377","424286","0.0-1.0-517.0","0","0","89227","","null","","","null","57","","NaN","","","","","","","","","","","","","",""
"","response","","html-keyboard-response","378","424364","0.0-1.0-518.0","0","0","89227","","76","","","68","57","","","2","57","training","adjacent","GF","7","6","Q.jpg","R.jpg","0","0","1","",""
"","feedback","","html-keyboard-response","379","425368","0.0-1.0-519.0-0.0","0","0","89227","","null","","","null","57","","","","","","","","","","","","","","","",""
"","ITI","","html-keyboard-response","380","426372","0.0-1.0-522.0","0","0","89227","","null","","","null","57","","","","","","","","","","","","","","","NaN",""
"","S1","","html-keyboard-response","381","426625","0.0-1.0-524.0","0","0","89227","","null","","","null","58","","","","","","","","","","","","","","","",""
"","ISI","","html-keyboard-response","382","428628","0.0-1.0-525.0","0","0","89227","","null","","","null","58","NaN","","","","","","","","","","","","","","",""
"","S2","","html-keyboard-response","383","428881","0.0-1.0-526.0","0","0","89227","","null","","","null","58","","NaN","","","","","","","","","","","","","",""
"","response","","html-keyboard-response","384","429573","0.0-1.0-527.0","0","0","89227","","690","","","68","58","","","2","58","training","adjacent","EF","5","6","N.jpg","R.jpg","0","1","0","",""
"","feedback","","html-keyboard-response","385","430577","0.0-1.0-528.0-0.0","0","0","89227","","null","","","null","58","","","","","","","","","","","","","","","",""
"","time_out","","html-keyboard-response","386","432579","0.0-1.0-530.0-0.0","0","0","89227","","null","","","null","58","","","","","","","","","","","","","","","",""
"","ITI","","html-keyboard-response","387","433583","0.0-1.0-531.0","0","0","89227","","null","","","null","58","","","","","","","","","","","","","","","NaN",""
"","S1","","html-keyboard-response","388","433836","0.0-1.0-533.0","0","0","89227","","null","","","null","59","","","","","","","","","","","","","","","",""
"","ISI","","html-keyboard-response","389","435838","0.0-1.0-534.0","0","0","89227","","null","","","null","59","NaN","","","","","","","","","","","","","","",""
"","S2","","html-keyboard-response","390","436091","0.0-1.0-535.0","0","0","89227","","null","","","null","59","","NaN","","","","","","","","","","","","","",""
"","response","","html-keyboard-response","391","437063","0.0-1.0-536.0","0","0","89227","","971","","","75","59","","","2","59","training","adjacent","CB","3","2","P.jpg","M.jpg","1","0","0","",""
"","feedback","","html-keyboard-response","392","438066","0.0-1.0-537.0-0.0","0","0","89227","","null","","","null","59","","","","","","","","","","","","","","","",""
"","time_out","","html-keyboard-response","393","440069","0.0-1.0-539.0-0.0","0","0","89227","","null","","","null","59","","","","","","","","","","","","","","","",""
"","ITI","","html-keyboard-response","394","441073","0.0-1.0-540.0","0","0","89227","","null","","","null","59","","","","","","","","","","","","","","","NaN",""
"","S1","","html-keyboard-response","395","441326","0.0-1.0-542.0","0","0","89227","","null","","","null","60","","","","","","","","","","","","","","","",""
"","ISI","","html-keyboard-response","396","443329","0.0-1.0-543.0","0","0","89227","","null","","","null","60","NaN","","","","","","","","","","","","","","",""
"","S2","","html-keyboard-response","397","443582","0.0-1.0-544.0","0","0","89227","","null","","","null","60","","NaN","","","","","","","","","","","","","",""
"","response","","html-keyboard-response","398","444482","0.0-1.0-545.0","0","0","89227","","897","","","75","60","","","2","60","training","adjacent","CB","3","2","P.jpg","M.jpg","1","0","0","",""
"","feedback","","html-keyboard-response","399","445485","0.0-1.0-546.0-0.0","0","0","89227","","null","","","null","60","","","","","","","","","","","","","","","",""
"","time_out","","html-keyboard-response","400","447488","0.0-1.0-548.0-0.0","0","0","89227","","null","","","null","60","","","","","","","","","","","","","","","",""
"","ITI","","html-keyboard-response","401","448490","0.0-1.0-549.0","0","0","89227","","null","","","null","60","","","","","","","","","","","","","","","NaN",""
"","S1","","html-keyboard-response","402","448743","0.0-1.0-551.0","0","0","89227","","null","","","null","61","","","","","","","","","","","","","","","",""
"","ISI","","html-keyboard-response","403","450747","0.0-1.0-552.0","0","0","89227","","null","","","null","61","NaN","","","","","","","","","","","","","","",""
"","S2","","html-keyboard-response","404","451000","0.0-1.0-553.0","0","0","89227","","null","","","null","61","","NaN","","","","","","","","","","","","","",""
"","response","","html-keyboard-response","405","451773","0.0-1.0-554.0","0","0","89227","","770","","","75","61","","","2","61","training","adjacent","FE","6","5","R.jpg","N.jpg","1","0","0","",""
"","feedback","","html-keyboard-response","406","452776","0.0-1.0-555.0-0.0","0","0","89227","","null","","","null","61","","","","","","","","","","","","","","","",""
"","time_out","","html-keyboard-response","407","454779","0.0-1.0-557.0-0.0","0","0","89227","","null","","","null","61","","","","","","","","","","","","","","","",""
"","ITI","","html-keyboard-response","408","455781","0.0-1.0-558.0","0","0","89227","","null","","","null","61","","","","","","","","","","","","","","","NaN",""
"","S1","","html-keyboard-response","409","456035","0.0-1.0-560.0","0","0","89227","","null","","","null","62","","","","","","","","","","","","","","","",""
"","ISI","","html-keyboard-response","410","458039","0.0-1.0-561.0","0","0","89227","","null","","","null","62","NaN","","","","","","","","","","","","","","",""
"","S2","","html-keyboard-response","411","458292","0.0-1.0-562.0","0","0","89227","","null","","","null","62","","NaN","","","","","","","","","","","","","",""
"","response","","html-keyboard-response","412","459323","0.0-1.0-563.0","0","0","89227","","1029","","","68","62","","","2","62","training","adjacent","AB","1","2","O.jpg","M.jpg","0","1","0","",""
"","feedback","","html-keyboard-response","413","460327","0.0-1.0-564.0-0.0","0","0","89227","","null","","","null","62","","","","","","","","","","","","","","","",""
"","time_out","","html-keyboard-response","414","462330","0.0-1.0-566.0-0.0","0","0","89227","","null","","","null","62","","","","","","","","","","","","","","","",""
"","ITI","","html-keyboard-response","415","463332","0.0-1.0-567.0","0","0","89227","","null","","","null","62","","","","","","","","","","","","","","","NaN",""
"","S1","","html-keyboard-response","416","463585","0.0-1.0-569.0","0","0","89227","","null","","","null","63","","","","","","","","","","","","","","","",""
"","ISI","","html-keyboard-response","417","465588","0.0-1.0-570.0","0","0","89227","","null","","","null","63","NaN","","","","","","","","","","","","","","",""
"","S2","","html-keyboard-response","418","465841","0.0-1.0-571.0","0","0","89227","","null","","","null","63","","NaN","","","","","","","","","","","","","",""
"","response","","html-keyboard-response","419","466313","0.0-1.0-572.0","0","0","89227","","469","","","75","63","","","2","63","training","adjacent","DC","4","3","L.jpg","P.jpg","1","0","0","",""
"","feedback","","html-keyboard-response","420","467317","0.0-1.0-573.0-0.0","0","0","89227","","null","","","null","63","","","","","","","","","","","","","","","",""
"","time_out","","html-keyboard-response","421","469319","0.0-1.0-575.0-0.0","0","0","89227","","null","","","null","63","","","","","","","","","","","","","","","",""
"","ITI","","html-keyboard-response","422","470322","0.0-1.0-576.0","0","0","89227","","null","","","null","63","","","","","","","","","","","","","","","NaN",""
"","S1","","html-keyboard-response","423","470574","0.0-1.0-578.0","0","0","89227","","null","","","null","64","","","","","","","","","","","","","","","",""
"","ISI","","html-keyboard-response","424","472577","0.0-1.0-579.0","0","0","89227","","null","","","null","64","NaN","","","","","","","","","","","","","","",""
"","S2","","html-keyboard-response","425","472830","0.0-1.0-580.0","0","0","89227","","null","","","null","64","","NaN","","","","","","","","","","","","","",""
"","response","","html-keyboard-response","426","473429","0.0-1.0-581.0","0","0","89227","","597","","","68","64","","","2","64","training","adjacent","CD","3","4","P.jpg","L.jpg","0","1","0","",""
"","feedback","","html-keyboard-response","427","474432","0.0-1.0-582.0-0.0","0","0","89227","","null","","","null","64","","","","","","","","","","","","","","","",""
"","time_out","","html-keyboard-response","428","476434","0.0-1.0-584.0-0.0","0","0","89227","","null","","","null","64","","","","","","","","","","","","","","","",""
"","ITI","","html-keyboard-response","429","477437","0.0-1.0-585.0","0","0","89227","","null","","","null","64","","","","","","","","","","","","","","","NaN",""
"","S1","","html-keyboard-response","430","477691","0.0-1.0-587.0","0","0","89227","","null","","","null","65","","","","","","","","","","","","","","","",""
"","ISI","","html-keyboard-response","431","479694","0.0-1.0-588.0","0","0","89227","","null","","","null","65","NaN","","","","","","","","","","","","","","",""
"","S2","","html-keyboard-response","432","479948","0.0-1.0-589.0","0","0","89227","","null","","","null","65","","NaN","","","","","","","","","","","","","",""
"","response","","html-keyboard-response","433","481034","0.0-1.0-590.0","0","0","89227","","1085","","","75","65","","","2","65","training","adjacent","DE","4","5","L.jpg","N.jpg","1","1","1","",""
"","feedback","","html-keyboard-response","434","482037","0.0-1.0-591.0-0.0","0","0","89227","","null","","","null","65","","","","","","","","","","","","","","","",""
"","ITI","","html-keyboard-response","435","483040","0.0-1.0-594.0","0","0","89227","","null","","","null","65","","","","","","","","","","","","","","","NaN",""
"","S1","","html-keyboard-response","436","483293","0.0-1.0-596.0","0","0","89227","","null","","","null","66","","","","","","","","","","","","","","","",""
"","ISI","","html-keyboard-response","437","485296","0.0-1.0-597.0","0","0","89227","","null","","","null","66","NaN","","","","","","","","","","","","","","",""
"","S2","","html-keyboard-response","438","485550","0.0-1.0-598.0","0","0","89227","","null","","","null","66","","NaN","","","","","","","","","","","","","",""
"","response","","html-keyboard-response","439","486007","0.0-1.0-599.0","0","0","89227","","456","","","75","66","","","2","66","training","adjacent","FG","6","7","R.jpg","Q.jpg","1","1","1","",""
"","feedback","","html-keyboard-response","440","487011","0.0-1.0-600.0-0.0","0","0","89227","","null","","","null","66","","","","","","","","","","","","","","","",""
"","ITI","","html-keyboard-response","441","488014","0.0-1.0-603.0","0","0","89227","","null","","","null","66","","","","","","","","","","","","","","","NaN",""
"","S1","","html-keyboard-response","442","488267","0.0-1.0-605.0","0","0","89227","","null","","","null","67","","","","","","","","","","","","","","","",""
"","ISI","","html-keyboard-response","443","490270","0.0-1.0-606.0","0","0","89227","","null","","","null","67","NaN","","","","","","","","","","","","","","",""
"","S2","","html-keyboard-response","444","490524","0.0-1.0-607.0","0","0","89227","","null","","","null","67","","NaN","","","","","","","","","","","","","",""
"","response","","html-keyboard-response","445","491044","0.0-1.0-608.0","0","0","89227","","518","","","68","67","","","2","67","training","adjacent","FE","6","5","R.jpg","N.jpg","0","0","1","",""
"","feedback","","html-keyboard-response","446","492048","0.0-1.0-609.0-0.0","0","0","89227","","null","","","null","67","","","","","","","","","","","","","","","",""
"","ITI","","html-keyboard-response","447","493051","0.0-1.0-612.0","0","0","89227","","null","","","null","67","","","","","","","","","","","","","","","NaN",""
"","S1","","html-keyboard-response","448","493305","0.0-1.0-614.0","0","0","89227","","null","","","null","68","","","","","","","","","","","","","","","",""
"","ISI","","html-keyboard-response","449","495307","0.0-1.0-615.0","0","0","89227","","null","","","null","68","NaN","","","","","","","","","","","","","","",""
"","S2","","html-keyboard-response","450","495560","0.0-1.0-616.0","0","0","89227","","null","","","null","68","","NaN","","","","","","","","","","","","","",""
"","response","","html-keyboard-response","451","495877","0.0-1.0-617.0","0","0","89227","","315","","","68","68","","","2","68","training","adjacent","DE","4","5","L.jpg","N.jpg","0","1","0","",""
"","feedback","","html-keyboard-response","452","496880","0.0-1.0-618.0-0.0","0","0","89227","","null","","","null","68","","","","","","","","","","","","","","","",""
"","time_out","","html-keyboard-response","453","498883","0.0-1.0-620.0-0.0","0","0","89227","","null","","","null","68","","","","","","","","","","","","","","","",""
"","ITI","","html-keyboard-response","454","499886","0.0-1.0-621.0","0","0","89227","","null","","","null","68","","","","","","","","","","","","","","","NaN",""
"","S1","","html-keyboard-response","455","500138","0.0-1.0-623.0","0","0","89227","","null","","","null","69","","","","","","","","","","","","","","","",""
"","ISI","","html-keyboard-response","456","502142","0.0-1.0-624.0","0","0","89227","","null","","","null","69","NaN","","","","","","","","","","","","","","",""
"","S2","","html-keyboard-response","457","502395","0.0-1.0-625.0","0","0","89227","","null","","","null","69","","NaN","","","","","","","","","","","","","",""
"","response","","html-keyboard-response","458","502881","0.0-1.0-626.0","0","0","89227","","485","","","68","69","","","2","69","training","adjacent","FE","6","5","R.jpg","N.jpg","0","0","1","",""
"","feedback","","html-keyboard-response","459","503885","0.0-1.0-627.0-0.0","0","0","89227","","null","","","null","69","","","","","","","","","","","","","","","",""
"","ITI","","html-keyboard-response","460","504888","0.0-1.0-630.0","0","0","89227","","null","","","null","69","","","","","","","","","","","","","","","NaN",""
"","S1","","html-keyboard-response","461","505141","0.0-1.0-632.0","0","0","89227","","null","","","null","70","","","","","","","","","","","","","","","",""
"","ISI","","html-keyboard-response","462","507143","0.0-1.0-633.0","0","0","89227","","null","","","null","70","NaN","","","","","","","","","","","","","","",""
"","S2","","html-keyboard-response","463","507396","0.0-1.0-634.0","0","0","89227","","null","","","null","70","","NaN","","","","","","","","","","","","","",""
"","response","","html-keyboard-response","464","508801","0.0-1.0-635.0","0","0","89227","","1404","","","68","70","","","2","70","training","adjacent","BC","2","3","M.jpg","P.jpg","0","1","0","",""
"","feedback","","html-keyboard-response","465","509803","0.0-1.0-636.0-0.0","0","0","89227","","null","","","null","70","","","","","","","","","","","","","","","",""
"","time_out","","html-keyboard-response","466","511806","0.0-1.0-638.0-0.0","0","0","89227","","null","","","null","70","","","","","","","","","","","","","","","",""
"","ITI","","html-keyboard-response","467","512809","0.0-1.0-639.0","0","0","89227","","null","","","null","70","","","","","","","","","","","","","","","NaN",""
"","S1","","html-keyboard-response","468","513063","0.0-1.0-641.0","0","0","89227","","null","","","null","71","","","","","","","","","","","","","","","",""
"","ISI","","html-keyboard-response","469","515065","0.0-1.0-642.0","0","0","89227","","null","","","null","71","NaN","","","","","","","","","","","","","","",""
"","S2","","html-keyboard-response","470","515319","0.0-1.0-643.0","0","0","89227","","null","","","null","71","","NaN","","","","","","","","","","","","","",""
"","response","","html-keyboard-response","471","515398","0.0-1.0-644.0","0","0","89227","","78","","","68","71","","","2","71","training","adjacent","GF","7","6","Q.jpg","R.jpg","0","0","1","",""
"","feedback","","html-keyboard-response","472","516401","0.0-1.0-645.0-0.0","0","0","89227","","null","","","null","71","","","","","","","","","","","","","","","",""
"","ITI","","html-keyboard-response","473","517404","0.0-1.0-648.0","0","0","89227","","null","","","null","71","","","","","","","","","","","","","","","NaN",""
"","S1","","html-keyboard-response","474","517657","0.0-1.0-650.0","0","0","89227","","null","","","null","72","","","","","","","","","","","","","","","",""
"","ISI","","html-keyboard-response","475","519660","0.0-1.0-651.0","0","0","89227","","null","","","null","72","NaN","","","","","","","","","","","","","","",""
"","S2","","html-keyboard-response","476","519913","0.0-1.0-652.0","0","0","89227","","null","","","null","72","","NaN","","","","","","","","","","","","","",""
"","response","","html-keyboard-response","477","520268","0.0-1.0-653.0","0","0","89227","","352","","","68","72","","","2","72","training","adjacent","CD","3","4","P.jpg","L.jpg","0","1","0","",""
"","feedback","","html-keyboard-response","478","521272","0.0-1.0-654.0-0.0","0","0","89227","","null","","","null","72","","","","","","","","","","","","","","","",""
"","time_out","","html-keyboard-response","479","523275","0.0-1.0-656.0-0.0","0","0","89227","","null","","","null","72","","","","","","","","","","","","","","","",""
"","ITI","","html-keyboard-response","480","524277","0.0-1.0-657.0","0","0","89227","","null","","","null","72","","","","","","","","","","","","","","","NaN",""
"","S1","","html-keyboard-response","481","524530","0.0-1.0-659.0","0","0","89227","","null","","","null","73","","","","","","","","","","","","","","","",""
"","ISI","","html-keyboard-response","482","526534","0.0-1.0-660.0","0","0","89227","","null","","","null","73","NaN","","","","","","","","","","","","","","",""
"","S2","","html-keyboard-response","483","526787","0.0-1.0-661.0","0","0","89227","","null","","","null","73","","NaN","","","","","","","","","","","","","",""
"","response","","html-keyboard-response","484","527285","0.0-1.0-662.0","0","0","89227","","495","","","75","73","","","2","73","training","adjacent","DC","4","3","L.jpg","P.jpg","1","0","0","",""
"","feedback","","html-keyboard-response","485","528287","0.0-1.0-663.0-0.0","0","0","89227","","null","","","null","73","","","","","","","","","","","","","","","",""
"","time_out","","html-keyboard-response","486","530291","0.0-1.0-665.0-0.0","0","0","89227","","null","","","null","73","","","","","","","","","","","","","","","",""
"","ITI","","html-keyboard-response","487","531293","0.0-1.0-666.0","0","0","89227","","null","","","null","73","","","","","","","","","","","","","","","NaN",""
"","S1","","html-keyboard-response","488","531547","0.0-1.0-668.0","0","0","89227","","null","","","null","74","","","","","","","","","","","","","","","",""
"","ISI","","html-keyboard-response","489","533550","0.0-1.0-669.0","0","0","89227","","null","","","null","74","NaN","","","","","","","","","","","","","","",""
"","S2","","html-keyboard-response","490","533803","0.0-1.0-670.0","0","0","89227","","null","","","null","74","","NaN","","","","","","","","","","","","","",""
"","response","","html-keyboard-response","491","534431","0.0-1.0-671.0","0","0","89227","","626","","","75","74","","","2","74","training","adjacent","ED","5","4","N.jpg","L.jpg","1","0","0","",""
"","feedback","","html-keyboard-response","492","535434","0.0-1.0-672.0-0.0","0","0","89227","","null","","","null","74","","","","","","","","","","","","","","","",""
"","time_out","","html-keyboard-response","493","537437","0.0-1.0-674.0-0.0","0","0","89227","","null","","","null","74","","","","","","","","","","","","","","","",""
"","ITI","","html-keyboard-response","494","538440","0.0-1.0-675.0","0","0","89227","","null","","","null","74","","","","","","","","","","","","","","","NaN",""
"","S1","","html-keyboard-response","495","538693","0.0-1.0-677.0","0","0","89227","","null","","","null","75","","","","","","","","","","","","","","","",""
"","ISI","","html-keyboard-response","496","540696","0.0-1.0-678.0","0","0","89227","","319","","","87","75","w","","","","","","","","","","","","","","",""
"","S2","","html-keyboard-response","497","540950","0.0-1.0-679.0","0","0","89227","","null","","","null","75","","NaN","","","","","","","","","","","","","",""
"","response","","html-keyboard-response","498","542127","0.0-1.0-680.0","0","0","89227","","1175","","","68","75","","","2","75","training","adjacent","BC","2","3","M.jpg","P.jpg","0","1","0","",""
"","feedback","","html-keyboard-response","499","543130","0.0-1.0-681.0-0.0","0","0","89227","","null","","","null","75","","","","","","","","","","","","","","","",""
"","time_out","","html-keyboard-response","500","545133","0.0-1.0-683.0-0.0","0","0","89227","","null","","","null","75","","","","","","","","","","","","","","","",""
"","ITI","","html-keyboard-response","501","546137","0.0-1.0-684.0","0","0","89227","","null","","","null","75","","","","","","","","","","","","","","","NaN",""
"","S1","","html-keyboard-response","502","546391","0.0-1.0-686.0","0","0","89227","","null","","","null","76","","","","","","","","","","","","","","","",""
"","ISI","","html-keyboard-response","503","548393","0.0-1.0-687.0","0","0","89227","","null","","","null","76","NaN","","","","","","","","","","","","","","",""
"","S2","","html-keyboard-response","504","548646","0.0-1.0-688.0","0","0","89227","","null","","","null","76","","NaN","","","","","","","","","","","","","",""
"","response","","html-keyboard-response","505","549100","0.0-1.0-689.0","0","0","89227","","453","","","75","76","","","2","76","training","adjacent","FG","6","7","R.jpg","Q.jpg","1","1","1","",""
"","feedback","","html-keyboard-response","506","550103","0.0-1.0-690.0-0.0","0","0","89227","","null","","","null","76","","","","","","","","","","","","","","","",""
"","ITI","","html-keyboard-response","507","551107","0.0-1.0-693.0","0","0","89227","","null","","","null","76","","","","","","","","","","","","","","","NaN",""
"","S1","","html-keyboard-response","508","551360","0.0-1.0-695.0","0","0","89227","","null","","","null","77","","","","","","","","","","","","","","","",""
"","ISI","","html-keyboard-response","509","553363","0.0-1.0-696.0","0","0","89227","","null","","","null","77","NaN","","","","","","","","","","","","","","",""
"","S2","","html-keyboard-response","510","553616","0.0-1.0-697.0","0","0","89227","","null","","","null","77","","NaN","","","","","","","","","","","","","",""
"","response","","html-keyboard-response","511","554019","0.0-1.0-698.0","0","0","89227","","401","","","75","77","","","2","77","training","adjacent","CB","3","2","P.jpg","M.jpg","1","0","0","",""
"","feedback","","html-keyboard-response","512","555022","0.0-1.0-699.0-0.0","0","0","89227","","null","","","null","77","","","","","","","","","","","","","","","",""
"","time_out","","html-keyboard-response","513","557026","0.0-1.0-701.0-0.0","0","0","89227","","null","","","null","77","","","","","","","","","","","","","","","",""
"","ITI","","html-keyboard-response","514","558030","0.0-1.0-702.0","0","0","89227","","null","","","null","77","","","","","","","","","","","","","","","NaN",""
"","S1","","html-keyboard-response","515","558283","0.0-1.0-704.0","0","0","89227","","null","","","null","78","","","","","","","","","","","","","","","",""
"","ISI","","html-keyboard-response","516","560286","0.0-1.0-705.0","0","0","89227","","null","","","null","78","NaN","","","","","","","","","","","","","","",""
"","S2","","html-keyboard-response","517","560539","0.0-1.0-706.0","0","0","89227","","null","","","null","78","","NaN","","","","","","","","","","","","","",""
"","response","","html-keyboard-response","518","560697","0.0-1.0-707.0","0","0","89227","","155","","","75","78","","","2","78","training","adjacent","EF","5","6","N.jpg","R.jpg","1","1","1","",""
"","feedback","","html-keyboard-response","519","561700","0.0-1.0-708.0-0.0","0","0","89227","","null","","","null","78","","","","","","","","","","","","","","","",""
"","ITI","","html-keyboard-response","520","562703","0.0-1.0-711.0","0","0","89227","","null","","","null","78","","","","","","","","","","","","","","","NaN",""
"","S1","","html-keyboard-response","521","562956","0.0-1.0-713.0","0","0","89227","","null","","","null","79","","","","","","","","","","","","","","","",""
"","ISI","","html-keyboard-response","522","564958","0.0-1.0-714.0","0","0","89227","","null","","","null","79","NaN","","","","","","","","","","","","","","",""
"","S2","","html-keyboard-response","523","565212","0.0-1.0-715.0","0","0","89227","","null","","","null","79","","NaN","","","","","","","","","","","","","",""
"","response","","html-keyboard-response","524","565883","0.0-1.0-716.0","0","0","89227","","669","","","75","79","","","2","79","training","adjacent","BA","2","1","M.jpg","O.jpg","1","0","0","",""
"","feedback","","html-keyboard-response","525","566887","0.0-1.0-717.0-0.0","0","0","89227","","null","","","null","79","","","","","","","","","","","","","","","",""
"","time_out","","html-keyboard-response","526","568891","0.0-1.0-719.0-0.0","0","0","89227","","null","","","null","79","","","","","","","","","","","","","","","",""
"","ITI","","html-keyboard-response","527","569894","0.0-1.0-720.0","0","0","89227","","null","","","null","79","","","","","","","","","","","","","","","NaN",""
"","S1","","html-keyboard-response","528","570147","0.0-1.0-722.0","0","0","89227","","null","","","null","80","","","","","","","","","","","","","","","",""
"","ISI","","html-keyboard-response","529","572150","0.0-1.0-723.0","0","0","89227","","null","","","null","80","NaN","","","","","","","","","","","","","","",""
"","S2","","html-keyboard-response","530","572403","0.0-1.0-724.0","0","0","89227","","null","","","null","80","","NaN","","","","","","","","","","","","","",""
"","response","","html-keyboard-response","531","573320","0.0-1.0-725.0","0","0","89227","","914","","","75","80","","","2","80","training","adjacent","CD","3","4","P.jpg","L.jpg","1","1","1","",""
"","feedback","","html-keyboard-response","532","574323","0.0-1.0-726.0-0.0","0","0","89227","","null","","","null","80","","","","","","","","","","","","","","","",""
"","ITI","","html-keyboard-response","533","575325","0.0-1.0-729.0","0","0","89227","","null","","","null","80","","","","","","","","","","","","","","","NaN",""
"","S1","","html-keyboard-response","534","575591","0.0-1.0-731.0","0","0","89227","","null","","","null","81","","","","","","","","","","","","","","","",""
"","ISI","","html-keyboard-response","535","577594","0.0-1.0-732.0","0","0","89227","","null","","","null","81","NaN","","","","","","","","","","","","","","",""
"","S2","","html-keyboard-response","536","577848","0.0-1.0-733.0","0","0","89227","","null","","","null","81","","NaN","","","","","","","","","","","","","",""
"","response","","html-keyboard-response","537","578126","0.0-1.0-734.0","0","0","89227","","276","","","68","81","","","2","81","training","adjacent","DE","4","5","L.jpg","N.jpg","0","1","0","",""
"","feedback","","html-keyboard-response","538","579142","0.0-1.0-735.0-0.0","0","0","89227","","null","","","null","81","","","","","","","","","","","","","","","",""
"","time_out","","html-keyboard-response","539","581145","0.0-1.0-737.0-0.0","0","0","89227","","null","","","null","81","","","","","","","","","","","","","","","",""
"","ITI","","html-keyboard-response","540","582148","0.0-1.0-738.0","0","0","89227","","null","","","null","81","","","","","","","","","","","","","","","NaN",""
"","S1","","html-keyboard-response","541","582400","0.0-1.0-740.0","0","0","89227","","null","","","null","82","","","","","","","","","","","","","","","",""
"","ISI","","html-keyboard-response","542","584404","0.0-1.0-741.0","0","0","89227","","null","","","null","82","NaN","","","","","","","","","","","","","","",""
"","S2","","html-keyboard-response","543","584658","0.0-1.0-742.0","0","0","89227","","null","","","null","82","","NaN","","","","","","","","","","","","","",""
"","response","","html-keyboard-response","544","584962","0.0-1.0-743.0","0","0","89227","","302","","","68","82","","","2","82","training","adjacent","ED","5","4","N.jpg","L.jpg","0","0","1","",""
"","feedback","","html-keyboard-response","545","585966","0.0-1.0-744.0-0.0","0","0","89227","","null","","","null","82","","","","","","","","","","","","","","","",""
"","ITI","","html-keyboard-response","546","586969","0.0-1.0-747.0","0","0","89227","","null","","","null","82","","","","","","","","","","","","","","","NaN",""
"","S1","","html-keyboard-response","547","587222","0.0-1.0-749.0","0","0","89227","","null","","","null","83","","","","","","","","","","","","","","","",""
"","ISI","","html-keyboard-response","548","589225","0.0-1.0-750.0","0","0","89227","","null","","","null","83","NaN","","","","","","","","","","","","","","",""
"","S2","","html-keyboard-response","549","589479","0.0-1.0-751.0","0","0","89227","","null","","","null","83","","NaN","","","","","","","","","","","","","",""
"","response","","html-keyboard-response","550","590561","0.0-1.0-752.0","0","0","89227","","1079","","","75","83","","","2","83","training","adjacent","CB","3","2","P.jpg","M.jpg","1","0","0","",""
"","feedback","","html-keyboard-response","551","591564","0.0-1.0-753.0-0.0","0","0","89227","","null","","","null","83","","","","","","","","","","","","","","","",""
"","time_out","","html-keyboard-response","552","593566","0.0-1.0-755.0-0.0","0","0","89227","","null","","","null","83","","","","","","","","","","","","","","","",""
"","ITI","","html-keyboard-response","553","594569","0.0-1.0-756.0","0","0","89227","","null","","","null","83","","","","","","","","","","","","","","","NaN",""
"","S1","","html-keyboard-response","554","594822","0.0-1.0-758.0","0","0","89227","","null","","","null","84","","","","","","","","","","","","","","","",""
"","ISI","","html-keyboard-response","555","596826","0.0-1.0-759.0","0","0","89227","","null","","","null","84","NaN","","","","","","","","","","","","","","",""
"","S2","","html-keyboard-response","556","597078","0.0-1.0-760.0","0","0","89227","","null","","","null","84","","NaN","","","","","","","","","","","","","",""
"","response","","html-keyboard-response","557","598278","0.0-1.0-761.0","0","0","89227","","1196","","","68","84","","","2","84","training","adjacent","AB","1","2","O.jpg","M.jpg","0","1","0","",""
"","feedback","","html-keyboard-response","558","599283","0.0-1.0-762.0-0.0","0","0","89227","","null","","","null","84","","","","","","","","","","","","","","","",""
"","time_out","","html-keyboard-response","559","601293","0.0-1.0-764.0-0.0","0","0","89227","","null","","","null","84","","","","","","","","","","","","","","","",""
"","ITI","","html-keyboard-response","560","602295","0.0-1.0-765.0","0","0","89227","","null","","","null","84","","","","","","","","","","","","","","","NaN",""
"","S1","","html-keyboard-response","561","602548","0.0-1.0-767.0","0","0","89227","","null","","","null","85","","","","","","","","","","","","","","","",""
"","ISI","","html-keyboard-response","562","604551","0.0-1.0-768.0","0","0","89227","","null","","","null","85","NaN","","","","","","","","","","","","","","",""
"","S2","","html-keyboard-response","563","604804","0.0-1.0-769.0","0","0","89227","","null","","","null","85","","NaN","","","","","","","","","","","","","",""
"","response","","html-keyboard-response","564","605111","0.0-1.0-770.0","0","0","89227","","305","","","75","85","","","2","85","training","adjacent","BC","2","3","M.jpg","P.jpg","1","1","1","",""
"","feedback","","html-keyboard-response","565","606115","0.0-1.0-771.0-0.0","0","0","89227","","null","","","null","85","","","","","","","","","","","","","","","",""
"","ITI","","html-keyboard-response","566","607118","0.0-1.0-774.0","0","0","89227","","null","","","null","85","","","","","","","","","","","","","","","NaN",""
"","S1","","html-keyboard-response","567","607371","0.0-1.0-776.0","0","0","89227","","null","","","null","86","","","","","","","","","","","","","","","",""
"","ISI","","html-keyboard-response","568","609374","0.0-1.0-777.0","0","0","89227","","null","","","null","86","NaN","","","","","","","","","","","","","","",""
"","S2","","html-keyboard-response","569","609627","0.0-1.0-778.0","0","0","89227","","null","","","null","86","","NaN","","","","","","","","","","","","","",""
"","response","","html-keyboard-response","570","609930","0.0-1.0-779.0","0","0","89227","","300","","","75","86","","","2","86","training","adjacent","EF","5","6","N.jpg","R.jpg","1","1","1","",""
"","feedback","","html-keyboard-response","571","610940","0.0-1.0-780.0-0.0","0","0","89227","","null","","","null","86","","","","","","","","","","","","","","","",""
"","ITI","","html-keyboard-response","572","611944","0.0-1.0-783.0","0","0","89227","","null","","","null","86","","","","","","","","","","","","","","","NaN",""
"","S1","","html-keyboard-response","573","612204","0.0-1.0-785.0","0","0","89227","","null","","","null","87","","","","","","","","","","","","","","","",""
"","ISI","","html-keyboard-response","574","614206","0.0-1.0-786.0","0","0","89227","","null","","","null","87","NaN","","","","","","","","","","","","","","",""
"","S2","","html-keyboard-response","575","614459","0.0-1.0-787.0","0","0","89227","","null","","","null","87","","NaN","","","","","","","","","","","","","",""
"","response","","html-keyboard-response","576","615583","0.0-1.0-788.0","0","0","89227","","1122","","","75","87","","","2","87","training","adjacent","AB","1","2","O.jpg","M.jpg","1","1","1","",""
"","feedback","","html-keyboard-response","577","616587","0.0-1.0-789.0-0.0","0","0","89227","","null","","","null","87","","","","","","","","","","","","","","","",""
"","ITI","","html-keyboard-response","578","617591","0.0-1.0-792.0","0","0","89227","","null","","","null","87","","","","","","","","","","","","","","","NaN",""
"","S1","","html-keyboard-response","579","617845","0.0-1.0-794.0","0","0","89227","","null","","","null","88","","","","","","","","","","","","","","","",""
"","ISI","","html-keyboard-response","580","619848","0.0-1.0-795.0","0","0","89227","","null","","","null","88","NaN","","","","","","","","","","","","","","",""
"","S2","","html-keyboard-response","581","620103","0.0-1.0-796.0","0","0","89227","","null","","","null","88","","NaN","","","","","","","","","","","","","",""
"","response","","html-keyboard-response","582","620845","0.0-1.0-797.0","0","0","89227","","740","","","75","88","","","2","88","training","adjacent","BA","2","1","M.jpg","O.jpg","1","0","0","",""
"","feedback","","html-keyboard-response","583","621849","0.0-1.0-798.0-0.0","0","0","89227","","null","","","null","88","","","","","","","","","","","","","","","",""
"","time_out","","html-keyboard-response","584","623853","0.0-1.0-800.0-0.0","0","0","89227","","null","","","null","88","","","","","","","","","","","","","","","",""
