"success","ttype","start_time","trial_type","trial_index","time_elapsed","internal_node_id","warning","missed_checkup","PID","view_history","rt","responses","repeat_instructions","key_press","index","keypress_isi","keypress_S2","block","trial_num","phase","group_type","pair_type","S1_stim","S2_stim","S1_img","S2_img","S1_chosen","S1_higher","accuracy","keypress_iti","total_bonus_tally"
"true","full_screen","d03082023hr1433","fullscreen","0","17337","0.0-0.0","0","0","82266","","","","","","","","","","","","","","","","","","","","","",""
"","instructions","","instructions","1","88030","0.0-1.0-0.0-0.0","0","0","82266","[{""page_index"":0,""viewing_time"":10690},{""page_index"":1,""viewing_time"":21518},{""page_index"":2,""viewing_time"":35760},{""page_index"":3,""viewing_time"":2712}]","70682","","","","","","","","","","","","","","","","","","","",""
"","comprehension_check","","survey-multi-choice","2","133957","0.0-1.0-0.0-1.0","0","0","82266","","45909","{""Q0"":""True"",""Q1"":""D"",""Q2"":""Once the second image appears and while the screen 'MAKE A CHOICE' is shown"",""Q3"":""Green mark"",""Q4"":""either D or K""}","0","","","","","","","","","","","","","","","","","",""
"","start_exp","","html-keyboard-response","3","138862","0.0-1.0-1.0","0","0","82266","","4893","","","32","","","","","","","","","","","","","","","","",""
"","S1","","html-keyboard-response","4","139123","0.0-1.0-2.0","0","0","82266","","null","","","null","0","","","","","","","","","","","","","","","",""
"","ISI","","html-keyboard-response","5","139282","0.0-1.0-3.0","0","0","82266","","null","","","null","0","NaN","","","","","","","","","","","","","","",""
"","S2","","html-keyboard-response","6","139541","0.0-1.0-4.0","0","0","82266","","null","","","null","0","","NaN","","","","","","","","","","","","","",""
"","response","","html-keyboard-response","7","141174","0.0-1.0-5.0-0.0","0","0","82266","","1626","","","68","0","","","1","0","training","adjacent","CB","3","2","M.jpg","N.jpg","1","0","0","",""
"","feedback","","html-keyboard-response","8","142185","0.0-1.0-6.0-0.0","0","0","82266","","null","","","null","0","","","","","","","","","","","","","","","",""
"","time_out","","html-keyboard-response","9","144197","0.0-1.0-8.0-0.0","0","0","82266","","null","","","null","0","","","","","","","","","","","","","","","",""
"","ITI","","html-keyboard-response","10","145207","0.0-1.0-9.0","0","0","82266","","null","","","null","0","","","","","","","","","","","","","","","NaN",""
"","S1","","html-keyboard-response","11","145464","0.0-1.0-11.0","0","0","82266","","null","","","null","1","","","","","","","","","","","","","","","",""
"","ISI","","html-keyboard-response","12","145621","0.0-1.0-12.0","0","0","82266","","null","","","null","1","NaN","","","","","","","","","","","","","","",""
"","S2","","html-keyboard-response","13","145883","0.0-1.0-13.0","0","0","82266","","null","","","null","1","","NaN","","","","","","","","","","","","","",""
"","response","","html-keyboard-response","14","147166","0.0-1.0-14.0-0.0","0","0","82266","","1273","","","75","1","","","1","1","training","adjacent","EF","5","6","Q.jpg","L.jpg","0","1","0","",""
"","feedback","","html-keyboard-response","15","148177","0.0-1.0-15.0-0.0","0","0","82266","","null","","","null","1","","","","","","","","","","","","","","","",""
"","time_out","","html-keyboard-response","16","150188","0.0-1.0-17.0-0.0","0","0","82266","","null","","","null","1","","","","","","","","","","","","","","","",""
"","ITI","","html-keyboard-response","17","151198","0.0-1.0-18.0","0","0","82266","","null","","","null","1","","","","","","","","","","","","","","","NaN",""
"","S1","","html-keyboard-response","18","151458","0.0-1.0-20.0","0","0","82266","","null","","","null","2","","","","","","","","","","","","","","","",""
"","ISI","","html-keyboard-response","19","151617","0.0-1.0-21.0","0","0","82266","","null","","","null","2","NaN","","","","","","","","","","","","","","",""
"","S2","","html-keyboard-response","20","151882","0.0-1.0-22.0","0","0","82266","","null","","","null","2","","NaN","","","","","","","","","","","","","",""
"","response","","html-keyboard-response","21","152637","0.0-1.0-23.0-0.0","0","0","82266","","748","","","68","2","","","1","2","training","adjacent","CD","3","4","M.jpg","R.jpg","1","1","1","",""
"","feedback","","html-keyboard-response","22","153650","0.0-1.0-24.0-0.0","0","0","82266","","null","","","null","2","","","","","","","","","","","","","","","",""
"","ITI","","html-keyboard-response","23","154659","0.0-1.0-27.0","0","0","82266","","null","","","null","2","","","","","","","","","","","","","","","NaN",""
"","S1","","html-keyboard-response","24","154918","0.0-1.0-29.0","0","0","82266","","null","","","null","3","","","","","","","","","","","","","","","",""
"","ISI","","html-keyboard-response","25","155075","0.0-1.0-30.0","0","0","82266","","null","","","null","3","NaN","","","","","","","","","","","","","","",""
"","S2","","html-keyboard-response","26","155332","0.0-1.0-31.0","0","0","82266","","null","","","null","3","","NaN","","","","","","","","","","","","","",""
"","response","","html-keyboard-response","27","155982","0.0-1.0-32.0-0.0","0","0","82266","","641","","","68","3","","","1","3","training","adjacent","BA","2","1","N.jpg","P.jpg","1","0","0","",""
"","feedback","","html-keyboard-response","28","156993","0.0-1.0-33.0-0.0","0","0","82266","","null","","","null","3","","","","","","","","","","","","","","","",""
"","time_out","","html-keyboard-response","29","159003","0.0-1.0-35.0-0.0","0","0","82266","","null","","","null","3","","","","","","","","","","","","","","","",""
"","ITI","","html-keyboard-response","30","160007","0.0-1.0-36.0","0","0","82266","","null","","","null","3","","","","","","","","","","","","","","","NaN",""
"","S1","","html-keyboard-response","31","160266","0.0-1.0-38.0","0","0","82266","","null","","","null","4","","","","","","","","","","","","","","","",""
"","ISI","","html-keyboard-response","32","160426","0.0-1.0-39.0","0","0","82266","","null","","","null","4","NaN","","","","","","","","","","","","","","",""
"","S2","","html-keyboard-response","33","160686","0.0-1.0-40.0","0","0","82266","","null","","","null","4","","NaN","","","","","","","","","","","","","",""
"","response","","html-keyboard-response","34","161268","0.0-1.0-41.0-0.0","0","0","82266","","575","","","75","4","","","1","4","training","adjacent","DC","4","3","R.jpg","M.jpg","0","0","1","",""
"","feedback","","html-keyboard-response","35","162278","0.0-1.0-42.0-0.0","0","0","82266","","null","","","null","4","","","","","","","","","","","","","","","",""
"","ITI","","html-keyboard-response","36","163297","0.0-1.0-45.0","0","0","82266","","null","","","null","4","","","","","","","","","","","","","","","NaN",""
"","S1","","html-keyboard-response","37","163557","0.0-1.0-47.0","0","0","82266","","null","","","null","5","","","","","","","","","","","","","","","",""
"","ISI","","html-keyboard-response","38","163716","0.0-1.0-48.0","0","0","82266","","null","","","null","5","NaN","","","","","","","","","","","","","","",""
"","S2","","html-keyboard-response","39","163972","0.0-1.0-49.0","0","0","82266","","null","","","null","5","","NaN","","","","","","","","","","","","","",""
"","response","","html-keyboard-response","40","165060","0.0-1.0-50.0-0.0","0","0","82266","","1081","","","75","5","","","1","5","training","adjacent","FG","6","7","L.jpg","O.jpg","0","1","0","",""
"","feedback","","html-keyboard-response","41","166071","0.0-1.0-51.0-0.0","0","0","82266","","null","","","null","5","","","","","","","","","","","","","","","",""
"","time_out","","html-keyboard-response","42","168080","0.0-1.0-53.0-0.0","0","0","82266","","null","","","null","5","","","","","","","","","","","","","","","",""
"","ITI","","html-keyboard-response","43","169090","0.0-1.0-54.0","0","0","82266","","null","","","null","5","","","","","","","","","","","","","","","NaN",""
"","S1","","html-keyboard-response","44","169349","0.0-1.0-56.0","0","0","82266","","null","","","null","6","","","","","","","","","","","","","","","",""
"","ISI","","html-keyboard-response","45","169509","0.0-1.0-57.0","0","0","82266","","null","","","null","6","NaN","","","","","","","","","","","","","","",""
"","S2","","html-keyboard-response","46","169767","0.0-1.0-58.0","0","0","82266","","null","","","null","6","","NaN","","","","","","","","","","","","","",""
"","response","","html-keyboard-response","47","170322","0.0-1.0-59.0-0.0","0","0","82266","","544","","","68","6","","","1","6","training","adjacent","FE","6","5","L.jpg","Q.jpg","1","0","0","",""
"","feedback","","html-keyboard-response","48","171333","0.0-1.0-60.0-0.0","0","0","82266","","null","","","null","6","","","","","","","","","","","","","","","",""
"","time_out","","html-keyboard-response","49","173344","0.0-1.0-62.0-0.0","0","0","82266","","null","","","null","6","","","","","","","","","","","","","","","",""
"","ITI","","html-keyboard-response","50","174352","0.0-1.0-63.0","0","0","82266","","null","","","null","6","","","","","","","","","","","","","","","NaN",""
"","S1","","html-keyboard-response","51","174610","0.0-1.0-65.0","0","0","82266","","null","","","null","7","","","","","","","","","","","","","","","",""
"","ISI","","html-keyboard-response","52","174770","0.0-1.0-66.0","0","0","82266","","null","","","null","7","NaN","","","","","","","","","","","","","","",""
"","S2","","html-keyboard-response","53","175029","0.0-1.0-67.0","0","0","82266","","null","","","null","7","","NaN","","","","","","","","","","","","","",""
"","response","","html-keyboard-response","54","175982","0.0-1.0-68.0-0.0","0","0","82266","","945","","","75","7","","","1","7","training","adjacent","EF","5","6","Q.jpg","L.jpg","0","1","0","",""
"","feedback","","html-keyboard-response","55","176992","0.0-1.0-69.0-0.0","0","0","82266","","null","","","null","7","","","","","","","","","","","","","","","",""
"","time_out","","html-keyboard-response","56","179000","0.0-1.0-71.0-0.0","0","0","82266","","null","","","null","7","","","","","","","","","","","","","","","",""
"","ITI","","html-keyboard-response","57","180010","0.0-1.0-72.0","0","0","82266","","null","","","null","7","","","","","","","","","","","","","","","NaN",""
"","S1","","html-keyboard-response","58","180269","0.0-1.0-74.0","0","0","82266","","null","","","null","8","","","","","","","","","","","","","","","",""
"","ISI","","html-keyboard-response","59","180428","0.0-1.0-75.0","0","0","82266","","null","","","null","8","NaN","","","","","","","","","","","","","","",""
"","S2","","html-keyboard-response","60","180688","0.0-1.0-76.0","0","0","82266","","null","","","null","8","","NaN","","","","","","","","","","","","","",""
"","response","","html-keyboard-response","61","181411","0.0-1.0-77.0-0.0","0","0","82266","","715","","","68","8","","","1","8","training","adjacent","ED","5","4","Q.jpg","R.jpg","1","0","0","",""
"","feedback","","html-keyboard-response","62","182420","0.0-1.0-78.0-0.0","0","0","82266","","null","","","null","8","","","","","","","","","","","","","","","",""
"","time_out","","html-keyboard-response","63","184430","0.0-1.0-80.0-0.0","0","0","82266","","null","","","null","8","","","","","","","","","","","","","","","",""
"","ITI","","html-keyboard-response","64","185440","0.0-1.0-81.0","0","0","82266","","null","","","null","8","","","","","","","","","","","","","","","NaN",""
"","S1","","html-keyboard-response","65","185698","0.0-1.0-83.0","0","0","82266","","null","","","null","9","","","","","","","","","","","","","","","",""
"","ISI","","html-keyboard-response","66","185857","0.0-1.0-84.0","0","0","82266","","null","","","null","9","NaN","","","","","","","","","","","","","","",""
"","S2","","html-keyboard-response","67","186123","0.0-1.0-85.0","0","0","82266","","null","","","null","9","","NaN","","","","","","","","","","","","","",""
"","response","","html-keyboard-response","68","186597","0.0-1.0-86.0-0.0","0","0","82266","","467","","","68","9","","","1","9","training","adjacent","BA","2","1","N.jpg","P.jpg","1","0","0","",""
"","feedback","","html-keyboard-response","69","187608","0.0-1.0-87.0-0.0","0","0","82266","","null","","","null","9","","","","","","","","","","","","","","","",""
"","time_out","","html-keyboard-response","70","189617","0.0-1.0-89.0-0.0","0","0","82266","","null","","","null","9","","","","","","","","","","","","","","","",""
"","ITI","","html-keyboard-response","71","190627","0.0-1.0-90.0","0","0","82266","","null","","","null","9","","","","","","","","","","","","","","","NaN",""
"","S1","","html-keyboard-response","72","190886","0.0-1.0-92.0","0","0","82266","","null","","","null","10","","","","","","","","","","","","","","","",""
"","ISI","","html-keyboard-response","73","191044","0.0-1.0-93.0","0","0","82266","","null","","","null","10","NaN","","","","","","","","","","","","","","",""
"","S2","","html-keyboard-response","74","191306","0.0-1.0-94.0","0","0","82266","","null","","","null","10","","NaN","","","","","","","","","","","","","",""
"","response","","html-keyboard-response","75","191683","0.0-1.0-95.0-0.0","0","0","82266","","370","","","68","10","","","1","10","training","adjacent","AB","1","2","P.jpg","N.jpg","1","1","1","",""
"","feedback","","html-keyboard-response","76","192693","0.0-1.0-96.0-0.0","0","0","82266","","null","","","null","10","","","","","","","","","","","","","","","",""
"","ITI","","html-keyboard-response","77","193701","0.0-1.0-99.0","0","0","82266","","null","","","null","10","","","","","","","","","","","","","","","NaN",""
"","S1","","html-keyboard-response","78","193960","0.0-1.0-101.0","0","0","82266","","null","","","null","11","","","","","","","","","","","","","","","",""
"","ISI","","html-keyboard-response","79","194119","0.0-1.0-102.0","0","0","82266","","null","","","null","11","NaN","","","","","","","","","","","","","","",""
"","S2","","html-keyboard-response","80","194379","0.0-1.0-103.0","0","0","82266","","null","","","null","11","","NaN","","","","","","","","","","","","","",""
"","response","","html-keyboard-response","81","194949","0.0-1.0-104.0-0.0","0","0","82266","","562","","","75","11","","","1","11","training","adjacent","GF","7","6","O.jpg","L.jpg","0","0","1","",""
"","feedback","","html-keyboard-response","82","195960","0.0-1.0-105.0-0.0","0","0","82266","","null","","","null","11","","","","","","","","","","","","","","","",""
"","ITI","","html-keyboard-response","83","196975","0.0-1.0-108.0","0","0","82266","","null","","","null","11","","","","","","","","","","","","","","","NaN",""
"","S1","","html-keyboard-response","84","197233","0.0-1.0-110.0","0","0","82266","","null","","","null","12","","","","","","","","","","","","","","","",""
"","ISI","","html-keyboard-response","85","197392","0.0-1.0-111.0","0","0","82266","","null","","","null","12","NaN","","","","","","","","","","","","","","",""
"","S2","","html-keyboard-response","86","197652","0.0-1.0-112.0","0","0","82266","","null","","","null","12","","NaN","","","","","","","","","","","","","",""
"","response","","html-keyboard-response","87","198553","0.0-1.0-113.0-0.0","0","0","82266","","893","","","68","12","","","1","12","training","adjacent","GF","7","6","O.jpg","L.jpg","1","0","0","",""
"","feedback","","html-keyboard-response","88","199563","0.0-1.0-114.0-0.0","0","0","82266","","null","","","null","12","","","","","","","","","","","","","","","",""
"","time_out","","html-keyboard-response","89","201572","0.0-1.0-116.0-0.0","0","0","82266","","null","","","null","12","","","","","","","","","","","","","","","",""
"","ITI","","html-keyboard-response","90","202581","0.0-1.0-117.0","0","0","82266","","null","","","null","12","","","","","","","","","","","","","","","NaN",""
"","S1","","html-keyboard-response","91","202839","0.0-1.0-119.0","0","0","82266","","null","","","null","13","","","","","","","","","","","","","","","",""
"","ISI","","html-keyboard-response","92","202998","0.0-1.0-120.0","0","0","82266","","null","","","null","13","NaN","","","","","","","","","","","","","","",""
"","S2","","html-keyboard-response","93","203258","0.0-1.0-121.0","0","0","82266","","null","","","null","13","","NaN","","","","","","","","","","","","","",""
"","response","","html-keyboard-response","94","203776","0.0-1.0-122.0-0.0","0","0","82266","","510","","","68","13","","","1","13","training","adjacent","BC","2","3","N.jpg","M.jpg","1","1","1","",""
"","feedback","","html-keyboard-response","95","204787","0.0-1.0-123.0-0.0","0","0","82266","","null","","","null","13","","","","","","","","","","","","","","","",""
"","ITI","","html-keyboard-response","96","205797","0.0-1.0-126.0","0","0","82266","","null","","","null","13","","","","","","","","","","","","","","","NaN",""
"","S1","","html-keyboard-response","97","206056","0.0-1.0-128.0","0","0","82266","","null","","","null","14","","","","","","","","","","","","","","","",""
"","ISI","","html-keyboard-response","98","206215","0.0-1.0-129.0","0","0","82266","","null","","","null","14","NaN","","","","","","","","","","","","","","",""
"","S2","","html-keyboard-response","99","206474","0.0-1.0-130.0","0","0","82266","","null","","","null","14","","NaN","","","","","","","","","","","","","",""
"","response","","html-keyboard-response","100","206880","0.0-1.0-131.0-0.0","0","0","82266","","398","","","75","14","","","1","14","training","adjacent","AB","1","2","P.jpg","N.jpg","0","1","0","",""
"","feedback","","html-keyboard-response","101","207890","0.0-1.0-132.0-0.0","0","0","82266","","null","","","null","14","","","","","","","","","","","","","","","",""
"","time_out","","html-keyboard-response","102","209901","0.0-1.0-134.0-0.0","0","0","82266","","null","","","null","14","","","","","","","","","","","","","","","",""
"","ITI","","html-keyboard-response","103","210925","0.0-1.0-135.0","0","0","82266","","null","","","null","14","","","","","","","","","","","","","","","NaN",""
"","S1","","html-keyboard-response","104","211183","0.0-1.0-137.0","0","0","82266","","null","","","null","15","","","","","","","","","","","","","","","",""
"","ISI","","html-keyboard-response","105","211343","0.0-1.0-138.0","0","0","82266","","null","","","null","15","NaN","","","","","","","","","","","","","","",""
"","S2","","html-keyboard-response","106","211603","0.0-1.0-139.0","0","0","82266","","null","","","null","15","","NaN","","","","","","","","","","","","","",""
"","response","","html-keyboard-response","107","212328","0.0-1.0-140.0-0.0","0","0","82266","","717","","","68","15","","","1","15","training","adjacent","EF","5","6","Q.jpg","L.jpg","1","1","1","",""
"","feedback","","html-keyboard-response","108","213341","0.0-1.0-141.0-0.0","0","0","82266","","null","","","null","15","","","","","","","","","","","","","","","",""
"","ITI","","html-keyboard-response","109","214360","0.0-1.0-144.0","0","0","82266","","null","","","null","15","","","","","","","","","","","","","","","NaN",""
"","S1","","html-keyboard-response","110","214619","0.0-1.0-146.0","0","0","82266","","null","","","null","16","","","","","","","","","","","","","","","",""
"","ISI","","html-keyboard-response","111","214778","0.0-1.0-147.0","0","0","82266","","null","","","null","16","NaN","","","","","","","","","","","","","","",""
"","S2","","html-keyboard-response","112","215038","0.0-1.0-148.0","0","0","82266","","null","","","null","16","","NaN","","","","","","","","","","","","","",""
"","response","","html-keyboard-response","113","215575","0.0-1.0-149.0-0.0","0","0","82266","","529","","","75","16","","","1","16","training","adjacent","CD","3","4","M.jpg","R.jpg","0","1","0","",""
"","feedback","","html-keyboard-response","114","216585","0.0-1.0-150.0-0.0","0","0","82266","","null","","","null","16","","","","","","","","","","","","","","","",""
"","time_out","","html-keyboard-response","115","218597","0.0-1.0-152.0-0.0","0","0","82266","","null","","","null","16","","","","","","","","","","","","","","","",""
"","ITI","","html-keyboard-response","116","219606","0.0-1.0-153.0","0","0","82266","","null","","","null","16","","","","","","","","","","","","","","","NaN",""
"","S1","","html-keyboard-response","117","219865","0.0-1.0-155.0","0","0","82266","","null","","","null","17","","","","","","","","","","","","","","","",""
"","ISI","","html-keyboard-response","118","220017","0.0-1.0-156.0","0","0","82266","","null","","","null","17","NaN","","","","","","","","","","","","","","",""
"","S2","","html-keyboard-response","119","220277","0.0-1.0-157.0","0","0","82266","","null","","","null","17","","NaN","","","","","","","","","","","","","",""
"","response","","html-keyboard-response","120","220653","0.0-1.0-158.0-0.0","0","0","82266","","370","","","75","17","","","1","17","training","adjacent","DC","4","3","R.jpg","M.jpg","0","0","1","",""
"","feedback","","html-keyboard-response","121","221660","0.0-1.0-159.0-0.0","0","0","82266","","null","","","null","17","","","","","","","","","","","","","","","",""
"","ITI","","html-keyboard-response","122","222670","0.0-1.0-162.0","0","0","82266","","null","","","null","17","","","","","","","","","","","","","","","NaN",""
"","S1","","html-keyboard-response","123","222928","0.0-1.0-164.0","0","0","82266","","null","","","null","18","","","","","","","","","","","","","","","",""
"","ISI","","html-keyboard-response","124","223090","0.0-1.0-165.0","0","0","82266","","null","","","null","18","NaN","","","","","","","","","","","","","","",""
"","S2","","html-keyboard-response","125","223350","0.0-1.0-166.0","0","0","82266","","null","","","null","18","","NaN","","","","","","","","","","","","","",""
"","response","","html-keyboard-response","126","225110","0.0-1.0-167.0-0.0","0","0","82266","","null","","","null","18","","","1","18","training","adjacent","EF","5","6","Q.jpg","L.jpg","NaN","1","0","",""
"","too_slow_prompt","","html-keyboard-response","127","226120","0.0-1.0-169.0-0.0","1","0","82266","","null","","","null","","","","","","","","","","","","","","","","",""
"","time_out","","html-keyboard-response","128","228129","0.0-1.0-170.0-0.0","0","0","82266","","null","","","null","18","","","","","","","","","","","","","","","",""
"","ITI","","html-keyboard-response","129","229139","0.0-1.0-171.0","0","0","82266","","null","","","null","18","","","","","","","","","","","","","","","NaN",""
"","S1","","html-keyboard-response","130","229398","0.0-1.0-173.0","0","0","82266","","null","","","null","19","","","","","","","","","","","","","","","",""
"","ISI","","html-keyboard-response","131","229557","0.0-1.0-174.0","0","0","82266","","null","","","null","19","NaN","","","","","","","","","","","","","","",""
"","S2","","html-keyboard-response","132","229816","0.0-1.0-175.0","0","0","82266","","null","","","null","19","","NaN","","","","","","","","","","","","","",""
"","response","","html-keyboard-response","133","229993","0.0-1.0-176.0-0.0","0","0","82266","","169","","","68","19","","","1","19","training","adjacent","DC","4","3","R.jpg","M.jpg","1","0","0","",""
"","feedback","","html-keyboard-response","134","231003","0.0-1.0-177.0-0.0","0","0","82266","","null","","","null","19","","","","","","","","","","","","","","","",""
"","time_out","","html-keyboard-response","135","233013","0.0-1.0-179.0-0.0","0","0","82266","","null","","","null","19","","","","","","","","","","","","","","","",""
"","ITI","","html-keyboard-response","136","234024","0.0-1.0-180.0","0","0","82266","","null","","","null","19","","","","","","","","","","","","","","","NaN",""
"","S1","","html-keyboard-response","137","234283","0.0-1.0-182.0","0","0","82266","","null","","","null","20","","","","","","","","","","","","","","","",""
"","ISI","","html-keyboard-response","138","234441","0.0-1.0-183.0","0","0","82266","","null","","","null","20","NaN","","","","","","","","","","","","","","",""
"","S2","","html-keyboard-response","139","234699","0.0-1.0-184.0","0","0","82266","","null","","","null","20","","NaN","","","","","","","","","","","","","",""
"","response","","html-keyboard-response","140","235156","0.0-1.0-185.0-0.0","0","0","82266","","449","","","75","20","","","1","20","training","adjacent","FE","6","5","L.jpg","Q.jpg","0","0","1","",""
"","feedback","","html-keyboard-response","141","236166","0.0-1.0-186.0-0.0","0","0","82266","","null","","","null","20","","","","","","","","","","","","","","","",""
"","ITI","","html-keyboard-response","142","237176","0.0-1.0-189.0","0","0","82266","","null","","","null","20","","","","","","","","","","","","","","","NaN",""
"","S1","","html-keyboard-response","143","237434","0.0-1.0-191.0","0","0","82266","","null","","","null","21","","","","","","","","","","","","","","","",""
"","ISI","","html-keyboard-response","144","237594","0.0-1.0-192.0","0","0","82266","","null","","","null","21","NaN","","","","","","","","","","","","","","",""
"","S2","","html-keyboard-response","145","237855","0.0-1.0-193.0","0","0","82266","","null","","","null","21","","NaN","","","","","","","","","","","","","",""
"","response","","html-keyboard-response","146","238368","0.0-1.0-194.0-0.0","0","0","82266","","506","","","75","21","","","1","21","training","adjacent","FE","6","5","L.jpg","Q.jpg","0","0","1","",""
"","feedback","","html-keyboard-response","147","239378","0.0-1.0-195.0-0.0","0","0","82266","","null","","","null","21","","","","","","","","","","","","","","","",""
"","ITI","","html-keyboard-response","148","240386","0.0-1.0-198.0","0","0","82266","","null","","","null","21","","","","","","","","","","","","","","","NaN",""
"","S1","","html-keyboard-response","149","240648","0.0-1.0-200.0","0","0","82266","","null","","","null","22","","","","","","","","","","","","","","","",""
"","ISI","","html-keyboard-response","150","240806","0.0-1.0-201.0","0","0","82266","","null","","","null","22","NaN","","","","","","","","","","","","","","",""
"","S2","","html-keyboard-response","151","241065","0.0-1.0-202.0","0","0","82266","","null","","","null","22","","NaN","","","","","","","","","","","","","",""
"","response","","html-keyboard-response","152","241526","0.0-1.0-203.0-0.0","0","0","82266","","452","","","68","22","","","1","22","training","adjacent","ED","5","4","Q.jpg","R.jpg","1","0","0","",""
"","feedback","","html-keyboard-response","153","242536","0.0-1.0-204.0-0.0","0","0","82266","","null","","","null","22","","","","","","","","","","","","","","","",""
"","time_out","","html-keyboard-response","154","244548","0.0-1.0-206.0-0.0","0","0","82266","","null","","","null","22","","","","","","","","","","","","","","","",""
"","ITI","","html-keyboard-response","155","245557","0.0-1.0-207.0","0","0","82266","","null","","","null","22","","","","","","","","","","","","","","","NaN",""
"","S1","","html-keyboard-response","156","245816","0.0-1.0-209.0","0","0","82266","","null","","","null","23","","","","","","","","","","","","","","","",""
"","ISI","","html-keyboard-response","157","245973","0.0-1.0-210.0","0","0","82266","","null","","","null","23","NaN","","","","","","","","","","","","","","",""
"","S2","","html-keyboard-response","158","246234","0.0-1.0-211.0","0","0","82266","","null","","","null","23","","NaN","","","","","","","","","","","","","",""
"","response","","html-keyboard-response","159","246584","0.0-1.0-212.0-0.0","0","0","82266","","341","","","75","23","","","1","23","training","adjacent","BC","2","3","N.jpg","M.jpg","0","1","0","",""
"","feedback","","html-keyboard-response","160","247594","0.0-1.0-213.0-0.0","0","0","82266","","null","","","null","23","","","","","","","","","","","","","","","",""
"","time_out","","html-keyboard-response","161","249602","0.0-1.0-215.0-0.0","0","0","82266","","null","","","null","23","","","","","","","","","","","","","","","",""
"","ITI","","html-keyboard-response","162","250611","0.0-1.0-216.0","0","0","82266","","null","","","null","23","","","","","","","","","","","","","","","NaN",""
"","S1","","html-keyboard-response","163","250872","0.0-1.0-218.0","0","0","82266","","null","","","null","24","","","","","","","","","","","","","","","",""
"","ISI","","html-keyboard-response","164","251032","0.0-1.0-219.0","0","0","82266","","null","","","null","24","NaN","","","","","","","","","","","","","","",""
"","S2","","html-keyboard-response","165","251291","0.0-1.0-220.0","0","0","82266","","null","","","null","24","","NaN","","","","","","","","","","","","","",""
"","response","","html-keyboard-response","166","251426","0.0-1.0-221.0-0.0","0","0","82266","","127","","","75","24","","","1","24","training","adjacent","AB","1","2","P.jpg","N.jpg","0","1","0","",""
"","feedback","","html-keyboard-response","167","252436","0.0-1.0-222.0-0.0","0","0","82266","","null","","","null","24","","","","","","","","","","","","","","","",""
"","time_out","","html-keyboard-response","168","254445","0.0-1.0-224.0-0.0","0","0","82266","","null","","","null","24","","","","","","","","","","","","","","","",""
"","ITI","","html-keyboard-response","169","255454","0.0-1.0-225.0","0","0","82266","","null","","","null","24","","","","","","","","","","","","","","","NaN",""
"","S1","","html-keyboard-response","170","255713","0.0-1.0-227.0","0","0","82266","","null","","","null","25","","","","","","","","","","","","","","","",""
"","ISI","","html-keyboard-response","171","255871","0.0-1.0-228.0","0","0","82266","","null","","","null","25","NaN","","","","","","","","","","","","","","",""
"","S2","","html-keyboard-response","172","256133","0.0-1.0-229.0","0","0","82266","","null","","","null","25","","NaN","","","","","","","","","","","","","",""
"","response","","html-keyboard-response","173","256647","0.0-1.0-230.0-0.0","0","0","82266","","505","","","68","25","","","1","25","training","adjacent","BA","2","1","N.jpg","P.jpg","1","0","0","",""
"","feedback","","html-keyboard-response","174","257658","0.0-1.0-231.0-0.0","0","0","82266","","null","","","null","25","","","","","","","","","","","","","","","",""
"","time_out","","html-keyboard-response","175","259668","0.0-1.0-233.0-0.0","0","0","82266","","null","","","null","25","","","","","","","","","","","","","","","",""
"","ITI","","html-keyboard-response","176","260676","0.0-1.0-234.0","0","0","82266","","null","","","null","25","","","","","","","","","","","","","","","NaN",""
"","S1","","html-keyboard-response","177","260934","0.0-1.0-236.0","0","0","82266","","null","","","null","26","","","","","","","","","","","","","","","",""
"","ISI","","html-keyboard-response","178","261093","0.0-1.0-237.0","0","0","82266","","null","","","null","26","NaN","","","","","","","","","","","","","","",""
"","S2","","html-keyboard-response","179","261353","0.0-1.0-238.0","0","0","82266","","null","","","null","26","","NaN","","","","","","","","","","","","","",""
"","response","","html-keyboard-response","180","262233","0.0-1.0-239.0-0.0","0","0","82266","","872","","","68","26","","","1","26","training","adjacent","CD","3","4","M.jpg","R.jpg","1","1","1","",""
"","feedback","","html-keyboard-response","181","263242","0.0-1.0-240.0-0.0","0","0","82266","","null","","","null","26","","","","","","","","","","","","","","","",""
"","ITI","","html-keyboard-response","182","264253","0.0-1.0-243.0","0","0","82266","","null","","","null","26","","","","","","","","","","","","","","","NaN",""
"","S1","","html-keyboard-response","183","264512","0.0-1.0-245.0","0","0","82266","","null","","","null","27","","","","","","","","","","","","","","","",""
"","ISI","","html-keyboard-response","184","264670","0.0-1.0-246.0","0","0","82266","","null","","","null","27","NaN","","","","","","","","","","","","","","",""
"","S2","","html-keyboard-response","185","264934","0.0-1.0-247.0","0","0","82266","","null","","","null","27","","NaN","","","","","","","","","","","","","",""
"","response","","html-keyboard-response","186","266238","0.0-1.0-248.0-0.0","0","0","82266","","1296","","","68","27","","","1","27","training","adjacent","BC","2","3","N.jpg","M.jpg","1","1","1","",""
"","feedback","","html-keyboard-response","187","267247","0.0-1.0-249.0-0.0","0","0","82266","","null","","","null","27","","","","","","","","","","","","","","","",""
"","ITI","","html-keyboard-response","188","268256","0.0-1.0-252.0","0","0","82266","","null","","","null","27","","","","","","","","","","","","","","","NaN",""
"","S1","","html-keyboard-response","189","268515","0.0-1.0-254.0","0","0","82266","","null","","","null","28","","","","","","","","","","","","","","","",""
"","ISI","","html-keyboard-response","190","268675","0.0-1.0-255.0","0","0","82266","","null","","","null","28","NaN","","","","","","","","","","","","","","",""
"","S2","","html-keyboard-response","191","268934","0.0-1.0-256.0","0","0","82266","","null","","","null","28","","NaN","","","","","","","","","","","","","",""
"","response","","html-keyboard-response","192","269140","0.0-1.0-257.0-0.0","0","0","82266","","198","","","68","28","","","1","28","training","adjacent","ED","5","4","Q.jpg","R.jpg","1","0","0","",""
"","feedback","","html-keyboard-response","193","270151","0.0-1.0-258.0-0.0","0","0","82266","","null","","","null","28","","","","","","","","","","","","","","","",""
"","time_out","","html-keyboard-response","194","272161","0.0-1.0-260.0-0.0","0","0","82266","","null","","","null","28","","","","","","","","","","","","","","","",""
"","ITI","","html-keyboard-response","195","273173","0.0-1.0-261.0","0","0","82266","","null","","","null","28","","","","","","","","","","","","","","","NaN",""
"","S1","","html-keyboard-response","196","273433","0.0-1.0-263.0","0","0","82266","","null","","","null","29","","","","","","","","","","","","","","","",""
"","ISI","","html-keyboard-response","197","273591","0.0-1.0-264.0","0","0","82266","","null","","","null","29","NaN","","","","","","","","","","","","","","",""
"","S2","","html-keyboard-response","198","273850","0.0-1.0-265.0","0","0","82266","","null","","","null","29","","NaN","","","","","","","","","","","","","",""
"","response","","html-keyboard-response","199","274406","0.0-1.0-266.0-0.0","0","0","82266","","549","","","68","29","","","1","29","training","adjacent","BA","2","1","N.jpg","P.jpg","1","0","0","",""
"","feedback","","html-keyboard-response","200","275417","0.0-1.0-267.0-0.0","0","0","82266","","null","","","null","29","","","","","","","","","","","","","","","",""
"","time_out","","html-keyboard-response","201","277426","0.0-1.0-269.0-0.0","0","0","82266","","null","","","null","29","","","","","","","","","","","","","","","",""
"","ITI","","html-keyboard-response","202","278435","0.0-1.0-270.0","0","0","82266","","null","","","null","29","","","","","","","","","","","","","","","NaN",""
"","S1","","html-keyboard-response","203","278696","0.0-1.0-272.0","0","0","82266","","null","","","null","30","","","","","","","","","","","","","","","",""
"","ISI","","html-keyboard-response","204","278853","0.0-1.0-273.0","0","0","82266","","null","","","null","30","NaN","","","","","","","","","","","","","","",""
"","S2","","html-keyboard-response","205","279116","0.0-1.0-274.0","0","0","82266","","null","","","null","30","","NaN","","","","","","","","","","","","","",""
"","response","","html-keyboard-response","206","279420","0.0-1.0-275.0-0.0","0","0","82266","","298","","","68","30","","","1","30","training","adjacent","ED","5","4","Q.jpg","R.jpg","1","0","0","",""
"","feedback","","html-keyboard-response","207","280427","0.0-1.0-276.0-0.0","0","0","82266","","null","","","null","30","","","","","","","","","","","","","","","",""
"","time_out","","html-keyboard-response","208","282435","0.0-1.0-278.0-0.0","0","0","82266","","null","","","null","30","","","","","","","","","","","","","","","",""
"","ITI","","html-keyboard-response","209","283446","0.0-1.0-279.0","0","0","82266","","null","","","null","30","","","","","","","","","","","","","","","NaN",""
"","S1","","html-keyboard-response","210","283704","0.0-1.0-281.0","0","0","82266","","null","","","null","31","","","","","","","","","","","","","","","",""
"","ISI","","html-keyboard-response","211","283862","0.0-1.0-282.0","0","0","82266","","null","","","null","31","NaN","","","","","","","","","","","","","","",""
"","S2","","html-keyboard-response","212","284121","0.0-1.0-283.0","0","0","82266","","null","","","null","31","","NaN","","","","","","","","","","","","","",""
"","response","","html-keyboard-response","213","284423","0.0-1.0-284.0-0.0","0","0","82266","","294","","","75","31","","","1","31","training","adjacent","DE","4","5","R.jpg","Q.jpg","0","1","0","",""
"","feedback","","html-keyboard-response","214","285431","0.0-1.0-285.0-0.0","0","0","82266","","null","","","null","31","","","","","","","","","","","","","","","",""
"","time_out","","html-keyboard-response","215","287443","0.0-1.0-287.0-0.0","0","0","82266","","null","","","null","31","","","","","","","","","","","","","","","",""
"","ITI","","html-keyboard-response","216","288451","0.0-1.0-288.0","0","0","82266","","null","","","null","31","","","","","","","","","","","","","","","NaN",""
"","S1","","html-keyboard-response","217","288710","0.0-1.0-290.0","0","0","82266","","null","","","null","32","","","","","","","","","","","","","","","",""
"","ISI","","html-keyboard-response","218","288868","0.0-1.0-291.0","0","0","82266","","null","","","null","32","NaN","","","","","","","","","","","","","","",""
"","S2","","html-keyboard-response","219","289128","0.0-1.0-292.0","0","0","82266","","null","","","null","32","","NaN","","","","","","","","","","","","","",""
"","response","","html-keyboard-response","220","289633","0.0-1.0-293.0-0.0","0","0","82266","","498","","","68","32","","","1","32","training","adjacent","CB","3","2","M.jpg","N.jpg","1","0","0","",""
"","feedback","","html-keyboard-response","221","290645","0.0-1.0-294.0-0.0","0","0","82266","","null","","","null","32","","","","","","","","","","","","","","","",""
"","time_out","","html-keyboard-response","222","292655","0.0-1.0-296.0-0.0","0","0","82266","","null","","","null","32","","","","","","","","","","","","","","","",""
"","ITI","","html-keyboard-response","223","293665","0.0-1.0-297.0","0","0","82266","","null","","","null","32","","","","","","","","","","","","","","","NaN",""
"","S1","","html-keyboard-response","224","293925","0.0-1.0-299.0","0","0","82266","","null","","","null","33","","","","","","","","","","","","","","","",""
"","ISI","","html-keyboard-response","225","294084","0.0-1.0-300.0","0","0","82266","","null","","","null","33","NaN","","","","","","","","","","","","","","",""
"","S2","","html-keyboard-response","226","294353","0.0-1.0-301.0","0","0","82266","","null","","","null","33","","NaN","","","","","","","","","","","","","",""
"","response","","html-keyboard-response","227","295093","0.0-1.0-302.0-0.0","0","0","82266","","733","","","68","33","","","1","33","training","adjacent","CB","3","2","M.jpg","N.jpg","1","0","0","",""
"","feedback","","html-keyboard-response","228","296102","0.0-1.0-303.0-0.0","0","0","82266","","null","","","null","33","","","","","","","","","","","","","","","",""
"","time_out","","html-keyboard-response","229","298112","0.0-1.0-305.0-0.0","0","0","82266","","null","","","null","33","","","","","","","","","","","","","","","",""
"","ITI","","html-keyboard-response","230","299123","0.0-1.0-306.0","0","0","82266","","null","","","null","33","","","","","","","","","","","","","","","NaN",""
"","S1","","html-keyboard-response","231","299383","0.0-1.0-308.0","0","0","82266","","null","","","null","34","","","","","","","","","","","","","","","",""
"","ISI","","html-keyboard-response","232","299542","0.0-1.0-309.0","0","0","82266","","null","","","null","34","NaN","","","","","","","","","","","","","","",""
"","S2","","html-keyboard-response","233","299803","0.0-1.0-310.0","0","0","82266","","null","","","null","34","","NaN","","","","","","","","","","","","","",""
"","response","","html-keyboard-response","234","300349","0.0-1.0-311.0-0.0","0","0","82266","","538","","","75","34","","","1","34","training","adjacent","GF","7","6","O.jpg","L.jpg","0","0","1","",""
"","feedback","","html-keyboard-response","235","301360","0.0-1.0-312.0-0.0","0","0","82266","","null","","","null","34","","","","","","","","","","","","","","","",""
"","ITI","","html-keyboard-response","236","302370","0.0-1.0-315.0","0","0","82266","","null","","","null","34","","","","","","","","","","","","","","","NaN",""
"","S1","","html-keyboard-response","237","302629","0.0-1.0-317.0","0","0","82266","","null","","","null","35","","","","","","","","","","","","","","","",""
"","ISI","","html-keyboard-response","238","302789","0.0-1.0-318.0","0","0","82266","","null","","","null","35","NaN","","","","","","","","","","","","","","",""
"","S2","","html-keyboard-response","239","303049","0.0-1.0-319.0","0","0","82266","","null","","","null","35","","NaN","","","","","","","","","","","","","",""
"","response","","html-keyboard-response","240","303453","0.0-1.0-320.0-0.0","0","0","82266","","395","","","68","35","","","1","35","training","adjacent","DE","4","5","R.jpg","Q.jpg","1","1","1","",""
"","feedback","","html-keyboard-response","241","304464","0.0-1.0-321.0-0.0","0","0","82266","","null","","","null","35","","","","","","","","","","","","","","","",""
"","ITI","","html-keyboard-response","242","305475","0.0-1.0-324.0","0","0","82266","","null","","","null","35","","","","","","","","","","","","","","","NaN",""
"","S1","","html-keyboard-response","243","305735","0.0-1.0-326.0","0","0","82266","","null","","","null","36","","","","","","","","","","","","","","","",""
"","ISI","","html-keyboard-response","244","305894","0.0-1.0-327.0","0","0","82266","","null","","","null","36","NaN","","","","","","","","","","","","","","",""
"","S2","","html-keyboard-response","245","306156","0.0-1.0-328.0","0","0","82266","","null","","","null","36","","NaN","","","","","","","","","","","","","",""
"","response","","html-keyboard-response","246","306353","0.0-1.0-329.0-0.0","0","0","82266","","190","","","75","36","","","1","36","training","adjacent","AB","1","2","P.jpg","N.jpg","0","1","0","",""
"","feedback","","html-keyboard-response","247","307365","0.0-1.0-330.0-0.0","0","0","82266","","null","","","null","36","","","","","","","","","","","","","","","",""
"","time_out","","html-keyboard-response","248","309376","0.0-1.0-332.0-0.0","0","0","82266","","null","","","null","36","","","","","","","","","","","","","","","",""
"","ITI","","html-keyboard-response","249","310386","0.0-1.0-333.0","0","0","82266","","null","","","null","36","","","","","","","","","","","","","","","NaN",""
"","S1","","html-keyboard-response","250","310646","0.0-1.0-335.0","0","0","82266","","null","","","null","37","","","","","","","","","","","","","","","",""
"","ISI","","html-keyboard-response","251","310805","0.0-1.0-336.0","0","0","82266","","null","","","null","37","NaN","","","","","","","","","","","","","","",""
"","S2","","html-keyboard-response","252","311065","0.0-1.0-337.0","0","0","82266","","null","","","null","37","","NaN","","","","","","","","","","","","","",""
"","response","","html-keyboard-response","253","311562","0.0-1.0-338.0-0.0","0","0","82266","","490","","","75","37","","","1","37","training","adjacent","DC","4","3","R.jpg","M.jpg","0","0","1","",""
"","feedback","","html-keyboard-response","254","312574","0.0-1.0-339.0-0.0","0","0","82266","","null","","","null","37","","","","","","","","","","","","","","","",""
"","ITI","","html-keyboard-response","255","313583","0.0-1.0-342.0","0","0","82266","","null","","","null","37","","","","","","","","","","","","","","","NaN",""
"","S1","","html-keyboard-response","256","313841","0.0-1.0-344.0","0","0","82266","","null","","","null","38","","","","","","","","","","","","","","","",""
"","ISI","","html-keyboard-response","257","313999","0.0-1.0-345.0","0","0","82266","","null","","","null","38","NaN","","","","","","","","","","","","","","",""
"","S2","","html-keyboard-response","258","314260","0.0-1.0-346.0","0","0","82266","","null","","","null","38","","NaN","","","","","","","","","","","","","",""
"","response","","html-keyboard-response","259","314632","0.0-1.0-347.0-0.0","0","0","82266","","364","","","68","38","","","1","38","training","adjacent","GF","7","6","O.jpg","L.jpg","1","0","0","",""
"","feedback","","html-keyboard-response","260","315643","0.0-1.0-348.0-0.0","0","0","82266","","null","","","null","38","","","","","","","","","","","","","","","",""
"","time_out","","html-keyboard-response","261","317651","0.0-1.0-350.0-0.0","0","0","82266","","null","","","null","38","","","","","","","","","","","","","","","",""
"","ITI","","html-keyboard-response","262","318660","0.0-1.0-351.0","0","0","82266","","null","","","null","38","","","","","","","","","","","","","","","NaN",""
"","S1","","html-keyboard-response","263","318919","0.0-1.0-353.0","0","0","82266","","null","","","null","39","","","","","","","","","","","","","","","",""
"","ISI","","html-keyboard-response","264","319077","0.0-1.0-354.0","0","0","82266","","null","","","null","39","NaN","","","","","","","","","","","","","","",""
"","S2","","html-keyboard-response","265","319337","0.0-1.0-355.0","0","0","82266","","null","","","null","39","","NaN","","","","","","","","","","","","","",""
"","response","","html-keyboard-response","266","319621","0.0-1.0-356.0-0.0","0","0","82266","","276","","","75","39","","","1","39","training","adjacent","DE","4","5","R.jpg","Q.jpg","0","1","0","",""
"","feedback","","html-keyboard-response","267","320631","0.0-1.0-357.0-0.0","0","0","82266","","null","","","null","39","","","","","","","","","","","","","","","",""
"","time_out","","html-keyboard-response","268","322641","0.0-1.0-359.0-0.0","0","0","82266","","null","","","null","39","","","","","","","","","","","","","","","",""
"","ITI","","html-keyboard-response","269","323660","0.0-1.0-360.0","0","0","82266","","null","","","null","39","","","","","","","","","","","","","","","NaN",""
"","S1","","html-keyboard-response","270","323920","0.0-1.0-362.0","0","0","82266","","null","","","null","40","","","","","","","","","","","","","","","",""
"","ISI","","html-keyboard-response","271","324080","0.0-1.0-363.0","0","0","82266","","null","","","null","40","NaN","","","","","","","","","","","","","","",""
"","S2","","html-keyboard-response","272","324340","0.0-1.0-364.0","0","0","82266","","null","","","null","40","","NaN","","","","","","","","","","","","","",""
"","response","","html-keyboard-response","273","325271","0.0-1.0-365.0-0.0","0","0","82266","","922","","","68","40","","","1","40","training","adjacent","CD","3","4","M.jpg","R.jpg","1","1","1","",""
"","feedback","","html-keyboard-response","274","326281","0.0-1.0-366.0-0.0","0","0","82266","","null","","","null","40","","","","","","","","","","","","","","","",""
"","ITI","","html-keyboard-response","275","327291","0.0-1.0-369.0","0","0","82266","","null","","","null","40","","","","","","","","","","","","","","","NaN",""
"","S1","","html-keyboard-response","276","327550","0.0-1.0-371.0","0","0","82266","","null","","","null","41","","","","","","","","","","","","","","","",""
"","ISI","","html-keyboard-response","277","327712","0.0-1.0-372.0","0","0","82266","","null","","","null","41","NaN","","","","","","","","","","","","","","",""
"","S2","","html-keyboard-response","278","327971","0.0-1.0-373.0","0","0","82266","","null","","","null","41","","NaN","","","","","","","","","","","","","",""
"","response","","html-keyboard-response","279","328528","0.0-1.0-374.0-0.0","0","0","82266","","548","","","68","41","","","1","41","training","adjacent","FG","6","7","L.jpg","O.jpg","1","1","1","",""
"","feedback","","html-keyboard-response","280","329541","0.0-1.0-375.0-0.0","0","0","82266","","null","","","null","41","","","","","","","","","","","","","","","",""
"","ITI","","html-keyboard-response","281","330551","0.0-1.0-378.0","0","0","82266","","null","","","null","41","","","","","","","","","","","","","","","NaN",""
"","S1","","html-keyboard-response","282","330809","0.0-1.0-380.0","0","0","82266","","null","","","null","42","","","","","","","","","","","","","","","",""
"","ISI","","html-keyboard-response","283","330968","0.0-1.0-381.0","0","0","82266","","null","","","null","42","NaN","","","","","","","","","","","","","","",""
"","S2","","html-keyboard-response","284","331228","0.0-1.0-382.0","0","0","82266","","null","","","null","42","","NaN","","","","","","","","","","","","","",""
"","response","","html-keyboard-response","285","331901","0.0-1.0-383.0-0.0","0","0","82266","","666","","","75","42","","","1","42","training","adjacent","FG","6","7","L.jpg","O.jpg","0","1","0","",""
"","feedback","","html-keyboard-response","286","332913","0.0-1.0-384.0-0.0","0","0","82266","","null","","","null","42","","","","","","","","","","","","","","","",""
"","time_out","","html-keyboard-response","287","334924","0.0-1.0-386.0-0.0","0","0","82266","","null","","","null","42","","","","","","","","","","","","","","","",""
"","ITI","","html-keyboard-response","288","335934","0.0-1.0-387.0","0","0","82266","","null","","","null","42","","","","","","","","","","","","","","","NaN",""
"","S1","","html-keyboard-response","289","336194","0.0-1.0-389.0","0","0","82266","","null","","","null","43","","","","","","","","","","","","","","","",""
"","ISI","","html-keyboard-response","290","336355","0.0-1.0-390.0","0","0","82266","","null","","","null","43","NaN","","","","","","","","","","","","","","",""
"","S2","","html-keyboard-response","291","336615","0.0-1.0-391.0","0","0","82266","","null","","","null","43","","NaN","","","","","","","","","","","","","",""
"","response","","html-keyboard-response","292","336939","0.0-1.0-392.0-0.0","0","0","82266","","317","","","75","43","","","1","43","training","adjacent","DE","4","5","R.jpg","Q.jpg","0","1","0","",""
"","feedback","","html-keyboard-response","293","337949","0.0-1.0-393.0-0.0","0","0","82266","","null","","","null","43","","","","","","","","","","","","","","","",""
"","time_out","","html-keyboard-response","294","339958","0.0-1.0-395.0-0.0","0","0","82266","","null","","","null","43","","","","","","","","","","","","","","","",""
"","ITI","","html-keyboard-response","295","340963","0.0-1.0-396.0","0","0","82266","","null","","","null","43","","","","","","","","","","","","","","","NaN",""
"","S1","","html-keyboard-response","296","341223","0.0-1.0-398.0","0","0","82266","","null","","","null","44","","","","","","","","","","","","","","","",""
"","ISI","","html-keyboard-response","297","341384","0.0-1.0-399.0","0","0","82266","","null","","","null","44","NaN","","","","","","","","","","","","","","",""
"","S2","","html-keyboard-response","298","341643","0.0-1.0-400.0","0","0","82266","","null","","","null","44","","NaN","","","","","","","","","","","","","",""
"","response","","html-keyboard-response","299","341861","0.0-1.0-401.0-0.0","0","0","82266","","211","","","68","44","","","1","44","training","adjacent","BC","2","3","N.jpg","M.jpg","1","1","1","",""
"","feedback","","html-keyboard-response","300","342873","0.0-1.0-402.0-0.0","0","0","82266","","null","","","null","44","","","","","","","","","","","","","","","",""
"","ITI","","html-keyboard-response","301","343884","0.0-1.0-405.0","0","0","82266","","null","","","null","44","","","","","","","","","","","","","","","NaN",""
"","S1","","html-keyboard-response","302","344144","0.0-1.0-407.0","0","0","82266","","null","","","null","45","","","","","","","","","","","","","","","",""
"","ISI","","html-keyboard-response","303","344300","0.0-1.0-408.0","0","0","82266","","null","","","null","45","NaN","","","","","","","","","","","","","","",""
"","S2","","html-keyboard-response","304","344559","0.0-1.0-409.0","0","0","82266","","null","","","null","45","","NaN","","","","","","","","","","","","","",""
"","response","","html-keyboard-response","305","344918","0.0-1.0-410.0-0.0","0","0","82266","","352","","","68","45","","","1","45","training","adjacent","FE","6","5","L.jpg","Q.jpg","1","0","0","",""
"","feedback","","html-keyboard-response","306","345929","0.0-1.0-411.0-0.0","0","0","82266","","null","","","null","45","","","","","","","","","","","","","","","",""
"","time_out","","html-keyboard-response","307","347937","0.0-1.0-413.0-0.0","0","0","82266","","null","","","null","45","","","","","","","","","","","","","","","",""
"","ITI","","html-keyboard-response","308","348942","0.0-1.0-414.0","0","0","82266","","null","","","null","45","","","","","","","","","","","","","","","NaN",""
"","S1","","html-keyboard-response","309","349199","0.0-1.0-416.0","0","0","82266","","null","","","null","46","","","","","","","","","","","","","","","",""
"","ISI","","html-keyboard-response","310","349355","0.0-1.0-417.0","0","0","82266","","null","","","null","46","NaN","","","","","","","","","","","","","","",""
"","S2","","html-keyboard-response","311","349612","0.0-1.0-418.0","0","0","82266","","null","","","null","46","","NaN","","","","","","","","","","","","","",""
"","response","","html-keyboard-response","312","350598","0.0-1.0-419.0-0.0","0","0","82266","","980","","","68","46","","","1","46","training","adjacent","FG","6","7","L.jpg","O.jpg","1","1","1","",""
"","feedback","","html-keyboard-response","313","351605","0.0-1.0-420.0-0.0","0","0","82266","","null","","","null","46","","","","","","","","","","","","","","","",""
"","ITI","","html-keyboard-response","314","352616","0.0-1.0-423.0","0","0","82266","","null","","","null","46","","","","","","","","","","","","","","","NaN",""
"","S1","","html-keyboard-response","315","352875","0.0-1.0-425.0","0","0","82266","","null","","","null","47","","","","","","","","","","","","","","","",""
"","ISI","","html-keyboard-response","316","353035","0.0-1.0-426.0","0","0","82266","","null","","","null","47","NaN","","","","","","","","","","","","","","",""
"","S2","","html-keyboard-response","317","353294","0.0-1.0-427.0","0","0","82266","","null","","","null","47","","NaN","","","","","","","","","","","","","",""
"","response","","html-keyboard-response","318","354005","0.0-1.0-428.0-0.0","0","0","82266","","702","","","68","47","","","1","47","training","adjacent","CB","3","2","M.jpg","N.jpg","1","0","0","",""
"","feedback","","html-keyboard-response","319","355016","0.0-1.0-429.0-0.0","0","0","82266","","null","","","null","47","","","","","","","","","","","","","","","",""
"","time_out","","html-keyboard-response","320","357026","0.0-1.0-431.0-0.0","0","0","82266","","null","","","null","47","","","","","","","","","","","","","","","",""
"","ITI","","html-keyboard-response","321","358036","0.0-1.0-432.0","0","0","82266","","null","","","null","47","","","","","","","","","","","","","","","NaN",""
"","block_over","","html-keyboard-response","322","374398","0.0-1.0-433.0-0.0","0","0","82266","","16351","","","32","47","","","","","","","","","","","","","","","",""
"","S1","","html-keyboard-response","323","374658","0.0-1.0-434.0","0","0","82266","","null","","","null","48","","","","","","","","","","","","","","","",""
"","ISI","","html-keyboard-response","324","374816","0.0-1.0-435.0","0","0","82266","","null","","","null","48","NaN","","","","","","","","","","","","","","",""
"","S2","","html-keyboard-response","325","375076","0.0-1.0-436.0","0","0","82266","","null","","","null","48","","NaN","","","","","","","","","","","","","",""
"","response","","html-keyboard-response","326","376806","0.0-1.0-437.0-0.0","0","0","82266","","1722","","","68","48","","","2","48","training","adjacent","DE","4","5","R.jpg","Q.jpg","1","1","1","",""
"","feedback","","html-keyboard-response","327","377815","0.0-1.0-438.0-0.0","0","0","82266","","null","","","null","48","","","","","","","","","","","","","","","",""
"","ITI","","html-keyboard-response","328","378824","0.0-1.0-441.0","0","0","82266","","null","","","null","48","","","","","","","","","","","","","","","NaN",""
"","S1","","html-keyboard-response","329","379084","0.0-1.0-443.0","0","0","82266","","null","","","null","49","","","","","","","","","","","","","","","",""
"","ISI","","html-keyboard-response","330","379242","0.0-1.0-444.0","0","0","82266","","null","","","null","49","NaN","","","","","","","","","","","","","","",""
"","S2","","html-keyboard-response","331","379501","0.0-1.0-445.0","0","0","82266","","null","","","null","49","","NaN","","","","","","","","","","","","","",""
"","response","","html-keyboard-response","332","380238","0.0-1.0-446.0-0.0","0","0","82266","","729","","","75","49","","","2","49","training","adjacent","AB","1","2","P.jpg","N.jpg","0","1","0","",""
"","feedback","","html-keyboard-response","333","381250","0.0-1.0-447.0-0.0","0","0","82266","","null","","","null","49","","","","","","","","","","","","","","","",""
"","time_out","","html-keyboard-response","334","383259","0.0-1.0-449.0-0.0","0","0","82266","","null","","","null","49","","","","","","","","","","","","","","","",""
"","ITI","","html-keyboard-response","335","384269","0.0-1.0-450.0","0","0","82266","","null","","","null","49","","","","","","","","","","","","","","","NaN",""
"","S1","","html-keyboard-response","336","384528","0.0-1.0-452.0","0","0","82266","","null","","","null","50","","","","","","","","","","","","","","","",""
"","ISI","","html-keyboard-response","337","384686","0.0-1.0-453.0","0","0","82266","","null","","","null","50","NaN","","","","","","","","","","","","","","",""
"","S2","","html-keyboard-response","338","384948","0.0-1.0-454.0","0","0","82266","","null","","","null","50","","NaN","","","","","","","","","","","","","",""
"","response","","html-keyboard-response","339","385410","0.0-1.0-455.0-0.0","0","0","82266","","454","","","68","50","","","2","50","training","adjacent","BA","2","1","N.jpg","P.jpg","1","0","0","",""
"","feedback","","html-keyboard-response","340","386422","0.0-1.0-456.0-0.0","0","0","82266","","null","","","null","50","","","","","","","","","","","","","","","",""
"","time_out","","html-keyboard-response","341","388431","0.0-1.0-458.0-0.0","0","0","82266","","null","","","null","50","","","","","","","","","","","","","","","",""
"","ITI","","html-keyboard-response","342","389441","0.0-1.0-459.0","0","0","82266","","null","","","null","50","","","","","","","","","","","","","","","NaN",""
"","S1","","html-keyboard-response","343","389700","0.0-1.0-461.0","0","0","82266","","null","","","null","51","","","","","","","","","","","","","","","",""
"","ISI","","html-keyboard-response","344","389858","0.0-1.0-462.0","0","0","82266","","null","","","null","51","NaN","","","","","","","","","","","","","","",""
"","S2","","html-keyboard-response","345","390124","0.0-1.0-463.0","0","0","82266","","null","","","null","51","","NaN","","","","","","","","","","","","","",""
"","response","","html-keyboard-response","346","390501","0.0-1.0-464.0-0.0","0","0","82266","","369","","","75","51","","","2","51","training","adjacent","DE","4","5","R.jpg","Q.jpg","0","1","0","",""
"","feedback","","html-keyboard-response","347","391513","0.0-1.0-465.0-0.0","0","0","82266","","null","","","null","51","","","","","","","","","","","","","","","",""
"","time_out","","html-keyboard-response","348","393522","0.0-1.0-467.0-0.0","0","0","82266","","null","","","null","51","","","","","","","","","","","","","","","",""
"","ITI","","html-keyboard-response","349","394532","0.0-1.0-468.0","0","0","82266","","null","","","null","51","","","","","","","","","","","","","","","NaN",""
"","S1","","html-keyboard-response","350","394791","0.0-1.0-470.0","0","0","82266","","null","","","null","52","","","","","","","","","","","","","","","",""
"","ISI","","html-keyboard-response","351","394961","0.0-1.0-471.0","0","0","82266","","null","","","null","52","NaN","","","","","","","","","","","","","","",""
"","S2","","html-keyboard-response","352","395227","0.0-1.0-472.0","0","0","82266","","null","","","null","52","","NaN","","","","","","","","","","","","","",""
"","response","","html-keyboard-response","353","395684","0.0-1.0-473.0-0.0","0","0","82266","","449","","","68","52","","","2","52","training","adjacent","CD","3","4","M.jpg","R.jpg","1","1","1","",""
"","feedback","","html-keyboard-response","354","396696","0.0-1.0-474.0-0.0","0","0","82266","","null","","","null","52","","","","","","","","","","","","","","","",""
"","ITI","","html-keyboard-response","355","397705","0.0-1.0-477.0","0","0","82266","","null","","","null","52","","","","","","","","","","","","","","","NaN",""
"","S1","","html-keyboard-response","356","397964","0.0-1.0-479.0","0","0","82266","","null","","","null","53","","","","","","","","","","","","","","","",""
"","ISI","","html-keyboard-response","357","398123","0.0-1.0-480.0","0","0","82266","","null","","","null","53","NaN","","","","","","","","","","","","","","",""
"","S2","","html-keyboard-response","358","398383","0.0-1.0-481.0","0","0","82266","","null","","","null","53","","NaN","","","","","","","","","","","","","",""
"","response","","html-keyboard-response","359","398940","0.0-1.0-482.0-0.0","0","0","82266","","549","","","75","53","","","2","53","training","adjacent","EF","5","6","Q.jpg","L.jpg","0","1","0","",""
"","feedback","","html-keyboard-response","360","399951","0.0-1.0-483.0-0.0","0","0","82266","","null","","","null","53","","","","","","","","","","","","","","","",""
"","time_out","","html-keyboard-response","361","401957","0.0-1.0-485.0-0.0","0","0","82266","","null","","","null","53","","","","","","","","","","","","","","","",""
"","ITI","","html-keyboard-response","362","402966","0.0-1.0-486.0","0","0","82266","","null","","","null","53","","","","","","","","","","","","","","","NaN",""
"","S1","","html-keyboard-response","363","403225","0.0-1.0-488.0","0","0","82266","","null","","","null","54","","","","","","","","","","","","","","","",""
"","ISI","","html-keyboard-response","364","403385","0.0-1.0-489.0","0","0","82266","","null","","","null","54","NaN","","","","","","","","","","","","","","",""
"","S2","","html-keyboard-response","365","403643","0.0-1.0-490.0","0","0","82266","","null","","","null","54","","NaN","","","","","","","","","","","","","",""
"","response","","html-keyboard-response","366","404127","0.0-1.0-491.0-0.0","0","0","82266","","475","","","68","54","","","2","54","training","adjacent","AB","1","2","P.jpg","N.jpg","1","1","1","",""
"","feedback","","html-keyboard-response","367","405138","0.0-1.0-492.0-0.0","0","0","82266","","null","","","null","54","","","","","","","","","","","","","","","",""
"","ITI","","html-keyboard-response","368","406148","0.0-1.0-495.0","0","0","82266","","null","","","null","54","","","","","","","","","","","","","","","NaN",""
"","S1","","html-keyboard-response","369","406409","0.0-1.0-497.0","0","0","82266","","null","","","null","55","","","","","","","","","","","","","","","",""
"","ISI","","html-keyboard-response","370","406567","0.0-1.0-498.0","0","0","82266","","null","","","null","55","NaN","","","","","","","","","","","","","","",""
"","S2","","html-keyboard-response","371","406827","0.0-1.0-499.0","0","0","82266","","null","","","null","55","","NaN","","","","","","","","","","","","","",""
"","response","","html-keyboard-response","372","407545","0.0-1.0-500.0-0.0","0","0","82266","","710","","","75","55","","","2","55","training","adjacent","FE","6","5","L.jpg","Q.jpg","0","0","1","",""
"","feedback","","html-keyboard-response","373","408557","0.0-1.0-501.0-0.0","0","0","82266","","null","","","null","55","","","","","","","","","","","","","","","",""
"","ITI","","html-keyboard-response","374","409568","0.0-1.0-504.0","0","0","82266","","null","","","null","55","","","","","","","","","","","","","","","NaN",""
"","S1","","html-keyboard-response","375","409827","0.0-1.0-506.0","0","0","82266","","null","","","null","56","","","","","","","","","","","","","","","",""
"","ISI","","html-keyboard-response","376","409987","0.0-1.0-507.0","0","0","82266","","null","","","null","56","NaN","","","","","","","","","","","","","","",""
"","S2","","html-keyboard-response","377","410248","0.0-1.0-508.0","0","0","82266","","null","","","null","56","","NaN","","","","","","","","","","","","","",""
"","response","","html-keyboard-response","378","412007","0.0-1.0-509.0-0.0","0","0","82266","","null","","","null","56","","","2","56","training","adjacent","GF","7","6","O.jpg","L.jpg","NaN","0","0","",""
"","too_slow_prompt","","html-keyboard-response","379","413017","0.0-1.0-511.0-0.0","1","0","82266","","null","","","null","","","","","","","","","","","","","","","","",""
"","time_out","","html-keyboard-response","380","415028","0.0-1.0-512.0-0.0","0","0","82266","","null","","","null","56","","","","","","","","","","","","","","","",""
"","ITI","","html-keyboard-response","381","416036","0.0-1.0-513.0","0","0","82266","","null","","","null","56","","","","","","","","","","","","","","","NaN",""
"","S1","","html-keyboard-response","382","416310","0.0-1.0-515.0","0","0","82266","","null","","","null","57","","","","","","","","","","","","","","","",""
"","ISI","","html-keyboard-response","383","416468","0.0-1.0-516.0","0","0","82266","","null","","","null","57","NaN","","","","","","","","","","","","","","",""
"","S2","","html-keyboard-response","384","416727","0.0-1.0-517.0","0","0","82266","","null","","","null","57","","NaN","","","","","","","","","","","","","",""
"","response","","html-keyboard-response","385","416797","0.0-1.0-518.0-0.0","0","0","82266","","62","","","68","57","","","2","57","training","adjacent","GF","7","6","O.jpg","L.jpg","1","0","0","",""
"","feedback","","html-keyboard-response","386","417809","0.0-1.0-519.0-0.0","0","0","82266","","null","","","null","57","","","","","","","","","","","","","","","",""
"","time_out","","html-keyboard-response","387","419817","0.0-1.0-521.0-0.0","0","0","82266","","null","","","null","57","","","","","","","","","","","","","","","",""
"","ITI","","html-keyboard-response","388","420828","0.0-1.0-522.0","0","0","82266","","null","","","null","57","","","","","","","","","","","","","","","NaN",""
"","S1","","html-keyboard-response","389","421087","0.0-1.0-524.0","0","0","82266","","null","","","null","58","","","","","","","","","","","","","","","",""
"","ISI","","html-keyboard-response","390","421247","0.0-1.0-525.0","0","0","82266","","null","","","null","58","NaN","","","","","","","","","","","","","","",""
"","S2","","html-keyboard-response","391","421506","0.0-1.0-526.0","0","0","82266","","null","","","null","58","","NaN","","","","","","","","","","","","","",""
"","response","","html-keyboard-response","392","421691","0.0-1.0-527.0-0.0","0","0","82266","","176","","","75","58","","","2","58","training","adjacent","BC","2","3","N.jpg","M.jpg","0","1","0","",""
"","feedback","","html-keyboard-response","393","422703","0.0-1.0-528.0-0.0","0","0","82266","","null","","","null","58","","","","","","","","","","","","","","","",""
"","time_out","","html-keyboard-response","394","424713","0.0-1.0-530.0-0.0","0","0","82266","","null","","","null","58","","","","","","","","","","","","","","","",""
"","ITI","","html-keyboard-response","395","425722","0.0-1.0-531.0","0","0","82266","","null","","","null","58","","","","","","","","","","","","","","","NaN",""
"","S1","","html-keyboard-response","396","425981","0.0-1.0-533.0","0","0","82266","","null","","","null","59","","","","","","","","","","","","","","","",""
"","ISI","","html-keyboard-response","397","426139","0.0-1.0-534.0","0","0","82266","","null","","","null","59","NaN","","","","","","","","","","","","","","",""
"","S2","","html-keyboard-response","398","426401","0.0-1.0-535.0","0","0","82266","","null","","","null","59","","NaN","","","","","","","","","","","","","",""
"","response","","html-keyboard-response","399","426485","0.0-1.0-536.0-0.0","0","0","82266","","77","","","68","59","","","2","59","training","adjacent","CD","3","4","M.jpg","R.jpg","1","1","1","",""
"","feedback","","html-keyboard-response","400","427497","0.0-1.0-537.0-0.0","0","0","82266","","null","","","null","59","","","","","","","","","","","","","","","",""
"","ITI","","html-keyboard-response","401","428509","0.0-1.0-540.0","0","0","82266","","null","","","null","59","","","","","","","","","","","","","","","NaN",""
"","S1","","html-keyboard-response","402","428768","0.0-1.0-542.0","0","0","82266","","null","","","null","60","","","","","","","","","","","","","","","",""
"","ISI","","html-keyboard-response","403","428927","0.0-1.0-543.0","0","0","82266","","null","","","null","60","NaN","","","","","","","","","","","","","","",""
"","S2","","html-keyboard-response","404","429189","0.0-1.0-544.0","0","0","82266","","null","","","null","60","","NaN","","","","","","","","","","","","","",""
"","response","","html-keyboard-response","405","429609","0.0-1.0-545.0-0.0","0","0","82266","","411","","","75","60","","","2","60","training","adjacent","GF","7","6","O.jpg","L.jpg","0","0","1","",""
"","feedback","","html-keyboard-response","406","430620","0.0-1.0-546.0-0.0","0","0","82266","","null","","","null","60","","","","","","","","","","","","","","","",""
"","ITI","","html-keyboard-response","407","431631","0.0-1.0-549.0","0","0","82266","","null","","","null","60","","","","","","","","","","","","","","","NaN",""
"","S1","","html-keyboard-response","408","431891","0.0-1.0-551.0","0","0","82266","","null","","","null","61","","","","","","","","","","","","","","","",""
"","ISI","","html-keyboard-response","409","432049","0.0-1.0-552.0","0","0","82266","","null","","","null","61","NaN","","","","","","","","","","","","","","",""
"","S2","","html-keyboard-response","410","432309","0.0-1.0-553.0","0","0","82266","","null","","","null","61","","NaN","","","","","","","","","","","","","",""
"","response","","html-keyboard-response","411","432686","0.0-1.0-554.0-0.0","0","0","82266","","368","","","68","61","","","2","61","training","adjacent","BA","2","1","N.jpg","P.jpg","1","0","0","",""
"","feedback","","html-keyboard-response","412","433696","0.0-1.0-555.0-0.0","0","0","82266","","null","","","null","61","","","","","","","","","","","","","","","",""
"","time_out","","html-keyboard-response","413","435707","0.0-1.0-557.0-0.0","0","0","82266","","null","","","null","61","","","","","","","","","","","","","","","",""
"","ITI","","html-keyboard-response","414","436718","0.0-1.0-558.0","0","0","82266","","null","","","null","61","","","","","","","","","","","","","","","NaN",""
"","S1","","html-keyboard-response","415","436977","0.0-1.0-560.0","0","0","82266","","null","","","null","62","","","","","","","","","","","","","","","",""
"","ISI","","html-keyboard-response","416","437136","0.0-1.0-561.0","0","0","82266","","null","","","null","62","NaN","","","","","","","","","","","","","","",""
"","S2","","html-keyboard-response","417","437396","0.0-1.0-562.0","0","0","82266","","null","","","null","62","","NaN","","","","","","","","","","","","","",""
"","response","","html-keyboard-response","418","437740","0.0-1.0-563.0-0.0","0","0","82266","","335","","","75","62","","","2","62","training","adjacent","BA","2","1","N.jpg","P.jpg","0","0","1","",""
"","feedback","","html-keyboard-response","419","438751","0.0-1.0-564.0-0.0","0","0","82266","","null","","","null","62","","","","","","","","","","","","","","","",""
"","ITI","","html-keyboard-response","420","439762","0.0-1.0-567.0","0","0","82266","","null","","","null","62","","","","","","","","","","","","","","","NaN",""
"","S1","","html-keyboard-response","421","440022","0.0-1.0-569.0","0","0","82266","","null","","","null","63","","","","","","","","","","","","","","","",""
"","ISI","","html-keyboard-response","422","440180","0.0-1.0-570.0","0","0","82266","","null","","","null","63","NaN","","","","","","","","","","","","","","",""
"","S2","","html-keyboard-response","423","440440","0.0-1.0-571.0","0","0","82266","","null","","","null","63","","NaN","","","","","","","","","","","","","",""
"","response","","html-keyboard-response","424","440863","0.0-1.0-572.0-0.0","0","0","82266","","415","","","68","63","","","2","63","training","adjacent","CD","3","4","M.jpg","R.jpg","1","1","1","",""
"","feedback","","html-keyboard-response","425","441875","0.0-1.0-573.0-0.0","0","0","82266","","null","","","null","63","","","","","","","","","","","","","","","",""
"","ITI","","html-keyboard-response","426","442886","0.0-1.0-576.0","0","0","82266","","null","","","null","63","","","","","","","","","","","","","","","NaN",""
"","S1","","html-keyboard-response","427","443145","0.0-1.0-578.0","0","0","82266","","null","","","null","64","","","","","","","","","","","","","","","",""
"","ISI","","html-keyboard-response","428","443304","0.0-1.0-579.0","0","0","82266","","null","","","null","64","NaN","","","","","","","","","","","","","","",""
"","S2","","html-keyboard-response","429","443563","0.0-1.0-580.0","0","0","82266","","null","","","null","64","","NaN","","","","","","","","","","","","","",""
"","response","","html-keyboard-response","430","443994","0.0-1.0-581.0-0.0","0","0","82266","","423","","","75","64","","","2","64","training","adjacent","CB","3","2","M.jpg","N.jpg","0","0","1","",""
"","feedback","","html-keyboard-response","431","445007","0.0-1.0-582.0-0.0","0","0","82266","","null","","","null","64","","","","","","","","","","","","","","","",""
"","ITI","","html-keyboard-response","432","446018","0.0-1.0-585.0","0","0","82266","","null","","","null","64","","","","","","","","","","","","","","","NaN",""
"","S1","","html-keyboard-response","433","446278","0.0-1.0-587.0","0","0","82266","","null","","","null","65","","","","","","","","","","","","","","","",""
"","ISI","","html-keyboard-response","434","446438","0.0-1.0-588.0","0","0","82266","","null","","","null","65","NaN","","","","","","","","","","","","","","",""
"","S2","","html-keyboard-response","435","446698","0.0-1.0-589.0","0","0","82266","","null","","","null","65","","NaN","","","","","","","","","","","","","",""
"","response","","html-keyboard-response","436","447047","0.0-1.0-590.0-0.0","0","0","82266","","341","","","68","65","","","2","65","training","adjacent","BC","2","3","N.jpg","M.jpg","1","1","1","",""
"","feedback","","html-keyboard-response","437","448059","0.0-1.0-591.0-0.0","0","0","82266","","null","","","null","65","","","","","","","","","","","","","","","",""
"","ITI","","html-keyboard-response","438","449070","0.0-1.0-594.0","0","0","82266","","null","","","null","65","","","","","","","","","","","","","","","NaN",""
"","S1","","html-keyboard-response","439","449329","0.0-1.0-596.0","0","0","82266","","null","","","null","66","","","","","","","","","","","","","","","",""
"","ISI","","html-keyboard-response","440","449489","0.0-1.0-597.0","0","0","82266","","null","","","null","66","NaN","","","","","","","","","","","","","","",""
"","S2","","html-keyboard-response","441","449747","0.0-1.0-598.0","0","0","82266","","null","","","null","66","","NaN","","","","","","","","","","","","","",""
"","response","","html-keyboard-response","442","450182","0.0-1.0-599.0-0.0","0","0","82266","","428","","","75","66","","","2","66","training","adjacent","GF","7","6","O.jpg","L.jpg","0","0","1","",""
"","feedback","","html-keyboard-response","443","451195","0.0-1.0-600.0-0.0","0","0","82266","","null","","","null","66","","","","","","","","","","","","","","","",""
"","ITI","","html-keyboard-response","444","452206","0.0-1.0-603.0","0","0","82266","","null","","","null","66","","","","","","","","","","","","","","","NaN",""
"","S1","","html-keyboard-response","445","452465","0.0-1.0-605.0","0","0","82266","","null","","","null","67","","","","","","","","","","","","","","","",""
"","ISI","","html-keyboard-response","446","452623","0.0-1.0-606.0","0","0","82266","","null","","","null","67","NaN","","","","","","","","","","","","","","",""
"","S2","","html-keyboard-response","447","452883","0.0-1.0-607.0","0","0","82266","","null","","","null","67","","NaN","","","","","","","","","","","","","",""
"","response","","html-keyboard-response","448","453089","0.0-1.0-608.0-0.0","0","0","82266","","198","","","68","67","","","2","67","training","adjacent","DE","4","5","R.jpg","Q.jpg","1","1","1","",""
"","feedback","","html-keyboard-response","449","454099","0.0-1.0-609.0-0.0","0","0","82266","","null","","","null","67","","","","","","","","","","","","","","","",""
"","ITI","","html-keyboard-response","450","455109","0.0-1.0-612.0","0","0","82266","","null","","","null","67","","","","","","","","","","","","","","","NaN",""
"","S1","","html-keyboard-response","451","455368","0.0-1.0-614.0","0","0","82266","","null","","","null","68","","","","","","","","","","","","","","","",""
"","ISI","","html-keyboard-response","452","455528","0.0-1.0-615.0","0","0","82266","","null","","","null","68","NaN","","","","","","","","","","","","","","",""
"","S2","","html-keyboard-response","453","455789","0.0-1.0-616.0","0","0","82266","","null","","","null","68","","NaN","","","","","","","","","","","","","",""
"","response","","html-keyboard-response","454","456057","0.0-1.0-617.0-0.0","0","0","82266","","260","","","75","68","","","2","68","training","adjacent","ED","5","4","Q.jpg","R.jpg","0","0","1","",""
"","feedback","","html-keyboard-response","455","457067","0.0-1.0-618.0-0.0","0","0","82266","","null","","","null","68","","","","","","","","","","","","","","","",""
"","ITI","","html-keyboard-response","456","458080","0.0-1.0-621.0","0","0","82266","","null","","","null","68","","","","","","","","","","","","","","","NaN",""
"","S1","","html-keyboard-response","457","458339","0.0-1.0-623.0","0","0","82266","","null","","","null","69","","","","","","","","","","","","","","","",""
"","ISI","","html-keyboard-response","458","458499","0.0-1.0-624.0","0","0","82266","","null","","","null","69","NaN","","","","","","","","","","","","","","",""
"","S2","","html-keyboard-response","459","458758","0.0-1.0-625.0","0","0","82266","","null","","","null","69","","NaN","","","","","","","","","","","","","",""
"","response","","html-keyboard-response","460","459048","0.0-1.0-626.0-0.0","0","0","82266","","282","","","68","69","","","2","69","training","adjacent","CB","3","2","M.jpg","N.jpg","1","0","0","",""
"","feedback","","html-keyboard-response","461","460057","0.0-1.0-627.0-0.0","0","0","82266","","null","","","null","69","","","","","","","","","","","","","","","",""
"","time_out","","html-keyboard-response","462","462061","0.0-1.0-629.0-0.0","0","0","82266","","null","","","null","69","","","","","","","","","","","","","","","",""
"","ITI","","html-keyboard-response","463","463070","0.0-1.0-630.0","0","0","82266","","null","","","null","69","","","","","","","","","","","","","","","NaN",""
"","S1","","html-keyboard-response","464","463330","0.0-1.0-632.0","0","0","82266","","null","","","null","70","","","","","","","","","","","","","","","",""
"","ISI","","html-keyboard-response","465","463488","0.0-1.0-633.0","0","0","82266","","null","","","null","70","NaN","","","","","","","","","","","","","","",""
"","S2","","html-keyboard-response","466","463750","0.0-1.0-634.0","0","0","82266","","null","","","null","70","","NaN","","","","","","","","","","","","","",""
"","response","","html-keyboard-response","467","463987","0.0-1.0-635.0-0.0","0","0","82266","","228","","","75","70","","","2","70","training","adjacent","DC","4","3","R.jpg","M.jpg","0","0","1","",""
"","feedback","","html-keyboard-response","468","464999","0.0-1.0-636.0-0.0","0","0","82266","","null","","","null","70","","","","","","","","","","","","","","","",""
"","ITI","","html-keyboard-response","469","466010","0.0-1.0-639.0","0","0","82266","","null","","","null","70","","","","","","","","","","","","","","","NaN",""
"","S1","","html-keyboard-response","470","466270","0.0-1.0-641.0","0","0","82266","","null","","","null","71","","","","","","","","","","","","","","","",""
"","ISI","","html-keyboard-response","471","466429","0.0-1.0-642.0","0","0","82266","","null","","","null","71","NaN","","","","","","","","","","","","","","",""
"","S2","","html-keyboard-response","472","466690","0.0-1.0-643.0","0","0","82266","","null","","","null","71","","NaN","","","","","","","","","","","","","",""
"","response","","html-keyboard-response","473","466960","0.0-1.0-644.0-0.0","0","0","82266","","262","","","68","71","","","2","71","training","adjacent","BA","2","1","N.jpg","P.jpg","1","0","0","",""
"","feedback","","html-keyboard-response","474","467970","0.0-1.0-645.0-0.0","0","0","82266","","null","","","null","71","","","","","","","","","","","","","","","",""
"","time_out","","html-keyboard-response","475","469982","0.0-1.0-647.0-0.0","0","0","82266","","null","","","null","71","","","","","","","","","","","","","","","",""
"","ITI","","html-keyboard-response","476","470992","0.0-1.0-648.0","0","0","82266","","null","","","null","71","","","","","","","","","","","","","","","NaN",""
"","S1","","html-keyboard-response","477","471253","0.0-1.0-650.0","0","0","82266","","null","","","null","72","","","","","","","","","","","","","","","",""
"","ISI","","html-keyboard-response","478","471411","0.0-1.0-651.0","0","0","82266","","null","","","null","72","NaN","","","","","","","","","","","","","","",""
"","S2","","html-keyboard-response","479","471672","0.0-1.0-652.0","0","0","82266","","null","","","null","72","","NaN","","","","","","","","","","","","","",""
"","response","","html-keyboard-response","480","471942","0.0-1.0-653.0-0.0","0","0","82266","","262","","","75","72","","","2","72","training","adjacent","DC","4","3","R.jpg","M.jpg","0","0","1","",""
"","feedback","","html-keyboard-response","481","472953","0.0-1.0-654.0-0.0","0","0","82266","","null","","","null","72","","","","","","","","","","","","","","","",""
"","ITI","","html-keyboard-response","482","473962","0.0-1.0-657.0","0","0","82266","","null","","","null","72","","","","","","","","","","","","","","","NaN",""
"","S1","","html-keyboard-response","483","474224","0.0-1.0-659.0","0","0","82266","","null","","","null","73","","","","","","","","","","","","","","","",""
"","ISI","","html-keyboard-response","484","474383","0.0-1.0-660.0","0","0","82266","","null","","","null","73","NaN","","","","","","","","","","","","","","",""
"","S2","","html-keyboard-response","485","474644","0.0-1.0-661.0","0","0","82266","","null","","","null","73","","NaN","","","","","","","","","","","","","",""
"","response","","html-keyboard-response","486","474888","0.0-1.0-662.0-0.0","0","0","82266","","236","","","75","73","","","2","73","training","adjacent","BC","2","3","N.jpg","M.jpg","0","1","0","",""
"","feedback","","html-keyboard-response","487","475899","0.0-1.0-663.0-0.0","0","0","82266","","null","","","null","73","","","","","","","","","","","","","","","",""
"","time_out","","html-keyboard-response","488","477909","0.0-1.0-665.0-0.0","0","0","82266","","null","","","null","73","","","","","","","","","","","","","","","",""
"","ITI","","html-keyboard-response","489","478918","0.0-1.0-666.0","0","0","82266","","null","","","null","73","","","","","","","","","","","","","","","NaN",""
"","S1","","html-keyboard-response","490","479176","0.0-1.0-668.0","0","0","82266","","null","","","null","74","","","","","","","","","","","","","","","",""
"","ISI","","html-keyboard-response","491","479335","0.0-1.0-669.0","0","0","82266","","null","","","null","74","NaN","","","","","","","","","","","","","","",""
"","S2","","html-keyboard-response","492","479597","0.0-1.0-670.0","0","0","82266","","null","","","null","74","","NaN","","","","","","","","","","","","","",""
"","response","","html-keyboard-response","493","480002","0.0-1.0-671.0-0.0","0","0","82266","","396","","","75","74","","","2","74","training","adjacent","FE","6","5","L.jpg","Q.jpg","0","0","1","",""
"","feedback","","html-keyboard-response","494","481012","0.0-1.0-672.0-0.0","0","0","82266","","null","","","null","74","","","","","","","","","","","","","","","",""
"","ITI","","html-keyboard-response","495","482024","0.0-1.0-675.0","0","0","82266","","null","","","null","74","","","","","","","","","","","","","","","NaN",""
"","S1","","html-keyboard-response","496","482284","0.0-1.0-677.0","0","0","82266","","null","","","null","75","","","","","","","","","","","","","","","",""
"","ISI","","html-keyboard-response","497","482441","0.0-1.0-678.0","0","0","82266","","null","","","null","75","NaN","","","","","","","","","","","","","","",""
"","S2","","html-keyboard-response","498","482702","0.0-1.0-679.0","0","0","82266","","null","","","null","75","","NaN","","","","","","","","","","","","","",""
"","response","","html-keyboard-response","499","482871","0.0-1.0-680.0-0.0","0","0","82266","","162","","","68","75","","","2","75","training","adjacent","BC","2","3","N.jpg","M.jpg","1","1","1","",""
"","feedback","","html-keyboard-response","500","483883","0.0-1.0-681.0-0.0","0","0","82266","","null","","","null","75","","","","","","","","","","","","","","","",""
"","ITI","","html-keyboard-response","501","484901","0.0-1.0-684.0","0","0","82266","","null","","","null","75","","","","","","","","","","","","","","","NaN",""
"","S1","","html-keyboard-response","502","485161","0.0-1.0-686.0","0","0","82266","","null","","","null","76","","","","","","","","","","","","","","","",""
"","ISI","","html-keyboard-response","503","485319","0.0-1.0-687.0","0","0","82266","","null","","","null","76","NaN","","","","","","","","","","","","","","",""
"","S2","","html-keyboard-response","504","485583","0.0-1.0-688.0","0","0","82266","","null","","","null","76","","NaN","","","","","","","","","","","","","",""
"","response","","html-keyboard-response","505","485862","0.0-1.0-689.0-0.0","0","0","82266","","271","","","75","76","","","2","76","training","adjacent","DC","4","3","R.jpg","M.jpg","0","0","1","",""
"","feedback","","html-keyboard-response","506","486874","0.0-1.0-690.0-0.0","0","0","82266","","null","","","null","76","","","","","","","","","","","","","","","",""
"","ITI","","html-keyboard-response","507","487885","0.0-1.0-693.0","0","0","82266","","null","","","null","76","","","","","","","","","","","","","","","NaN",""
"","S1","","html-keyboard-response","508","488144","0.0-1.0-695.0","0","0","82266","","null","","","null","77","","","","","","","","","","","","","","","",""
"","ISI","","html-keyboard-response","509","488302","0.0-1.0-696.0","0","0","82266","","null","","","null","77","NaN","","","","","","","","","","","","","","",""
"","S2","","html-keyboard-response","510","488564","0.0-1.0-697.0","0","0","82266","","null","","","null","77","","NaN","","","","","","","","","","","","","",""
"","response","","html-keyboard-response","511","488804","0.0-1.0-698.0-0.0","0","0","82266","","232","","","68","77","","","2","77","training","adjacent","DE","4","5","R.jpg","Q.jpg","1","1","1","",""
"","feedback","","html-keyboard-response","512","489817","0.0-1.0-699.0-0.0","0","0","82266","","null","","","null","77","","","","","","","","","","","","","","","",""
"","ITI","","html-keyboard-response","513","490827","0.0-1.0-702.0","0","0","82266","","null","","","null","77","","","","","","","","","","","","","","","NaN",""
"","S1","","html-keyboard-response","514","491087","0.0-1.0-704.0","0","0","82266","","null","","","null","78","","","","","","","","","","","","","","","",""
"","ISI","","html-keyboard-response","515","491246","0.0-1.0-705.0","0","0","82266","","null","","","null","78","NaN","","","","","","","","","","","","","","",""
"","S2","","html-keyboard-response","516","491507","0.0-1.0-706.0","0","0","82266","","null","","","null","78","","NaN","","","","","","","","","","","","","",""
"","response","","html-keyboard-response","517","491767","0.0-1.0-707.0-0.0","0","0","82266","","253","","","75","78","","","2","78","training","adjacent","FG","6","7","L.jpg","O.jpg","0","1","0","",""
"","feedback","","html-keyboard-response","518","492778","0.0-1.0-708.0-0.0","0","0","82266","","null","","","null","78","","","","","","","","","","","","","","","",""
"","time_out","","html-keyboard-response","519","494790","0.0-1.0-710.0-0.0","0","0","82266","","null","","","null","78","","","","","","","","","","","","","","","",""
"","ITI","","html-keyboard-response","520","495800","0.0-1.0-711.0","0","0","82266","","null","","","null","78","","","","","","","","","","","","","","","NaN",""
"","S1","","html-keyboard-response","521","496064","0.0-1.0-713.0","0","0","82266","","null","","","null","79","","","","","","","","","","","","","","","",""
"","ISI","","html-keyboard-response","522","496223","0.0-1.0-714.0","0","0","82266","","null","","","null","79","NaN","","","","","","","","","","","","","","",""
"","S2","","html-keyboard-response","523","496484","0.0-1.0-715.0","0","0","82266","","null","","","null","79","","NaN","","","","","","","","","","","","","",""
"","response","","html-keyboard-response","524","496682","0.0-1.0-716.0-0.0","0","0","82266","","189","","","68","79","","","2","79","training","adjacent","DC","4","3","R.jpg","M.jpg","1","0","0","",""
"","feedback","","html-keyboard-response","525","497692","0.0-1.0-717.0-0.0","0","0","82266","","null","","","null","79","","","","","","","","","","","","","","","",""
"","time_out","","html-keyboard-response","526","499703","0.0-1.0-719.0-0.0","0","0","82266","","null","","","null","79","","","","","","","","","","","","","","","",""
"","ITI","","html-keyboard-response","527","500714","0.0-1.0-720.0","0","0","82266","","null","","","null","79","","","","","","","","","","","","","","","NaN",""
"","S1","","html-keyboard-response","528","500974","0.0-1.0-722.0","0","0","82266","","null","","","null","80","","","","","","","","","","","","","","","",""
"","ISI","","html-keyboard-response","529","501134","0.0-1.0-723.0","0","0","82266","","null","","","null","80","NaN","","","","","","","","","","","","","","",""
"","S2","","html-keyboard-response","530","501394","0.0-1.0-724.0","0","0","82266","","null","","","null","80","","NaN","","","","","","","","","","","","","",""
"","response","","html-keyboard-response","531","501871","0.0-1.0-725.0-0.0","0","0","82266","","469","","","75","80","","","2","80","training","adjacent","FG","6","7","L.jpg","O.jpg","0","1","0","",""
"","feedback","","html-keyboard-response","532","502883","0.0-1.0-726.0-0.0","0","0","82266","","null","","","null","80","","","","","","","","","","","","","","","",""
"","time_out","","html-keyboard-response","533","504893","0.0-1.0-728.0-0.0","0","0","82266","","null","","","null","80","","","","","","","","","","","","","","","",""
"","ITI","","html-keyboard-response","534","505903","0.0-1.0-729.0","0","0","82266","","null","","","null","80","","","","","","","","","","","","","","","NaN",""
"","S1","","html-keyboard-response","535","506162","0.0-1.0-731.0","0","0","82266","","null","","","null","81","","","","","","","","","","","","","","","",""
"","ISI","","html-keyboard-response","536","506320","0.0-1.0-732.0","0","0","82266","","null","","","null","81","NaN","","","","","","","","","","","","","","",""
"","S2","","html-keyboard-response","537","506346","0.0-1.0-733.0","0","0","82266","","19","","","75","81","","k","2","81","training","adjacent","FE","6","5","L.jpg","Q.jpg","0","0","1","",""
"","feedback","","html-keyboard-response","538","507359","0.0-1.0-735.0-0.0","0","0","82266","","null","","","null","81","","","","","","","","","","","","","","","",""
"","ITI","","html-keyboard-response","539","508371","0.0-1.0-738.0","0","0","82266","","null","","","null","81","","","","","","","","","","","","","","","NaN",""
"","S1","","html-keyboard-response","540","508631","0.0-1.0-740.0","0","0","82266","","null","","","null","82","","","","","","","","","","","","","","","",""
"","ISI","","html-keyboard-response","541","508790","0.0-1.0-741.0","0","0","82266","","null","","","null","82","NaN","","","","","","","","","","","","","","",""
"","S2","","html-keyboard-response","542","509050","0.0-1.0-742.0","0","0","82266","","null","","","null","82","","NaN","","","","","","","","","","","","","",""
"","response","","html-keyboard-response","543","509159","0.0-1.0-743.0-0.0","0","0","82266","","101","","","68","82","","","2","82","training","adjacent","FG","6","7","L.jpg","O.jpg","1","1","1","",""
"","feedback","","html-keyboard-response","544","510170","0.0-1.0-744.0-0.0","0","0","82266","","null","","","null","82","","","","","","","","","","","","","","","",""
"","ITI","","html-keyboard-response","545","511182","0.0-1.0-747.0","0","0","82266","","null","","","null","82","","","","","","","","","","","","","","","NaN",""
"","S1","","html-keyboard-response","546","511441","0.0-1.0-749.0","0","0","82266","","null","","","null","83","","","","","","","","","","","","","","","",""
"","ISI","","html-keyboard-response","547","511599","0.0-1.0-750.0","0","0","82266","","null","","","null","83","NaN","","","","","","","","","","","","","","",""
"","S2","","html-keyboard-response","548","511875","0.0-1.0-751.0","0","0","82266","","null","","","null","83","","NaN","","","","","","","","","","","","","",""
"","response","","html-keyboard-response","549","511900","0.0-1.0-752.0-0.0","0","0","82266","","17","","","75","83","","","2","83","training","adjacent","AB","1","2","P.jpg","N.jpg","0","1","0","",""
"","feedback","","html-keyboard-response","550","512912","0.0-1.0-753.0-0.0","0","0","82266","","null","","","null","83","","","","","","","","","","","","","","","",""
"","time_out","","html-keyboard-response","551","514922","0.0-1.0-755.0-0.0","0","0","82266","","null","","","null","83","","","","","","","","","","","","","","","",""
"","ITI","","html-keyboard-response","552","515932","0.0-1.0-756.0","0","0","82266","","null","","","null","83","","","","","","","","","","","","","","","NaN",""
"","S1","","html-keyboard-response","553","516192","0.0-1.0-758.0","0","0","82266","","null","","","null","84","","","","","","","","","","","","","","","",""
"","ISI","","html-keyboard-response","554","516362","0.0-1.0-759.0","0","0","82266","","103","","","68","84","d","","","","","","","","","","","","","","",""
"","S2","","html-keyboard-response","555","516622","0.0-1.0-760.0","0","0","82266","","null","","","null","84","","NaN","","","","","","","","","","","","","",""
"","response","","html-keyboard-response","556","516984","0.0-1.0-761.0-0.0","0","0","82266","","353","","","68","84","","","2","84","training","adjacent","CB","3","2","M.jpg","N.jpg","1","0","0","",""
"","feedback","","html-keyboard-response","557","517996","0.0-1.0-762.0-0.0","0","0","82266","","null","","","null","84","","","","","","","","","","","","","","","",""
"","time_out","","html-keyboard-response","558","520007","0.0-1.0-764.0-0.0","0","0","82266","","null","","","null","84","","","","","","","","","","","","","","","",""
"","ITI","","html-keyboard-response","559","521017","0.0-1.0-765.0","0","0","82266","","null","","","null","84","","","","","","","","","","","","","","","NaN",""
"","S1","","html-keyboard-response","560","521276","0.0-1.0-767.0","0","0","82266","","null","","","null","85","","","","","","","","","","","","","","","",""
"","ISI","","html-keyboard-response","561","521437","0.0-1.0-768.0","0","0","82266","","null","","","null","85","NaN","","","","","","","","","","","","","","",""
"","S2","","html-keyboard-response","562","521696","0.0-1.0-769.0","0","0","82266","","null","","","null","85","","NaN","","","","","","","","","","","","","",""
"","response","","html-keyboard-response","563","522031","0.0-1.0-770.0-0.0","0","0","82266","","327","","","75","85","","","2","85","training","adjacent","FE","6","5","L.jpg","Q.jpg","0","0","1","",""
"","feedback","","html-keyboard-response","564","523039","0.0-1.0-771.0-0.0","0","0","82266","","null","","","null","85","","","","","","","","","","","","","","","",""
"","ITI","","html-keyboard-response","565","524050","0.0-1.0-774.0","0","0","82266","","null","","","null","85","","","","","","","","","","","","","","","NaN",""
"","S1","","html-keyboard-response","566","524310","0.0-1.0-776.0","0","0","82266","","null","","","null","86","","","","","","","","","","","","","","","",""
"","ISI","","html-keyboard-response","567","524468","0.0-1.0-777.0","0","0","82266","","null","","","null","86","NaN","","","","","","","","","","","","","","",""
"","S2","","html-keyboard-response","568","524729","0.0-1.0-778.0","0","0","82266","","null","","","null","86","","NaN","","","","","","","","","","","","","",""
"","response","","html-keyboard-response","569","525573","0.0-1.0-779.0-0.0","0","0","82266","","836","","","68","86","","","2","86","training","adjacent","ED","5","4","Q.jpg","R.jpg","1","0","0","",""
"","feedback","","html-keyboard-response","570","526585","0.0-1.0-780.0-0.0","0","0","82266","","null","","","null","86","","","","","","","","","","","","","","","",""
"","time_out","","html-keyboard-response","571","528597","0.0-1.0-782.0-0.0","0","0","82266","","null","","","null","86","","","","","","","","","","","","","","","",""
"","ITI","","html-keyboard-response","572","529612","0.0-1.0-783.0","0","0","82266","","null","","","null","86","","","","","","","","","","","","","","","NaN",""
"","S1","","html-keyboard-response","573","529872","0.0-1.0-785.0","0","0","82266","","null","","","null","87","","","","","","","","","","","","","","","",""
"","ISI","","html-keyboard-response","574","530032","0.0-1.0-786.0","0","0","82266","","null","","","null","87","NaN","","","","","","","","","","","","","","",""
"","S2","","html-keyboard-response","575","530291","0.0-1.0-787.0","0","0","82266","","null","","","null","87","","NaN","","","","","","","","","","","","","",""
"","response","","html-keyboard-response","576","530736","0.0-1.0-788.0-0.0","0","0","82266","","437","","","75","87","","","2","87","training","adjacent","CB","3","2","M.jpg","N.jpg","0","0","1","",""
"","feedback","","html-keyboard-response","577","531747","0.0-1.0-789.0-0.0","0","0","82266","","null","","","null","87","","","","","","","","","","","","","","","",""
"","ITI","","html-keyboard-response","578","532760","0.0-1.0-792.0","0","0","82266","","null","","","null","87","","","","","","","","","","","","","","","NaN",""
"","S1","","html-keyboard-response","579","533020","0.0-1.0-794.0","0","0","82266","","null","","","null","88","","","","","","","","","","","","","","","",""
"","ISI","","html-keyboard-response","580","533178","0.0-1.0-795.0","0","0","82266","","null","","","null","88","NaN","","","","","","","","","","","","","","",""
"","S2","","html-keyboard-response","581","533438","0.0-1.0-796.0","0","0","82266","","null","","","null","88","","NaN","","","","","","","","","","","","","",""
"","response","","html-keyboard-response","582","533949","0.0-1.0-797.0-0.0","0","0","82266","","501","","","75","88","","","2","88","training","adjacent","AB","1","2","P.jpg","N.jpg","0","1","0","",""
