"success","ttype","start_time","trial_type","trial_index","time_elapsed","internal_node_id","warning","missed_checkup","PID","view_history","rt","responses","repeat_instructions","key_press","index","keypress_isi","keypress_S2","block","trial_num","phase","group_type","pair_type","S1_stim","S2_stim","S1_img","S2_img","S1_chosen","S1_higher","accuracy","keypress_iti","total_bonus_tally"
"true","full_screen","d03032023hr2120","fullscreen","0","32271","0.0-0.0","0","0","30037","","","","","","","","","","","","","","","","","","","","","",""
"","instructions","","instructions","1","108770","0.0-1.0-0.0-0.0","0","0","30037","[{""page_index"":0,""viewing_time"":18622},{""page_index"":1,""viewing_time"":39483},{""page_index"":2,""viewing_time"":13025},{""page_index"":3,""viewing_time"":5365}]","76496","","","","","","","","","","","","","","","","","","","",""
"","comprehension_check","","survey-multi-choice","2","149929","0.0-1.0-0.0-1.0","0","0","30037","","41151","{""Q0"":""True"",""Q1"":""D"",""Q2"":""Only while the second image is shown"",""Q3"":""Green mark"",""Q4"":""either D or K""}","1","","","","","","","","","","","","","","","","","",""
"","missed_instruction_checkup","","html-keyboard-response","3","152528","0.0-1.0-0.0-2.0-0.0","0","1","30037","","2584","","","32","","","","","","","","","","","","","","","","",""
"","instructions","","instructions","4","167027","0.0-1.0-0.1-0.1","0","0","30037","[{""page_index"":0,""viewing_time"":2267},{""page_index"":1,""viewing_time"":6730},{""page_index"":2,""viewing_time"":3543},{""page_index"":3,""viewing_time"":1957}]","14497","","","","","","","","","","","","","","","","","","","",""
"","comprehension_check","","survey-multi-choice","5","233039","0.0-1.0-0.1-1.1","0","0","30037","","66005","{""Q0"":""True"",""Q1"":""K"",""Q2"":""Once the second image appears and while the screen 'MAKE A CHOICE' is shown"",""Q3"":""Green mark"",""Q4"":""either D or K""}","0","","","","","","","","","","","","","","","","","",""
"","start_exp","","html-keyboard-response","6","234985","0.0-1.0-1.0","0","0","30037","","1942","","","32","","","","","","","","","","","","","","","","",""
"","S1","","html-keyboard-response","7","235246","0.0-1.0-2.0","0","0","30037","","null","","","null","0","","","","","","","","","","","","","","","",""
"","ISI","","html-keyboard-response","8","235750","0.0-1.0-3.0","0","0","30037","","null","","","null","0","NaN","","","","","","","","","","","","","","",""
"","S2","","html-keyboard-response","9","236006","0.0-1.0-4.0","0","0","30037","","null","","","null","0","","NaN","","","","","","","","","","","","","",""
"","response","","html-keyboard-response","10","237766","0.0-1.0-5.0-0.0","0","0","30037","","null","","","null","0","","","1","0","training","adjacent","AB","1","2","Q.jpg","L.jpg","NaN","1","0","",""
"","too_slow_prompt","","html-keyboard-response","11","238774","0.0-1.0-7.0-0.0","1","0","30037","","null","","","null","","","","","","","","","","","","","","","","",""
"","time_out","","html-keyboard-response","12","240782","0.0-1.0-8.0-0.0","0","0","30037","","null","","","null","0","","","","","","","","","","","","","","","",""
"","ITI","","html-keyboard-response","13","241790","0.0-1.0-9.0","0","0","30037","","null","","","null","0","","","","","","","","","","","","","","","NaN",""
"","S1","","html-keyboard-response","14","242047","0.0-1.0-11.0","0","0","30037","","null","","","null","1","","","","","","","","","","","","","","","",""
"","ISI","","html-keyboard-response","15","242550","0.0-1.0-12.0","0","0","30037","","null","","","null","1","NaN","","","","","","","","","","","","","","",""
"","S2","","html-keyboard-response","16","242674","0.0-1.0-13.0","0","0","30037","","122","","","75","1","","k","1","1","training","adjacent","BA","2","1","L.jpg","Q.jpg","1","0","0","",""
"","feedback","","html-keyboard-response","17","243687","0.0-1.0-15.0-0.0","0","0","30037","","null","","","null","1","","","","","","","","","","","","","","","",""
"","time_out","","html-keyboard-response","18","245799","0.0-1.0-17.0-0.0","0","0","30037","","null","","","null","1","","","","","","","","","","","","","","","",""
"","ITI","","html-keyboard-response","19","246806","0.0-1.0-18.0","0","0","30037","","null","","","null","1","","","","","","","","","","","","","","","NaN",""
"","S1","","html-keyboard-response","20","247062","0.0-1.0-20.0","0","0","30037","","null","","","null","2","","","","","","","","","","","","","","","",""
"","ISI","","html-keyboard-response","21","247566","0.0-1.0-21.0","0","0","30037","","null","","","null","2","NaN","","","","","","","","","","","","","","",""
"","S2","","html-keyboard-response","22","247823","0.0-1.0-22.0","0","0","30037","","null","","","null","2","","NaN","","","","","","","","","","","","","",""
"","response","","html-keyboard-response","23","248695","0.0-1.0-23.0-0.0","0","0","30037","","869","","","68","2","","","1","2","training","adjacent","CD","3","4","P.jpg","R.jpg","0","1","0","",""
"","feedback","","html-keyboard-response","24","249703","0.0-1.0-24.0-0.0","0","0","30037","","null","","","null","2","","","","","","","","","","","","","","","",""
"","time_out","","html-keyboard-response","25","251711","0.0-1.0-26.0-0.0","0","0","30037","","null","","","null","2","","","","","","","","","","","","","","","",""
"","ITI","","html-keyboard-response","26","252718","0.0-1.0-27.0","0","0","30037","","null","","","null","2","","","","","","","","","","","","","","","NaN",""
"","S1","","html-keyboard-response","27","252974","0.0-1.0-29.0","0","0","30037","","null","","","null","3","","","","","","","","","","","","","","","",""
"","ISI","","html-keyboard-response","28","253479","0.0-1.0-30.0","0","0","30037","","null","","","null","3","NaN","","","","","","","","","","","","","","",""
"","S2","","html-keyboard-response","29","253734","0.0-1.0-31.0","0","0","30037","","null","","","null","3","","NaN","","","","","","","","","","","","","",""
"","response","","html-keyboard-response","30","254525","0.0-1.0-32.0-0.0","0","0","30037","","788","","","75","3","","","1","3","training","adjacent","BA","2","1","L.jpg","Q.jpg","1","0","0","",""
"","feedback","","html-keyboard-response","31","255535","0.0-1.0-33.0-0.0","0","0","30037","","null","","","null","3","","","","","","","","","","","","","","","",""
"","time_out","","html-keyboard-response","32","257543","0.0-1.0-35.0-0.0","0","0","30037","","null","","","null","3","","","","","","","","","","","","","","","",""
"","ITI","","html-keyboard-response","33","258550","0.0-1.0-36.0","0","0","30037","","null","","","null","3","","","","","","","","","","","","","","","NaN",""
"","S1","","html-keyboard-response","34","258809","0.0-1.0-38.0","0","0","30037","","null","","","null","4","","","","","","","","","","","","","","","",""
"","ISI","","html-keyboard-response","35","260222","0.0-1.0-39.0","0","0","30037","","null","","","null","4","NaN","","","","","","","","","","","","","","",""
"","S2","","html-keyboard-response","36","260478","0.0-1.0-40.0","0","0","30037","","null","","","null","4","","NaN","","","","","","","","","","","","","",""
"","response","","html-keyboard-response","37","261404","0.0-1.0-41.0-0.0","0","0","30037","","924","","","68","4","","","1","4","training","adjacent","EF","5","6","N.jpg","M.jpg","0","1","0","",""
"","feedback","","html-keyboard-response","38","262415","0.0-1.0-42.0-0.0","0","0","30037","","null","","","null","4","","","","","","","","","","","","","","","",""
"","time_out","","html-keyboard-response","39","264418","0.0-1.0-44.0-0.0","0","0","30037","","null","","","null","4","","","","","","","","","","","","","","","",""
"","ITI","","html-keyboard-response","40","265422","0.0-1.0-45.0","0","0","30037","","null","","","null","4","","","","","","","","","","","","","","","NaN",""
"","S1","","html-keyboard-response","41","265679","0.0-1.0-47.0","0","0","30037","","null","","","null","5","","","","","","","","","","","","","","","",""
"","ISI","","html-keyboard-response","42","266182","0.0-1.0-48.0","0","0","30037","","null","","","null","5","NaN","","","","","","","","","","","","","","",""
"","S2","","html-keyboard-response","43","266680","0.0-1.0-49.0","0","0","30037","","null","","","null","5","","NaN","","","","","","","","","","","","","",""
"","response","","html-keyboard-response","44","267383","0.0-1.0-50.0-0.0","0","0","30037","","700","","","68","5","","","1","5","training","adjacent","ED","5","4","N.jpg","R.jpg","0","0","1","",""
"","feedback","","html-keyboard-response","45","268428","0.0-1.0-51.0-0.0","0","0","30037","","null","","","null","5","","","","","","","","","","","","","","","",""
"","ITI","","html-keyboard-response","46","269554","0.0-1.0-54.0","0","0","30037","","null","","","null","5","","","","","","","","","","","","","","","NaN",""
"","S1","","html-keyboard-response","47","269832","0.0-1.0-56.0","0","0","30037","","null","","","null","6","","","","","","","","","","","","","","","",""
"","ISI","","html-keyboard-response","48","270681","0.0-1.0-57.0","0","0","30037","","null","","","null","6","NaN","","","","","","","","","","","","","","",""
"","S2","","html-keyboard-response","49","271499","0.0-1.0-58.0","0","0","30037","","null","","","null","6","","NaN","","","","","","","","","","","","","",""
"","response","","html-keyboard-response","50","272230","0.0-1.0-59.0-0.0","0","0","30037","","730","","","68","6","","","1","6","training","adjacent","CD","3","4","P.jpg","R.jpg","0","1","0","",""
"","feedback","","html-keyboard-response","51","273392","0.0-1.0-60.0-0.0","0","0","30037","","null","","","null","6","","","","","","","","","","","","","","","",""
"","time_out","","html-keyboard-response","52","275401","0.0-1.0-62.0-0.0","0","0","30037","","null","","","null","6","","","","","","","","","","","","","","","",""
"","ITI","","html-keyboard-response","53","276407","0.0-1.0-63.0","0","0","30037","","null","","","null","6","","","","","","","","","","","","","","","NaN",""
"","S1","","html-keyboard-response","54","276662","0.0-1.0-65.0","0","0","30037","","null","","","null","7","","","","","","","","","","","","","","","",""
"","ISI","","html-keyboard-response","55","277167","0.0-1.0-66.0","0","0","30037","","null","","","null","7","NaN","","","","","","","","","","","","","","",""
"","S2","","html-keyboard-response","56","277422","0.0-1.0-67.0","0","0","30037","","null","","","null","7","","NaN","","","","","","","","","","","","","",""
"","response","","html-keyboard-response","57","278899","0.0-1.0-68.0-0.0","0","0","30037","","1474","","","75","7","","","1","7","training","adjacent","DC","4","3","R.jpg","P.jpg","1","0","0","",""
"","feedback","","html-keyboard-response","58","279902","0.0-1.0-69.0-0.0","0","0","30037","","null","","","null","7","","","","","","","","","","","","","","","",""
"","time_out","","html-keyboard-response","59","281933","0.0-1.0-71.0-0.0","0","0","30037","","null","","","null","7","","","","","","","","","","","","","","","",""
"","ITI","","html-keyboard-response","60","282942","0.0-1.0-72.0","0","0","30037","","null","","","null","7","","","","","","","","","","","","","","","NaN",""
"","S1","","html-keyboard-response","61","283199","0.0-1.0-74.0","0","0","30037","","null","","","null","8","","","","","","","","","","","","","","","",""
"","ISI","","html-keyboard-response","62","283702","0.0-1.0-75.0","0","0","30037","","null","","","null","8","NaN","","","","","","","","","","","","","","",""
"","S2","","html-keyboard-response","63","283960","0.0-1.0-76.0","0","0","30037","","null","","","null","8","","NaN","","","","","","","","","","","","","",""
"","response","","html-keyboard-response","64","284973","0.0-1.0-77.0-0.0","0","0","30037","","1011","","","68","8","","","1","8","training","adjacent","DC","4","3","R.jpg","P.jpg","0","0","1","",""
"","feedback","","html-keyboard-response","65","285982","0.0-1.0-78.0-0.0","0","0","30037","","null","","","null","8","","","","","","","","","","","","","","","",""
"","ITI","","html-keyboard-response","66","287120","0.0-1.0-81.0","0","0","30037","","null","","","null","8","","","","","","","","","","","","","","","NaN",""
"","S1","","html-keyboard-response","67","287374","0.0-1.0-83.0","0","0","30037","","null","","","null","9","","","","","","","","","","","","","","","",""
"","ISI","","html-keyboard-response","68","287922","0.0-1.0-84.0","0","0","30037","","null","","","null","9","NaN","","","","","","","","","","","","","","",""
"","S2","","html-keyboard-response","69","288541","0.0-1.0-85.0","0","0","30037","","null","","","null","9","","NaN","","","","","","","","","","","","","",""
"","response","","html-keyboard-response","70","290308","0.0-1.0-86.0-0.0","0","0","30037","","null","","","null","9","","","1","9","training","adjacent","GF","7","6","O.jpg","M.jpg","NaN","0","0","",""
"","too_slow_prompt","","html-keyboard-response","71","291318","0.0-1.0-88.0-0.0","1","0","30037","","null","","","null","","","","","","","","","","","","","","","","",""
"","time_out","","html-keyboard-response","72","293326","0.0-1.0-89.0-0.0","0","0","30037","","null","","","null","9","","","","","","","","","","","","","","","",""
"","ITI","","html-keyboard-response","73","294334","0.0-1.0-90.0","0","0","30037","","null","","","null","9","","","","","","","","","","","","","","","NaN",""
"","S1","","html-keyboard-response","74","294590","0.0-1.0-92.0","0","0","30037","","null","","","null","10","","","","","","","","","","","","","","","",""
"","ISI","","html-keyboard-response","75","295094","0.0-1.0-93.0","0","0","30037","","null","","","null","10","NaN","","","","","","","","","","","","","","",""
"","S2","","html-keyboard-response","76","295351","0.0-1.0-94.0","0","0","30037","","null","","","null","10","","NaN","","","","","","","","","","","","","",""
"","response","","html-keyboard-response","77","296563","0.0-1.0-95.0-0.0","0","0","30037","","1210","","","75","10","","","1","10","training","adjacent","FG","6","7","M.jpg","O.jpg","1","1","1","",""
"","feedback","","html-keyboard-response","78","297566","0.0-1.0-96.0-0.0","0","0","30037","","null","","","null","10","","","","","","","","","","","","","","","",""
"","ITI","","html-keyboard-response","79","298574","0.0-1.0-99.0","0","0","30037","","null","","","null","10","","","","","","","","","","","","","","","NaN",""
"","S1","","html-keyboard-response","80","298990","0.0-1.0-101.0","0","0","30037","","null","","","null","11","","","","","","","","","","","","","","","",""
"","ISI","","html-keyboard-response","81","299607","0.0-1.0-102.0","0","0","30037","","null","","","null","11","NaN","","","","","","","","","","","","","","",""
"","S2","","html-keyboard-response","82","299864","0.0-1.0-103.0","0","0","30037","","null","","","null","11","","NaN","","","","","","","","","","","","","",""
"","response","","html-keyboard-response","83","301033","0.0-1.0-104.0-0.0","0","0","30037","","1167","","","75","11","","","1","11","training","adjacent","EF","5","6","N.jpg","M.jpg","1","1","1","",""
"","feedback","","html-keyboard-response","84","302038","0.0-1.0-105.0-0.0","0","0","30037","","null","","","null","11","","","","","","","","","","","","","","","",""
"","ITI","","html-keyboard-response","85","303047","0.0-1.0-108.0","0","0","30037","","null","","","null","11","","","","","","","","","","","","","","","NaN",""
"","S1","","html-keyboard-response","86","303302","0.0-1.0-110.0","0","0","30037","","null","","","null","12","","","","","","","","","","","","","","","",""
"","ISI","","html-keyboard-response","87","303807","0.0-1.0-111.0","0","0","30037","","null","","","null","12","NaN","","","","","","","","","","","","","","",""
"","S2","","html-keyboard-response","88","304126","0.0-1.0-112.0","0","0","30037","","null","","","null","12","","NaN","","","","","","","","","","","","","",""
"","response","","html-keyboard-response","89","304642","0.0-1.0-113.0-0.0","0","0","30037","","515","","","68","12","","","1","12","training","adjacent","FE","6","5","M.jpg","N.jpg","0","0","1","",""
"","feedback","","html-keyboard-response","90","305646","0.0-1.0-114.0-0.0","0","0","30037","","null","","","null","12","","","","","","","","","","","","","","","",""
"","ITI","","html-keyboard-response","91","306654","0.0-1.0-117.0","0","0","30037","","null","","","null","12","","","","","","","","","","","","","","","NaN",""
"","S1","","html-keyboard-response","92","306911","0.0-1.0-119.0","0","0","30037","","null","","","null","13","","","","","","","","","","","","","","","",""
"","ISI","","html-keyboard-response","93","307414","0.0-1.0-120.0","0","0","30037","","null","","","null","13","NaN","","","","","","","","","","","","","","",""
"","S2","","html-keyboard-response","94","307670","0.0-1.0-121.0","0","0","30037","","null","","","null","13","","NaN","","","","","","","","","","","","","",""
"","response","","html-keyboard-response","95","308343","0.0-1.0-122.0-0.0","0","0","30037","","670","","","68","13","","","1","13","training","adjacent","CB","3","2","P.jpg","L.jpg","0","0","1","",""
"","feedback","","html-keyboard-response","96","309350","0.0-1.0-123.0-0.0","0","0","30037","","null","","","null","13","","","","","","","","","","","","","","","",""
"","ITI","","html-keyboard-response","97","310644","0.0-1.0-126.0","0","0","30037","","null","","","null","13","","","","","","","","","","","","","","","NaN",""
"","S1","","html-keyboard-response","98","310903","0.0-1.0-128.0","0","0","30037","","null","","","null","14","","","","","","","","","","","","","","","",""
"","ISI","","html-keyboard-response","99","311620","0.0-1.0-129.0","0","0","30037","","null","","","null","14","NaN","","","","","","","","","","","","","","",""
"","S2","","html-keyboard-response","100","311879","0.0-1.0-130.0","0","0","30037","","null","","","null","14","","NaN","","","","","","","","","","","","","",""
"","response","","html-keyboard-response","101","312842","0.0-1.0-131.0-0.0","0","0","30037","","961","","","68","14","","","1","14","training","adjacent","ED","5","4","N.jpg","R.jpg","0","0","1","",""
"","feedback","","html-keyboard-response","102","313847","0.0-1.0-132.0-0.0","0","0","30037","","null","","","null","14","","","","","","","","","","","","","","","",""
"","ITI","","html-keyboard-response","103","314855","0.0-1.0-135.0","0","0","30037","","null","","","null","14","","","","","","","","","","","","","","","NaN",""
"","S1","","html-keyboard-response","104","315110","0.0-1.0-137.0","0","0","30037","","null","","","null","15","","","","","","","","","","","","","","","",""
"","ISI","","html-keyboard-response","105","315614","0.0-1.0-138.0","0","0","30037","","null","","","null","15","NaN","","","","","","","","","","","","","","",""
"","S2","","html-keyboard-response","106","315871","0.0-1.0-139.0","0","0","30037","","null","","","null","15","","NaN","","","","","","","","","","","","","",""
"","response","","html-keyboard-response","107","316332","0.0-1.0-140.0-0.0","0","0","30037","","459","","","75","15","","","1","15","training","adjacent","BC","2","3","L.jpg","P.jpg","1","1","1","",""
"","feedback","","html-keyboard-response","108","317342","0.0-1.0-141.0-0.0","0","0","30037","","null","","","null","15","","","","","","","","","","","","","","","",""
"","ITI","","html-keyboard-response","109","318350","0.0-1.0-144.0","0","0","30037","","null","","","null","15","","","","","","","","","","","","","","","NaN",""
"","S1","","html-keyboard-response","110","318607","0.0-1.0-146.0","0","0","30037","","null","","","null","16","","","","","","","","","","","","","","","",""
"","ISI","","html-keyboard-response","111","319111","0.0-1.0-147.0","0","0","30037","","null","","","null","16","NaN","","","","","","","","","","","","","","",""
"","S2","","html-keyboard-response","112","319367","0.0-1.0-148.0","0","0","30037","","null","","","null","16","","NaN","","","","","","","","","","","","","",""
"","response","","html-keyboard-response","113","319948","0.0-1.0-149.0-0.0","0","0","30037","","577","","","75","16","","","1","16","training","adjacent","FE","6","5","M.jpg","N.jpg","1","0","0","",""
"","feedback","","html-keyboard-response","114","320961","0.0-1.0-150.0-0.0","0","0","30037","","null","","","null","16","","","","","","","","","","","","","","","",""
"","time_out","","html-keyboard-response","115","322966","0.0-1.0-152.0-0.0","0","0","30037","","null","","","null","16","","","","","","","","","","","","","","","",""
"","ITI","","html-keyboard-response","116","323974","0.0-1.0-153.0","0","0","30037","","null","","","null","16","","","","","","","","","","","","","","","NaN",""
"","S1","","html-keyboard-response","117","324232","0.0-1.0-155.0","0","0","30037","","null","","","null","17","","","","","","","","","","","","","","","",""
"","ISI","","html-keyboard-response","118","324743","0.0-1.0-156.0","0","0","30037","","null","","","null","17","NaN","","","","","","","","","","","","","","",""
"","S2","","html-keyboard-response","119","324998","0.0-1.0-157.0","0","0","30037","","null","","","null","17","","NaN","","","","","","","","","","","","","",""
"","response","","html-keyboard-response","120","325892","0.0-1.0-158.0-0.0","0","0","30037","","892","","","68","17","","","1","17","training","adjacent","FG","6","7","M.jpg","O.jpg","0","1","0","",""
"","feedback","","html-keyboard-response","121","326902","0.0-1.0-159.0-0.0","0","0","30037","","null","","","null","17","","","","","","","","","","","","","","","",""
"","time_out","","html-keyboard-response","122","328910","0.0-1.0-161.0-0.0","0","0","30037","","null","","","null","17","","","","","","","","","","","","","","","",""
"","ITI","","html-keyboard-response","123","329919","0.0-1.0-162.0","0","0","30037","","null","","","null","17","","","","","","","","","","","","","","","NaN",""
"","S1","","html-keyboard-response","124","330175","0.0-1.0-164.0","0","0","30037","","null","","","null","18","","","","","","","","","","","","","","","",""
"","ISI","","html-keyboard-response","125","330678","0.0-1.0-165.0","0","0","30037","","null","","","null","18","NaN","","","","","","","","","","","","","","",""
"","S2","","html-keyboard-response","126","330934","0.0-1.0-166.0","0","0","30037","","null","","","null","18","","NaN","","","","","","","","","","","","","",""
"","response","","html-keyboard-response","127","331662","0.0-1.0-167.0-0.0","0","0","30037","","726","","","68","18","","","1","18","training","adjacent","DC","4","3","R.jpg","P.jpg","0","0","1","",""
"","feedback","","html-keyboard-response","128","332839","0.0-1.0-168.0-0.0","0","0","30037","","null","","","null","18","","","","","","","","","","","","","","","",""
"","ITI","","html-keyboard-response","129","333846","0.0-1.0-171.0","0","0","30037","","null","","","null","18","","","","","","","","","","","","","","","NaN",""
"","S1","","html-keyboard-response","130","334103","0.0-1.0-173.0","0","0","30037","","null","","","null","19","","","","","","","","","","","","","","","",""
"","ISI","","html-keyboard-response","131","334643","0.0-1.0-174.0","0","0","30037","","null","","","null","19","NaN","","","","","","","","","","","","","","",""
"","S2","","html-keyboard-response","132","334903","0.0-1.0-175.0","0","0","30037","","null","","","null","19","","NaN","","","","","","","","","","","","","",""
"","response","","html-keyboard-response","133","335875","0.0-1.0-176.0-0.0","0","0","30037","","969","","","68","19","","","1","19","training","adjacent","GF","7","6","O.jpg","M.jpg","0","0","1","",""
"","feedback","","html-keyboard-response","134","336879","0.0-1.0-177.0-0.0","0","0","30037","","null","","","null","19","","","","","","","","","","","","","","","",""
"","ITI","","html-keyboard-response","135","337888","0.0-1.0-180.0","0","0","30037","","null","","","null","19","","","","","","","","","","","","","","","NaN",""
"","S1","","html-keyboard-response","136","338143","0.0-1.0-182.0","0","0","30037","","null","","","null","20","","","","","","","","","","","","","","","",""
"","ISI","","html-keyboard-response","137","338646","0.0-1.0-183.0","0","0","30037","","null","","","null","20","NaN","","","","","","","","","","","","","","",""
"","S2","","html-keyboard-response","138","338903","0.0-1.0-184.0","0","0","30037","","null","","","null","20","","NaN","","","","","","","","","","","","","",""
"","response","","html-keyboard-response","139","339402","0.0-1.0-185.0-0.0","0","0","30037","","496","","","75","20","","","1","20","training","adjacent","EF","5","6","N.jpg","M.jpg","1","1","1","",""
"","feedback","","html-keyboard-response","140","340406","0.0-1.0-186.0-0.0","0","0","30037","","null","","","null","20","","","","","","","","","","","","","","","",""
"","ITI","","html-keyboard-response","141","341414","0.0-1.0-189.0","0","0","30037","","null","","","null","20","","","","","","","","","","","","","","","NaN",""
"","S1","","html-keyboard-response","142","341670","0.0-1.0-191.0","0","0","30037","","null","","","null","21","","","","","","","","","","","","","","","",""
"","ISI","","html-keyboard-response","143","342174","0.0-1.0-192.0","0","0","30037","","null","","","null","21","NaN","","","","","","","","","","","","","","",""
"","S2","","html-keyboard-response","144","342431","0.0-1.0-193.0","0","0","30037","","null","","","null","21","","NaN","","","","","","","","","","","","","",""
"","response","","html-keyboard-response","145","343172","0.0-1.0-194.0-0.0","0","0","30037","","738","","","75","21","","","1","21","training","adjacent","AB","1","2","Q.jpg","L.jpg","1","1","1","",""
"","feedback","","html-keyboard-response","146","344182","0.0-1.0-195.0-0.0","0","0","30037","","null","","","null","21","","","","","","","","","","","","","","","",""
"","ITI","","html-keyboard-response","147","345190","0.0-1.0-198.0","0","0","30037","","null","","","null","21","","","","","","","","","","","","","","","NaN",""
"","S1","","html-keyboard-response","148","345447","0.0-1.0-200.0","0","0","30037","","null","","","null","22","","","","","","","","","","","","","","","",""
"","ISI","","html-keyboard-response","149","346039","0.0-1.0-201.0","0","0","30037","","null","","","null","22","NaN","","","","","","","","","","","","","","",""
"","S2","","html-keyboard-response","150","346833","0.0-1.0-202.0","0","0","30037","","null","","","null","22","","NaN","","","","","","","","","","","","","",""
"","response","","html-keyboard-response","151","347341","0.0-1.0-203.0-0.0","0","0","30037","","506","","","68","22","","","1","22","training","adjacent","FG","6","7","M.jpg","O.jpg","0","1","0","",""
"","feedback","","html-keyboard-response","152","348351","0.0-1.0-204.0-0.0","0","0","30037","","null","","","null","22","","","","","","","","","","","","","","","",""
"","time_out","","html-keyboard-response","153","350359","0.0-1.0-206.0-0.0","0","0","30037","","null","","","null","22","","","","","","","","","","","","","","","",""
"","ITI","","html-keyboard-response","154","351398","0.0-1.0-207.0","0","0","30037","","null","","","null","22","","","","","","","","","","","","","","","NaN",""
"","S1","","html-keyboard-response","155","351654","0.0-1.0-209.0","0","0","30037","","null","","","null","23","","","","","","","","","","","","","","","",""
"","ISI","","html-keyboard-response","156","352158","0.0-1.0-210.0","0","0","30037","","null","","","null","23","NaN","","","","","","","","","","","","","","",""
"","S2","","html-keyboard-response","157","352414","0.0-1.0-211.0","0","0","30037","","null","","","null","23","","NaN","","","","","","","","","","","","","",""
"","response","","html-keyboard-response","158","353011","0.0-1.0-212.0-0.0","0","0","30037","","595","","","75","23","","","1","23","training","adjacent","BC","2","3","L.jpg","P.jpg","1","1","1","",""
"","feedback","","html-keyboard-response","159","354022","0.0-1.0-213.0-0.0","0","0","30037","","null","","","null","23","","","","","","","","","","","","","","","",""
"","ITI","","html-keyboard-response","160","355030","0.0-1.0-216.0","0","0","30037","","null","","","null","23","","","","","","","","","","","","","","","NaN",""
"","S1","","html-keyboard-response","161","355285","0.0-1.0-218.0","0","0","30037","","null","","","null","24","","","","","","","","","","","","","","","",""
"","ISI","","html-keyboard-response","162","355790","0.0-1.0-219.0","0","0","30037","","null","","","null","24","NaN","","","","","","","","","","","","","","",""
"","S2","","html-keyboard-response","163","356046","0.0-1.0-220.0","0","0","30037","","null","","","null","24","","NaN","","","","","","","","","","","","","",""
"","response","","html-keyboard-response","164","356351","0.0-1.0-221.0-0.0","0","0","30037","","303","","","68","24","","","1","24","training","adjacent","GF","7","6","O.jpg","M.jpg","0","0","1","",""
"","feedback","","html-keyboard-response","165","357811","0.0-1.0-222.0-0.0","0","0","30037","","null","","","null","24","","","","","","","","","","","","","","","",""
"","ITI","","html-keyboard-response","166","358815","0.0-1.0-225.0","0","0","30037","","null","","","null","24","","","","","","","","","","","","","","","NaN",""
"","S1","","html-keyboard-response","167","359070","0.0-1.0-227.0","0","0","30037","","null","","","null","25","","","","","","","","","","","","","","","",""
"","ISI","","html-keyboard-response","168","359574","0.0-1.0-228.0","0","0","30037","","null","","","null","25","NaN","","","","","","","","","","","","","","",""
"","S2","","html-keyboard-response","169","359830","0.0-1.0-229.0","0","0","30037","","null","","","null","25","","NaN","","","","","","","","","","","","","",""
"","response","","html-keyboard-response","170","360270","0.0-1.0-230.0-0.0","0","0","30037","","439","","","68","25","","","1","25","training","adjacent","ED","5","4","N.jpg","R.jpg","0","0","1","",""
"","feedback","","html-keyboard-response","171","361278","0.0-1.0-231.0-0.0","0","0","30037","","null","","","null","25","","","","","","","","","","","","","","","",""
"","ITI","","html-keyboard-response","172","362286","0.0-1.0-234.0","0","0","30037","","null","","","null","25","","","","","","","","","","","","","","","NaN",""
"","S1","","html-keyboard-response","173","362543","0.0-1.0-236.0","0","0","30037","","null","","","null","26","","","","","","","","","","","","","","","",""
"","ISI","","html-keyboard-response","174","363047","0.0-1.0-237.0","0","0","30037","","null","","","null","26","NaN","","","","","","","","","","","","","","",""
"","S2","","html-keyboard-response","175","363302","0.0-1.0-238.0","0","0","30037","","null","","","null","26","","NaN","","","","","","","","","","","","","",""
"","response","","html-keyboard-response","176","363528","0.0-1.0-239.0-0.0","0","0","30037","","225","","","75","26","","","1","26","training","adjacent","BC","2","3","L.jpg","P.jpg","1","1","1","",""
"","feedback","","html-keyboard-response","177","364535","0.0-1.0-240.0-0.0","0","0","30037","","null","","","null","26","","","","","","","","","","","","","","","",""
"","ITI","","html-keyboard-response","178","365542","0.0-1.0-243.0","0","0","30037","","null","","","null","26","","","","","","","","","","","","","","","NaN",""
"","S1","","html-keyboard-response","179","365798","0.0-1.0-245.0","0","0","30037","","null","","","null","27","","","","","","","","","","","","","","","",""
"","ISI","","html-keyboard-response","180","366302","0.0-1.0-246.0","0","0","30037","","null","","","null","27","NaN","","","","","","","","","","","","","","",""
"","S2","","html-keyboard-response","181","366558","0.0-1.0-247.0","0","0","30037","","null","","","null","27","","NaN","","","","","","","","","","","","","",""
"","response","","html-keyboard-response","182","366964","0.0-1.0-248.0-0.0","0","0","30037","","403","","","75","27","","","1","27","training","adjacent","DE","4","5","R.jpg","N.jpg","1","1","1","",""
"","feedback","","html-keyboard-response","183","367975","0.0-1.0-249.0-0.0","0","0","30037","","null","","","null","27","","","","","","","","","","","","","","","",""
"","ITI","","html-keyboard-response","184","369000","0.0-1.0-252.0","0","0","30037","","null","","","null","27","","","","","","","","","","","","","","","NaN",""
"","S1","","html-keyboard-response","185","369360","0.0-1.0-254.0","0","0","30037","","null","","","null","28","","","","","","","","","","","","","","","",""
"","ISI","","html-keyboard-response","186","370089","0.0-1.0-255.0","0","0","30037","","null","","","null","28","NaN","","","","","","","","","","","","","","",""
"","S2","","html-keyboard-response","187","370350","0.0-1.0-256.0","0","0","30037","","null","","","null","28","","NaN","","","","","","","","","","","","","",""
"","response","","html-keyboard-response","188","371167","0.0-1.0-257.0-0.0","0","0","30037","","816","","","75","28","","","1","28","training","adjacent","DE","4","5","R.jpg","N.jpg","1","1","1","",""
"","feedback","","html-keyboard-response","189","372174","0.0-1.0-258.0-0.0","0","0","30037","","null","","","null","28","","","","","","","","","","","","","","","",""
"","ITI","","html-keyboard-response","190","373183","0.0-1.0-261.0","0","0","30037","","null","","","null","28","","","","","","","","","","","","","","","NaN",""
"","S1","","html-keyboard-response","191","373439","0.0-1.0-263.0","0","0","30037","","null","","","null","29","","","","","","","","","","","","","","","",""
"","ISI","","html-keyboard-response","192","373963","0.0-1.0-264.0","0","0","30037","","null","","","null","29","NaN","","","","","","","","","","","","","","",""
"","S2","","html-keyboard-response","193","374222","0.0-1.0-265.0","0","0","30037","","null","","","null","29","","NaN","","","","","","","","","","","","","",""
"","response","","html-keyboard-response","194","374590","0.0-1.0-266.0-0.0","0","0","30037","","367","","","75","29","","","1","29","training","adjacent","BC","2","3","L.jpg","P.jpg","1","1","1","",""
"","feedback","","html-keyboard-response","195","375598","0.0-1.0-267.0-0.0","0","0","30037","","null","","","null","29","","","","","","","","","","","","","","","",""
"","ITI","","html-keyboard-response","196","376606","0.0-1.0-270.0","0","0","30037","","null","","","null","29","","","","","","","","","","","","","","","NaN",""
"","S1","","html-keyboard-response","197","376862","0.0-1.0-272.0","0","0","30037","","null","","","null","30","","","","","","","","","","","","","","","",""
"","ISI","","html-keyboard-response","198","377366","0.0-1.0-273.0","0","0","30037","","null","","","null","30","NaN","","","","","","","","","","","","","","",""
"","S2","","html-keyboard-response","199","377622","0.0-1.0-274.0","0","0","30037","","null","","","null","30","","NaN","","","","","","","","","","","","","",""
"","response","","html-keyboard-response","200","378092","0.0-1.0-275.0-0.0","0","0","30037","","467","","","75","30","","","1","30","training","adjacent","FG","6","7","M.jpg","O.jpg","1","1","1","",""
"","feedback","","html-keyboard-response","201","379103","0.0-1.0-276.0-0.0","0","0","30037","","null","","","null","30","","","","","","","","","","","","","","","",""
"","ITI","","html-keyboard-response","202","380429","0.0-1.0-279.0","0","0","30037","","null","","","null","30","","","","","","","","","","","","","","","NaN",""
"","S1","","html-keyboard-response","203","380737","0.0-1.0-281.0","0","0","30037","","null","","","null","31","","","","","","","","","","","","","","","",""
"","ISI","","html-keyboard-response","204","381246","0.0-1.0-282.0","0","0","30037","","null","","","null","31","NaN","","","","","","","","","","","","","","",""
"","S2","","html-keyboard-response","205","381502","0.0-1.0-283.0","0","0","30037","","null","","","null","31","","NaN","","","","","","","","","","","","","",""
"","response","","html-keyboard-response","206","383020","0.0-1.0-284.0-0.0","0","0","30037","","1516","","","75","31","","","1","31","training","adjacent","GF","7","6","O.jpg","M.jpg","1","0","0","",""
"","feedback","","html-keyboard-response","207","384031","0.0-1.0-285.0-0.0","0","0","30037","","null","","","null","31","","","","","","","","","","","","","","","",""
"","time_out","","html-keyboard-response","208","386039","0.0-1.0-287.0-0.0","0","0","30037","","null","","","null","31","","","","","","","","","","","","","","","",""
"","ITI","","html-keyboard-response","209","387047","0.0-1.0-288.0","0","0","30037","","null","","","null","31","","","","","","","","","","","","","","","NaN",""
"","S1","","html-keyboard-response","210","387303","0.0-1.0-290.0","0","0","30037","","null","","","null","32","","","","","","","","","","","","","","","",""
"","ISI","","html-keyboard-response","211","387807","0.0-1.0-291.0","0","0","30037","","null","","","null","32","NaN","","","","","","","","","","","","","","",""
"","S2","","html-keyboard-response","212","388063","0.0-1.0-292.0","0","0","30037","","null","","","null","32","","NaN","","","","","","","","","","","","","",""
"","response","","html-keyboard-response","213","388480","0.0-1.0-293.0-0.0","0","0","30037","","415","","","68","32","","","1","32","training","adjacent","DC","4","3","R.jpg","P.jpg","0","0","1","",""
"","feedback","","html-keyboard-response","214","389486","0.0-1.0-294.0-0.0","0","0","30037","","null","","","null","32","","","","","","","","","","","","","","","",""
"","ITI","","html-keyboard-response","215","390495","0.0-1.0-297.0","0","0","30037","","null","","","null","32","","","","","","","","","","","","","","","NaN",""
"","S1","","html-keyboard-response","216","390751","0.0-1.0-299.0","0","0","30037","","null","","","null","33","","","","","","","","","","","","","","","",""
"","ISI","","html-keyboard-response","217","391255","0.0-1.0-300.0","0","0","30037","","null","","","null","33","NaN","","","","","","","","","","","","","","",""
"","S2","","html-keyboard-response","218","391510","0.0-1.0-301.0","0","0","30037","","null","","","null","33","","NaN","","","","","","","","","","","","","",""
"","response","","html-keyboard-response","219","391912","0.0-1.0-302.0-0.0","0","0","30037","","398","","","75","33","","","1","33","training","adjacent","BA","2","1","L.jpg","Q.jpg","1","0","0","",""
"","feedback","","html-keyboard-response","220","393220","0.0-1.0-303.0-0.0","0","0","30037","","null","","","null","33","","","","","","","","","","","","","","","",""
"","time_out","","html-keyboard-response","221","395230","0.0-1.0-305.0-0.0","0","0","30037","","null","","","null","33","","","","","","","","","","","","","","","",""
"","ITI","","html-keyboard-response","222","396239","0.0-1.0-306.0","0","0","30037","","null","","","null","33","","","","","","","","","","","","","","","NaN",""
"","S1","","html-keyboard-response","223","396495","0.0-1.0-308.0","0","0","30037","","null","","","null","34","","","","","","","","","","","","","","","",""
"","ISI","","html-keyboard-response","224","396999","0.0-1.0-309.0","0","0","30037","","null","","","null","34","NaN","","","","","","","","","","","","","","",""
"","S2","","html-keyboard-response","225","397254","0.0-1.0-310.0","0","0","30037","","null","","","null","34","","NaN","","","","","","","","","","","","","",""
"","response","","html-keyboard-response","226","397705","0.0-1.0-311.0-0.0","0","0","30037","","448","","","75","34","","","1","34","training","adjacent","AB","1","2","Q.jpg","L.jpg","1","1","1","",""
"","feedback","","html-keyboard-response","227","398711","0.0-1.0-312.0-0.0","0","0","30037","","null","","","null","34","","","","","","","","","","","","","","","",""
"","ITI","","html-keyboard-response","228","399718","0.0-1.0-315.0","0","0","30037","","null","","","null","34","","","","","","","","","","","","","","","NaN",""
"","S1","","html-keyboard-response","229","399975","0.0-1.0-317.0","0","0","30037","","null","","","null","35","","","","","","","","","","","","","","","",""
"","ISI","","html-keyboard-response","230","400479","0.0-1.0-318.0","0","0","30037","","null","","","null","35","NaN","","","","","","","","","","","","","","",""
"","S2","","html-keyboard-response","231","400734","0.0-1.0-319.0","0","0","30037","","null","","","null","35","","NaN","","","","","","","","","","","","","",""
"","response","","html-keyboard-response","232","401269","0.0-1.0-320.0-0.0","0","0","30037","","534","","","75","35","","","1","35","training","adjacent","BA","2","1","L.jpg","Q.jpg","1","0","0","",""
"","feedback","","html-keyboard-response","233","402278","0.0-1.0-321.0-0.0","0","0","30037","","null","","","null","35","","","","","","","","","","","","","","","",""
"","time_out","","html-keyboard-response","234","404287","0.0-1.0-323.0-0.0","0","0","30037","","null","","","null","35","","","","","","","","","","","","","","","",""
"","ITI","","html-keyboard-response","235","405294","0.0-1.0-324.0","0","0","30037","","null","","","null","35","","","","","","","","","","","","","","","NaN",""
"","S1","","html-keyboard-response","236","405550","0.0-1.0-326.0","0","0","30037","","null","","","null","36","","","","","","","","","","","","","","","",""
"","ISI","","html-keyboard-response","237","406055","0.0-1.0-327.0","0","0","30037","","null","","","null","36","NaN","","","","","","","","","","","","","","",""
"","S2","","html-keyboard-response","238","406310","0.0-1.0-328.0","0","0","30037","","null","","","null","36","","NaN","","","","","","","","","","","","","",""
"","response","","html-keyboard-response","239","407004","0.0-1.0-329.0-0.0","0","0","30037","","692","","","75","36","","","1","36","training","adjacent","CB","3","2","P.jpg","L.jpg","1","0","0","",""
"","feedback","","html-keyboard-response","240","408014","0.0-1.0-330.0-0.0","0","0","30037","","null","","","null","36","","","","","","","","","","","","","","","",""
"","time_out","","html-keyboard-response","241","410022","0.0-1.0-332.0-0.0","0","0","30037","","null","","","null","36","","","","","","","","","","","","","","","",""
"","ITI","","html-keyboard-response","242","411031","0.0-1.0-333.0","0","0","30037","","null","","","null","36","","","","","","","","","","","","","","","NaN",""
"","S1","","html-keyboard-response","243","411287","0.0-1.0-335.0","0","0","30037","","null","","","null","37","","","","","","","","","","","","","","","",""
"","ISI","","html-keyboard-response","244","411791","0.0-1.0-336.0","0","0","30037","","null","","","null","37","NaN","","","","","","","","","","","","","","",""
"","S2","","html-keyboard-response","245","412046","0.0-1.0-337.0","0","0","30037","","null","","","null","37","","NaN","","","","","","","","","","","","","",""
"","response","","html-keyboard-response","246","412394","0.0-1.0-338.0-0.0","0","0","30037","","345","","","68","37","","","1","37","training","adjacent","DE","4","5","R.jpg","N.jpg","0","1","0","",""
"","feedback","","html-keyboard-response","247","413397","0.0-1.0-339.0-0.0","0","0","30037","","null","","","null","37","","","","","","","","","","","","","","","",""
"","time_out","","html-keyboard-response","248","415406","0.0-1.0-341.0-0.0","0","0","30037","","null","","","null","37","","","","","","","","","","","","","","","",""
"","ITI","","html-keyboard-response","249","416415","0.0-1.0-342.0","0","0","30037","","null","","","null","37","","","","","","","","","","","","","","","NaN",""
"","S1","","html-keyboard-response","250","416670","0.0-1.0-344.0","0","0","30037","","null","","","null","38","","","","","","","","","","","","","","","",""
"","ISI","","html-keyboard-response","251","417418","0.0-1.0-345.0","0","0","30037","","null","","","null","38","NaN","","","","","","","","","","","","","","",""
"","S2","","html-keyboard-response","252","417798","0.0-1.0-346.0","0","0","30037","","null","","","null","38","","NaN","","","","","","","","","","","","","",""
"","response","","html-keyboard-response","253","418058","0.0-1.0-347.0-0.0","0","0","30037","","257","","","75","38","","","1","38","training","adjacent","CB","3","2","P.jpg","L.jpg","1","0","0","",""
"","feedback","","html-keyboard-response","254","419078","0.0-1.0-348.0-0.0","0","0","30037","","null","","","null","38","","","","","","","","","","","","","","","",""
"","time_out","","html-keyboard-response","255","421086","0.0-1.0-350.0-0.0","0","0","30037","","null","","","null","38","","","","","","","","","","","","","","","",""
"","ITI","","html-keyboard-response","256","422095","0.0-1.0-351.0","0","0","30037","","null","","","null","38","","","","","","","","","","","","","","","NaN",""
"","S1","","html-keyboard-response","257","422350","0.0-1.0-353.0","0","0","30037","","null","","","null","39","","","","","","","","","","","","","","","",""
"","ISI","","html-keyboard-response","258","422854","0.0-1.0-354.0","0","0","30037","","null","","","null","39","NaN","","","","","","","","","","","","","","",""
"","S2","","html-keyboard-response","259","423110","0.0-1.0-355.0","0","0","30037","","null","","","null","39","","NaN","","","","","","","","","","","","","",""
"","response","","html-keyboard-response","260","423589","0.0-1.0-356.0-0.0","0","0","30037","","477","","","75","39","","","1","39","training","adjacent","CB","3","2","P.jpg","L.jpg","1","0","0","",""
"","feedback","","html-keyboard-response","261","424598","0.0-1.0-357.0-0.0","0","0","30037","","null","","","null","39","","","","","","","","","","","","","","","",""
"","time_out","","html-keyboard-response","262","426606","0.0-1.0-359.0-0.0","0","0","30037","","null","","","null","39","","","","","","","","","","","","","","","",""
"","ITI","","html-keyboard-response","263","427614","0.0-1.0-360.0","0","0","30037","","null","","","null","39","","","","","","","","","","","","","","","NaN",""
"","S1","","html-keyboard-response","264","427870","0.0-1.0-362.0","0","0","30037","","null","","","null","40","","","","","","","","","","","","","","","",""
"","ISI","","html-keyboard-response","265","428374","0.0-1.0-363.0","0","0","30037","","null","","","null","40","NaN","","","","","","","","","","","","","","",""
"","S2","","html-keyboard-response","266","428630","0.0-1.0-364.0","0","0","30037","","null","","","null","40","","NaN","","","","","","","","","","","","","",""
"","response","","html-keyboard-response","267","429658","0.0-1.0-365.0-0.0","0","0","30037","","1026","","","75","40","","","1","40","training","adjacent","CD","3","4","P.jpg","R.jpg","1","1","1","",""
"","feedback","","html-keyboard-response","268","430961","0.0-1.0-366.0-0.0","0","0","30037","","null","","","null","40","","","","","","","","","","","","","","","",""
"","ITI","","html-keyboard-response","269","431967","0.0-1.0-369.0","0","0","30037","","null","","","null","40","","","","","","","","","","","","","","","NaN",""
"","S1","","html-keyboard-response","270","432222","0.0-1.0-371.0","0","0","30037","","null","","","null","41","","","","","","","","","","","","","","","",""
"","ISI","","html-keyboard-response","271","432726","0.0-1.0-372.0","0","0","30037","","null","","","null","41","NaN","","","","","","","","","","","","","","",""
"","S2","","html-keyboard-response","272","432987","0.0-1.0-373.0","0","0","30037","","null","","","null","41","","NaN","","","","","","","","","","","","","",""
"","response","","html-keyboard-response","273","433638","0.0-1.0-374.0-0.0","0","0","30037","","649","","","68","41","","","1","41","training","adjacent","DE","4","5","R.jpg","N.jpg","0","1","0","",""
"","feedback","","html-keyboard-response","274","434646","0.0-1.0-375.0-0.0","0","0","30037","","null","","","null","41","","","","","","","","","","","","","","","",""
"","time_out","","html-keyboard-response","275","436654","0.0-1.0-377.0-0.0","0","0","30037","","null","","","null","41","","","","","","","","","","","","","","","",""
"","ITI","","html-keyboard-response","276","437661","0.0-1.0-378.0","0","0","30037","","null","","","null","41","","","","","","","","","","","","","","","NaN",""
"","S1","","html-keyboard-response","277","437918","0.0-1.0-380.0","0","0","30037","","null","","","null","42","","","","","","","","","","","","","","","",""
"","ISI","","html-keyboard-response","278","438445","0.0-1.0-381.0","0","0","30037","","null","","","null","42","NaN","","","","","","","","","","","","","","",""
"","S2","","html-keyboard-response","279","438702","0.0-1.0-382.0","0","0","30037","","null","","","null","42","","NaN","","","","","","","","","","","","","",""
"","response","","html-keyboard-response","280","439648","0.0-1.0-383.0-0.0","0","0","30037","","944","","","68","42","","","1","42","training","adjacent","FE","6","5","M.jpg","N.jpg","0","0","1","",""
"","feedback","","html-keyboard-response","281","440655","0.0-1.0-384.0-0.0","0","0","30037","","null","","","null","42","","","","","","","","","","","","","","","",""
"","ITI","","html-keyboard-response","282","441663","0.0-1.0-387.0","0","0","30037","","null","","","null","42","","","","","","","","","","","","","","","NaN",""
"","S1","","html-keyboard-response","283","441945","0.0-1.0-389.0","0","0","30037","","null","","","null","43","","","","","","","","","","","","","","","",""
"","ISI","","html-keyboard-response","284","442679","0.0-1.0-390.0","0","0","30037","","null","","","null","43","NaN","","","","","","","","","","","","","","",""
"","S2","","html-keyboard-response","285","443230","0.0-1.0-391.0","0","0","30037","","null","","","null","43","","NaN","","","","","","","","","","","","","",""
"","response","","html-keyboard-response","286","443988","0.0-1.0-392.0-0.0","0","0","30037","","756","","","75","43","","","1","43","training","adjacent","AB","1","2","Q.jpg","L.jpg","1","1","1","",""
"","feedback","","html-keyboard-response","287","444999","0.0-1.0-393.0-0.0","0","0","30037","","null","","","null","43","","","","","","","","","","","","","","","",""
"","ITI","","html-keyboard-response","288","446008","0.0-1.0-396.0","0","0","30037","","null","","","null","43","","","","","","","","","","","","","","","NaN",""
"","S1","","html-keyboard-response","289","446428","0.0-1.0-398.0","0","0","30037","","null","","","null","44","","","","","","","","","","","","","","","",""
"","ISI","","html-keyboard-response","290","446935","0.0-1.0-399.0","0","0","30037","","null","","","null","44","NaN","","","","","","","","","","","","","","",""
"","S2","","html-keyboard-response","291","447209","0.0-1.0-400.0","0","0","30037","","null","","","null","44","","NaN","","","","","","","","","","","","","",""
"","response","","html-keyboard-response","292","447538","0.0-1.0-401.0-0.0","0","0","30037","","326","","","75","44","","","1","44","training","adjacent","FE","6","5","M.jpg","N.jpg","1","0","0","",""
"","feedback","","html-keyboard-response","293","448542","0.0-1.0-402.0-0.0","0","0","30037","","null","","","null","44","","","","","","","","","","","","","","","",""
"","time_out","","html-keyboard-response","294","450549","0.0-1.0-404.0-0.0","0","0","30037","","null","","","null","44","","","","","","","","","","","","","","","",""
"","ITI","","html-keyboard-response","295","451785","0.0-1.0-405.0","0","0","30037","","null","","","null","44","","","","","","","","","","","","","","","NaN",""
"","S1","","html-keyboard-response","296","452054","0.0-1.0-407.0","0","0","30037","","null","","","null","45","","","","","","","","","","","","","","","",""
"","ISI","","html-keyboard-response","297","452698","0.0-1.0-408.0","0","0","30037","","null","","","null","45","NaN","","","","","","","","","","","","","","",""
"","S2","","html-keyboard-response","298","453323","0.0-1.0-409.0","0","0","30037","","null","","","null","45","","NaN","","","","","","","","","","","","","",""
"","response","","html-keyboard-response","299","453770","0.0-1.0-410.0-0.0","0","0","30037","","445","","","68","45","","","1","45","training","adjacent","ED","5","4","N.jpg","R.jpg","0","0","1","",""
"","feedback","","html-keyboard-response","300","454781","0.0-1.0-411.0-0.0","0","0","30037","","null","","","null","45","","","","","","","","","","","","","","","",""
"","ITI","","html-keyboard-response","301","455792","0.0-1.0-414.0","0","0","30037","","null","","","null","45","","","","","","","","","","","","","","","NaN",""
"","S1","","html-keyboard-response","302","456047","0.0-1.0-416.0","0","0","30037","","null","","","null","46","","","","","","","","","","","","","","","",""
"","ISI","","html-keyboard-response","303","456550","0.0-1.0-417.0","0","0","30037","","null","","","null","46","NaN","","","","","","","","","","","","","","",""
"","S2","","html-keyboard-response","304","456807","0.0-1.0-418.0","0","0","30037","","null","","","null","46","","NaN","","","","","","","","","","","","","",""
"","response","","html-keyboard-response","305","457318","0.0-1.0-419.0-0.0","0","0","30037","","509","","","75","46","","","1","46","training","adjacent","CD","3","4","P.jpg","R.jpg","1","1","1","",""
"","feedback","","html-keyboard-response","306","458326","0.0-1.0-420.0-0.0","0","0","30037","","null","","","null","46","","","","","","","","","","","","","","","",""
"","ITI","","html-keyboard-response","307","459335","0.0-1.0-423.0","0","0","30037","","null","","","null","46","","","","","","","","","","","","","","","NaN",""
"","S1","","html-keyboard-response","308","459591","0.0-1.0-425.0","0","0","30037","","null","","","null","47","","","","","","","","","","","","","","","",""
"","ISI","","html-keyboard-response","309","460095","0.0-1.0-426.0","0","0","30037","","null","","","null","47","NaN","","","","","","","","","","","","","","",""
"","S2","","html-keyboard-response","310","460350","0.0-1.0-427.0","0","0","30037","","null","","","null","47","","NaN","","","","","","","","","","","","","",""
"","response","","html-keyboard-response","311","461223","0.0-1.0-428.0-0.0","0","0","30037","","871","","","75","47","","","1","47","training","adjacent","EF","5","6","N.jpg","M.jpg","1","1","1","",""
"","feedback","","html-keyboard-response","312","462230","0.0-1.0-429.0-0.0","0","0","30037","","null","","","null","47","","","","","","","","","","","","","","","",""
"","ITI","","html-keyboard-response","313","463272","0.0-1.0-432.0","0","0","30037","","null","","","null","47","","","","","","","","","","","","","","","NaN",""
"","block_over","","html-keyboard-response","314","472707","0.0-1.0-433.0-0.0","0","0","30037","","9432","","","32","47","","","","","","","","","","","","","","","",""
"","S1","","html-keyboard-response","315","472965","0.0-1.0-434.0","0","0","30037","","null","","","null","48","","","","","","","","","","","","","","","",""
"","ISI","","html-keyboard-response","316","473470","0.0-1.0-435.0","0","0","30037","","null","","","null","48","NaN","","","","","","","","","","","","","","",""
"","S2","","html-keyboard-response","317","473725","0.0-1.0-436.0","0","0","30037","","null","","","null","48","","NaN","","","","","","","","","","","","","",""
"","response","","html-keyboard-response","318","475056","0.0-1.0-437.0-0.0","0","0","30037","","1329","","","75","48","","","2","48","training","adjacent","BC","2","3","L.jpg","P.jpg","1","1","1","",""
"","feedback","","html-keyboard-response","319","476062","0.0-1.0-438.0-0.0","0","0","30037","","null","","","null","48","","","","","","","","","","","","","","","",""
"","ITI","","html-keyboard-response","320","477070","0.0-1.0-441.0","0","0","30037","","null","","","null","48","","","","","","","","","","","","","","","NaN",""
"","S1","","html-keyboard-response","321","477327","0.0-1.0-443.0","0","0","30037","","null","","","null","49","","","","","","","","","","","","","","","",""
"","ISI","","html-keyboard-response","322","477839","0.0-1.0-444.0","0","0","30037","","null","","","null","49","NaN","","","","","","","","","","","","","","",""
"","S2","","html-keyboard-response","323","478056","0.0-1.0-445.0","0","0","30037","","215","","","75","49","","k","2","49","training","adjacent","ED","5","4","N.jpg","R.jpg","1","0","0","",""
"","feedback","","html-keyboard-response","324","479062","0.0-1.0-447.0-0.0","0","0","30037","","null","","","null","49","","","","","","","","","","","","","","","",""
"","time_out","","html-keyboard-response","325","481074","0.0-1.0-449.0-0.0","0","0","30037","","null","","","null","49","","","","","","","","","","","","","","","",""
"","ITI","","html-keyboard-response","326","482078","0.0-1.0-450.0","0","0","30037","","null","","","null","49","","","","","","","","","","","","","","","NaN",""
"","S1","","html-keyboard-response","327","482357","0.0-1.0-452.0","0","0","30037","","null","","","null","50","","","","","","","","","","","","","","","",""
"","ISI","","html-keyboard-response","328","482862","0.0-1.0-453.0","0","0","30037","","1","","","68","50","d","","","","","","","","","","","","","","",""
"","S2","","html-keyboard-response","329","483118","0.0-1.0-454.0","0","0","30037","","null","","","null","50","","NaN","","","","","","","","","","","","","",""
"","response","","html-keyboard-response","330","483877","0.0-1.0-455.0-0.0","0","0","30037","","756","","","68","50","","","2","50","training","adjacent","CB","3","2","P.jpg","L.jpg","0","0","1","",""
"","feedback","","html-keyboard-response","331","484886","0.0-1.0-456.0-0.0","0","0","30037","","null","","","null","50","","","","","","","","","","","","","","","",""
"","ITI","","html-keyboard-response","332","485895","0.0-1.0-459.0","0","0","30037","","null","","","null","50","","","","","","","","","","","","","","","NaN",""
"","S1","","html-keyboard-response","333","486150","0.0-1.0-461.0","0","0","30037","","null","","","null","51","","","","","","","","","","","","","","","",""
"","ISI","","html-keyboard-response","334","486654","0.0-1.0-462.0","0","0","30037","","null","","","null","51","NaN","","","","","","","","","","","","","","",""
"","S2","","html-keyboard-response","335","487495","0.0-1.0-463.0","0","0","30037","","839","","","75","51","","k","2","51","training","adjacent","ED","5","4","N.jpg","R.jpg","1","0","0","",""
"","feedback","","html-keyboard-response","336","488503","0.0-1.0-465.0-0.0","0","0","30037","","null","","","null","51","","","","","","","","","","","","","","","",""
"","time_out","","html-keyboard-response","337","490510","0.0-1.0-467.0-0.0","0","0","30037","","null","","","null","51","","","","","","","","","","","","","","","",""
"","ITI","","html-keyboard-response","338","491518","0.0-1.0-468.0","0","0","30037","","null","","","null","51","","","","","","","","","","","","","","","NaN",""
"","S1","","html-keyboard-response","339","491773","0.0-1.0-470.0","0","0","30037","","null","","","null","52","","","","","","","","","","","","","","","",""
"","ISI","","html-keyboard-response","340","492277","0.0-1.0-471.0","0","0","30037","","null","","","null","52","NaN","","","","","","","","","","","","","","",""
"","S2","","html-keyboard-response","341","492533","0.0-1.0-472.0","0","0","30037","","null","","","null","52","","NaN","","","","","","","","","","","","","",""
"","response","","html-keyboard-response","342","493116","0.0-1.0-473.0-0.0","0","0","30037","","581","","","75","52","","","2","52","training","adjacent","FE","6","5","M.jpg","N.jpg","1","0","0","",""
"","feedback","","html-keyboard-response","343","494137","0.0-1.0-474.0-0.0","0","0","30037","","null","","","null","52","","","","","","","","","","","","","","","",""
"","time_out","","html-keyboard-response","344","496142","0.0-1.0-476.0-0.0","0","0","30037","","null","","","null","52","","","","","","","","","","","","","","","",""
"","ITI","","html-keyboard-response","345","497150","0.0-1.0-477.0","0","0","30037","","null","","","null","52","","","","","","","","","","","","","","","NaN",""
"","S1","","html-keyboard-response","346","497406","0.0-1.0-479.0","0","0","30037","","null","","","null","53","","","","","","","","","","","","","","","",""
"","ISI","","html-keyboard-response","347","497917","0.0-1.0-480.0","0","0","30037","","null","","","null","53","NaN","","","","","","","","","","","","","","",""
"","S2","","html-keyboard-response","348","498173","0.0-1.0-481.0","0","0","30037","","null","","","null","53","","NaN","","","","","","","","","","","","","",""
"","response","","html-keyboard-response","349","498611","0.0-1.0-482.0-0.0","0","0","30037","","435","","","75","53","","","2","53","training","adjacent","AB","1","2","Q.jpg","L.jpg","1","1","1","",""
"","feedback","","html-keyboard-response","350","499679","0.0-1.0-483.0-0.0","0","0","30037","","null","","","null","53","","","","","","","","","","","","","","","",""
"","ITI","","html-keyboard-response","351","500685","0.0-1.0-486.0","0","0","30037","","null","","","null","53","","","","","","","","","","","","","","","NaN",""
"","S1","","html-keyboard-response","352","500942","0.0-1.0-488.0","0","0","30037","","null","","","null","54","","","","","","","","","","","","","","","",""
"","ISI","","html-keyboard-response","353","501453","0.0-1.0-489.0","0","0","30037","","null","","","null","54","NaN","","","","","","","","","","","","","","",""
"","S2","","html-keyboard-response","354","501709","0.0-1.0-490.0","0","0","30037","","null","","","null","54","","NaN","","","","","","","","","","","","","",""
"","response","","html-keyboard-response","355","502091","0.0-1.0-491.0-0.0","0","0","30037","","379","","","75","54","","","2","54","training","adjacent","DC","4","3","R.jpg","P.jpg","1","0","0","",""
"","feedback","","html-keyboard-response","356","503103","0.0-1.0-492.0-0.0","0","0","30037","","null","","","null","54","","","","","","","","","","","","","","","",""
"","time_out","","html-keyboard-response","357","505110","0.0-1.0-494.0-0.0","0","0","30037","","null","","","null","54","","","","","","","","","","","","","","","",""
"","ITI","","html-keyboard-response","358","506117","0.0-1.0-495.0","0","0","30037","","null","","","null","54","","","","","","","","","","","","","","","NaN",""
"","S1","","html-keyboard-response","359","506373","0.0-1.0-497.0","0","0","30037","","null","","","null","55","","","","","","","","","","","","","","","",""
"","ISI","","html-keyboard-response","360","506903","0.0-1.0-498.0","0","0","30037","","null","","","null","55","NaN","","","","","","","","","","","","","","",""
"","S2","","html-keyboard-response","361","507157","0.0-1.0-499.0","0","0","30037","","null","","","null","55","","NaN","","","","","","","","","","","","","",""
"","response","","html-keyboard-response","362","507395","0.0-1.0-500.0-0.0","0","0","30037","","236","","","75","55","","","2","55","training","adjacent","BC","2","3","L.jpg","P.jpg","1","1","1","",""
"","feedback","","html-keyboard-response","363","508405","0.0-1.0-501.0-0.0","0","0","30037","","null","","","null","55","","","","","","","","","","","","","","","",""
"","ITI","","html-keyboard-response","364","509413","0.0-1.0-504.0","0","0","30037","","null","","","null","55","","","","","","","","","","","","","","","NaN",""
"","S1","","html-keyboard-response","365","509670","0.0-1.0-506.0","0","0","30037","","null","","","null","56","","","","","","","","","","","","","","","",""
"","ISI","","html-keyboard-response","366","510174","0.0-1.0-507.0","0","0","30037","","null","","","null","56","NaN","","","","","","","","","","","","","","",""
"","S2","","html-keyboard-response","367","510430","0.0-1.0-508.0","0","0","30037","","null","","","null","56","","NaN","","","","","","","","","","","","","",""
"","response","","html-keyboard-response","368","510911","0.0-1.0-509.0-0.0","0","0","30037","","478","","","75","56","","","2","56","training","adjacent","CD","3","4","P.jpg","R.jpg","1","1","1","",""
"","feedback","","html-keyboard-response","369","512100","0.0-1.0-510.0-0.0","0","0","30037","","null","","","null","56","","","","","","","","","","","","","","","",""
"","ITI","","html-keyboard-response","370","513109","0.0-1.0-513.0","0","0","30037","","null","","","null","56","","","","","","","","","","","","","","","NaN",""
"","S1","","html-keyboard-response","371","513365","0.0-1.0-515.0","0","0","30037","","null","","","null","57","","","","","","","","","","","","","","","",""
"","ISI","","html-keyboard-response","372","513870","0.0-1.0-516.0","0","0","30037","","null","","","null","57","NaN","","","","","","","","","","","","","","",""
"","S2","","html-keyboard-response","373","514125","0.0-1.0-517.0","0","0","30037","","null","","","null","57","","NaN","","","","","","","","","","","","","",""
"","response","","html-keyboard-response","374","514610","0.0-1.0-518.0-0.0","0","0","30037","","483","","","75","57","","","2","57","training","adjacent","FG","6","7","M.jpg","O.jpg","1","1","1","",""
"","feedback","","html-keyboard-response","375","515621","0.0-1.0-519.0-0.0","0","0","30037","","null","","","null","57","","","","","","","","","","","","","","","",""
"","ITI","","html-keyboard-response","376","516629","0.0-1.0-522.0","0","0","30037","","null","","","null","57","","","","","","","","","","","","","","","NaN",""
"","S1","","html-keyboard-response","377","516885","0.0-1.0-524.0","0","0","30037","","null","","","null","58","","","","","","","","","","","","","","","",""
"","ISI","","html-keyboard-response","378","517389","0.0-1.0-525.0","0","0","30037","","null","","","null","58","NaN","","","","","","","","","","","","","","",""
"","S2","","html-keyboard-response","379","517646","0.0-1.0-526.0","0","0","30037","","null","","","null","58","","NaN","","","","","","","","","","","","","",""
"","response","","html-keyboard-response","380","518240","0.0-1.0-527.0-0.0","0","0","30037","","592","","","75","58","","","2","58","training","adjacent","AB","1","2","Q.jpg","L.jpg","1","1","1","",""
"","feedback","","html-keyboard-response","381","519245","0.0-1.0-528.0-0.0","0","0","30037","","null","","","null","58","","","","","","","","","","","","","","","",""
"","ITI","","html-keyboard-response","382","520254","0.0-1.0-531.0","0","0","30037","","null","","","null","58","","","","","","","","","","","","","","","NaN",""
"","S1","","html-keyboard-response","383","520510","0.0-1.0-533.0","0","0","30037","","null","","","null","59","","","","","","","","","","","","","","","",""
"","ISI","","html-keyboard-response","384","521014","0.0-1.0-534.0","0","0","30037","","null","","","null","59","NaN","","","","","","","","","","","","","","",""
"","S2","","html-keyboard-response","385","521270","0.0-1.0-535.0","0","0","30037","","null","","","null","59","","NaN","","","","","","","","","","","","","",""
"","response","","html-keyboard-response","386","521760","0.0-1.0-536.0-0.0","0","0","30037","","488","","","75","59","","","2","59","training","adjacent","CB","3","2","P.jpg","L.jpg","1","0","0","",""
"","feedback","","html-keyboard-response","387","522765","0.0-1.0-537.0-0.0","0","0","30037","","null","","","null","59","","","","","","","","","","","","","","","",""
"","time_out","","html-keyboard-response","388","524784","0.0-1.0-539.0-0.0","0","0","30037","","null","","","null","59","","","","","","","","","","","","","","","",""
"","ITI","","html-keyboard-response","389","525789","0.0-1.0-540.0","0","0","30037","","null","","","null","59","","","","","","","","","","","","","","","NaN",""
"","S1","","html-keyboard-response","390","526046","0.0-1.0-542.0","0","0","30037","","null","","","null","60","","","","","","","","","","","","","","","",""
"","ISI","","html-keyboard-response","391","526549","0.0-1.0-543.0","0","0","30037","","243","","","75","60","k","","","","","","","","","","","","","","",""
"","S2","","html-keyboard-response","392","526806","0.0-1.0-544.0","0","0","30037","","null","","","null","60","","NaN","","","","","","","","","","","","","",""
"","response","","html-keyboard-response","393","527755","0.0-1.0-545.0-0.0","0","0","30037","","948","","","75","60","","","2","60","training","adjacent","EF","5","6","N.jpg","M.jpg","1","1","1","",""
"","feedback","","html-keyboard-response","394","528766","0.0-1.0-546.0-0.0","0","0","30037","","null","","","null","60","","","","","","","","","","","","","","","",""
"","ITI","","html-keyboard-response","395","529774","0.0-1.0-549.0","0","0","30037","","null","","","null","60","","","","","","","","","","","","","","","NaN",""
"","S1","","html-keyboard-response","396","530030","0.0-1.0-551.0","0","0","30037","","null","","","null","61","","","","","","","","","","","","","","","",""
"","ISI","","html-keyboard-response","397","530533","0.0-1.0-552.0","0","0","30037","","null","","","null","61","NaN","","","","","","","","","","","","","","",""
"","S2","","html-keyboard-response","398","530789","0.0-1.0-553.0","0","0","30037","","null","","","null","61","","NaN","","","","","","","","","","","","","",""
"","response","","html-keyboard-response","399","531015","0.0-1.0-554.0-0.0","0","0","30037","","224","","","68","61","","","2","61","training","adjacent","DC","4","3","R.jpg","P.jpg","0","0","1","",""
"","feedback","","html-keyboard-response","400","532022","0.0-1.0-555.0-0.0","0","0","30037","","null","","","null","61","","","","","","","","","","","","","","","",""
"","ITI","","html-keyboard-response","401","533031","0.0-1.0-558.0","0","0","30037","","null","","","null","61","","","","","","","","","","","","","","","NaN",""
"","S1","","html-keyboard-response","402","533288","0.0-1.0-560.0","0","0","30037","","null","","","null","62","","","","","","","","","","","","","","","",""
"","ISI","","html-keyboard-response","403","533798","0.0-1.0-561.0","0","0","30037","","null","","","null","62","NaN","","","","","","","","","","","","","","",""
"","S2","","html-keyboard-response","404","534054","0.0-1.0-562.0","0","0","30037","","null","","","null","62","","NaN","","","","","","","","","","","","","",""
"","response","","html-keyboard-response","405","534195","0.0-1.0-563.0-0.0","0","0","30037","","140","","","68","62","","","2","62","training","adjacent","GF","7","6","O.jpg","M.jpg","0","0","1","",""
"","feedback","","html-keyboard-response","406","535206","0.0-1.0-564.0-0.0","0","0","30037","","null","","","null","62","","","","","","","","","","","","","","","",""
"","ITI","","html-keyboard-response","407","536215","0.0-1.0-567.0","0","0","30037","","null","","","null","62","","","","","","","","","","","","","","","NaN",""
"","S1","","html-keyboard-response","408","536470","0.0-1.0-569.0","0","0","30037","","null","","","null","63","","","","","","","","","","","","","","","",""
"","ISI","","html-keyboard-response","409","537360","0.0-1.0-570.0","0","0","30037","","null","","","null","63","NaN","","","","","","","","","","","","","","",""
"","S2","","html-keyboard-response","410","537757","0.0-1.0-571.0","0","0","30037","","null","","","null","63","","NaN","","","","","","","","","","","","","",""
"","response","","html-keyboard-response","411","537777","0.0-1.0-572.0-0.0","0","0","30037","","18","","","75","63","","","2","63","training","adjacent","AB","1","2","Q.jpg","L.jpg","1","1","1","",""
"","feedback","","html-keyboard-response","412","538783","0.0-1.0-573.0-0.0","0","0","30037","","null","","","null","63","","","","","","","","","","","","","","","",""
"","ITI","","html-keyboard-response","413","539791","0.0-1.0-576.0","0","0","30037","","null","","","null","63","","","","","","","","","","","","","","","NaN",""
"","S1","","html-keyboard-response","414","540046","0.0-1.0-578.0","0","0","30037","","null","","","null","64","","","","","","","","","","","","","","","",""
"","ISI","","html-keyboard-response","415","540604","0.0-1.0-579.0","0","0","30037","","null","","","null","64","NaN","","","","","","","","","","","","","","",""
"","S2","","html-keyboard-response","416","540871","0.0-1.0-580.0","0","0","30037","","null","","","null","64","","NaN","","","","","","","","","","","","","",""
"","response","","html-keyboard-response","417","541475","0.0-1.0-581.0-0.0","0","0","30037","","603","","","75","64","","","2","64","training","adjacent","BA","2","1","L.jpg","Q.jpg","1","0","0","",""
"","feedback","","html-keyboard-response","418","542486","0.0-1.0-582.0-0.0","0","0","30037","","null","","","null","64","","","","","","","","","","","","","","","",""
"","time_out","","html-keyboard-response","419","544508","0.0-1.0-584.0-0.0","0","0","30037","","null","","","null","64","","","","","","","","","","","","","","","",""
"","ITI","","html-keyboard-response","420","545852","0.0-1.0-585.0","0","0","30037","","null","","","null","64","","","","","","","","","","","","","","","NaN",""
"","S1","","html-keyboard-response","421","546110","0.0-1.0-587.0","0","0","30037","","null","","","null","65","","","","","","","","","","","","","","","",""
"","ISI","","html-keyboard-response","422","546614","0.0-1.0-588.0","0","0","30037","","null","","","null","65","NaN","","","","","","","","","","","","","","",""
"","S2","","html-keyboard-response","423","546895","0.0-1.0-589.0","0","0","30037","","null","","","null","65","","NaN","","","","","","","","","","","","","",""
"","response","","html-keyboard-response","424","547015","0.0-1.0-590.0-0.0","0","0","30037","","117","","","68","65","","","2","65","training","adjacent","DE","4","5","R.jpg","N.jpg","0","1","0","",""
"","feedback","","html-keyboard-response","425","548023","0.0-1.0-591.0-0.0","0","0","30037","","null","","","null","65","","","","","","","","","","","","","","","",""
"","time_out","","html-keyboard-response","426","550030","0.0-1.0-593.0-0.0","0","0","30037","","null","","","null","65","","","","","","","","","","","","","","","",""
"","ITI","","html-keyboard-response","427","551038","0.0-1.0-594.0","0","0","30037","","null","","","null","65","","","","","","","","","","","","","","","NaN",""
"","S1","","html-keyboard-response","428","551295","0.0-1.0-596.0","0","0","30037","","null","","","null","66","","","","","","","","","","","","","","","",""
"","ISI","","html-keyboard-response","429","551799","0.0-1.0-597.0","0","0","30037","","null","","","null","66","NaN","","","","","","","","","","","","","","",""
"","S2","","html-keyboard-response","430","552039","0.0-1.0-598.0","0","0","30037","","238","","","75","66","","k","2","66","training","adjacent","BC","2","3","L.jpg","P.jpg","1","1","1","",""
"","feedback","","html-keyboard-response","431","553047","0.0-1.0-600.0-0.0","0","0","30037","","null","","","null","66","","","","","","","","","","","","","","","",""
"","ITI","","html-keyboard-response","432","554054","0.0-1.0-603.0","0","0","30037","","null","","","null","66","","","","","","","","","","","","","","","NaN",""
"","S1","","html-keyboard-response","433","554311","0.0-1.0-605.0","0","0","30037","","null","","","null","67","","","","","","","","","","","","","","","",""
"","ISI","","html-keyboard-response","434","554814","0.0-1.0-606.0","0","0","30037","","null","","","null","67","NaN","","","","","","","","","","","","","","",""
"","S2","","html-keyboard-response","435","555071","0.0-1.0-607.0","0","0","30037","","null","","","null","67","","NaN","","","","","","","","","","","","","",""
"","response","","html-keyboard-response","436","555539","0.0-1.0-608.0-0.0","0","0","30037","","466","","","68","67","","","2","67","training","adjacent","DC","4","3","R.jpg","P.jpg","0","0","1","",""
"","feedback","","html-keyboard-response","437","556716","0.0-1.0-609.0-0.0","0","0","30037","","null","","","null","67","","","","","","","","","","","","","","","",""
"","ITI","","html-keyboard-response","438","557928","0.0-1.0-612.0","0","0","30037","","null","","","null","67","","","","","","","","","","","","","","","NaN",""
"","S1","","html-keyboard-response","439","558193","0.0-1.0-614.0","0","0","30037","","null","","","null","68","","","","","","","","","","","","","","","",""
"","ISI","","html-keyboard-response","440","558726","0.0-1.0-615.0","0","0","30037","","null","","","null","68","NaN","","","","","","","","","","","","","","",""
"","S2","","html-keyboard-response","441","558983","0.0-1.0-616.0","0","0","30037","","null","","","null","68","","NaN","","","","","","","","","","","","","",""
"","response","","html-keyboard-response","442","560259","0.0-1.0-617.0-0.0","0","0","30037","","1275","","","68","68","","","2","68","training","adjacent","BA","2","1","L.jpg","Q.jpg","0","0","1","",""
"","feedback","","html-keyboard-response","443","561271","0.0-1.0-618.0-0.0","0","0","30037","","null","","","null","68","","","","","","","","","","","","","","","",""
"","ITI","","html-keyboard-response","444","562279","0.0-1.0-621.0","0","0","30037","","null","","","null","68","","","","","","","","","","","","","","","NaN",""
"","S1","","html-keyboard-response","445","562535","0.0-1.0-623.0","0","0","30037","","null","","","null","69","","","","","","","","","","","","","","","",""
"","ISI","","html-keyboard-response","446","563046","0.0-1.0-624.0","0","0","30037","","null","","","null","69","NaN","","","","","","","","","","","","","","",""
"","S2","","html-keyboard-response","447","563302","0.0-1.0-625.0","0","0","30037","","null","","","null","69","","NaN","","","","","","","","","","","","","",""
"","response","","html-keyboard-response","448","564025","0.0-1.0-626.0-0.0","0","0","30037","","722","","","75","69","","","2","69","training","adjacent","CD","3","4","P.jpg","R.jpg","1","1","1","",""
"","feedback","","html-keyboard-response","449","565031","0.0-1.0-627.0-0.0","0","0","30037","","null","","","null","69","","","","","","","","","","","","","","","",""
"","ITI","","html-keyboard-response","450","566039","0.0-1.0-630.0","0","0","30037","","null","","","null","69","","","","","","","","","","","","","","","NaN",""
"","S1","","html-keyboard-response","451","566295","0.0-1.0-632.0","0","0","30037","","null","","","null","70","","","","","","","","","","","","","","","",""
"","ISI","","html-keyboard-response","452","566806","0.0-1.0-633.0","0","0","30037","","null","","","null","70","NaN","","","","","","","","","","","","","","",""
"","S2","","html-keyboard-response","453","567063","0.0-1.0-634.0","0","0","30037","","null","","","null","70","","NaN","","","","","","","","","","","","","",""
"","response","","html-keyboard-response","454","567979","0.0-1.0-635.0-0.0","0","0","30037","","913","","","68","70","","","2","70","training","adjacent","BA","2","1","L.jpg","Q.jpg","0","0","1","",""
"","feedback","","html-keyboard-response","455","569303","0.0-1.0-636.0-0.0","0","0","30037","","null","","","null","70","","","","","","","","","","","","","","","",""
"","ITI","","html-keyboard-response","456","570310","0.0-1.0-639.0","0","0","30037","","null","","","null","70","","","","","","","","","","","","","","","NaN",""
"","S1","","html-keyboard-response","457","570570","0.0-1.0-641.0","0","0","30037","","null","","","null","71","","","","","","","","","","","","","","","",""
"","ISI","","html-keyboard-response","458","571079","0.0-1.0-642.0","0","0","30037","","null","","","null","71","NaN","","","","","","","","","","","","","","",""
"","S2","","html-keyboard-response","459","571334","0.0-1.0-643.0","0","0","30037","","null","","","null","71","","NaN","","","","","","","","","","","","","",""
"","response","","html-keyboard-response","460","572139","0.0-1.0-644.0-0.0","0","0","30037","","804","","","68","71","","","2","71","training","adjacent","CD","3","4","P.jpg","R.jpg","0","1","0","",""
"","feedback","","html-keyboard-response","461","573151","0.0-1.0-645.0-0.0","0","0","30037","","null","","","null","71","","","","","","","","","","","","","","","",""
"","time_out","","html-keyboard-response","462","575157","0.0-1.0-647.0-0.0","0","0","30037","","null","","","null","71","","","","","","","","","","","","","","","",""
"","ITI","","html-keyboard-response","463","576160","0.0-1.0-648.0","0","0","30037","","null","","","null","71","","","","","","","","","","","","","","","NaN",""
"","S1","","html-keyboard-response","464","576415","0.0-1.0-650.0","0","0","30037","","null","","","null","72","","","","","","","","","","","","","","","",""
"","ISI","","html-keyboard-response","465","576918","0.0-1.0-651.0","0","0","30037","","null","","","null","72","NaN","","","","","","","","","","","","","","",""
"","S2","","html-keyboard-response","466","577174","0.0-1.0-652.0","0","0","30037","","null","","","null","72","","NaN","","","","","","","","","","","","","",""
"","response","","html-keyboard-response","467","578434","0.0-1.0-653.0-0.0","0","0","30037","","1259","","","68","72","","","2","72","training","adjacent","CB","3","2","P.jpg","L.jpg","0","0","1","",""
"","feedback","","html-keyboard-response","468","579439","0.0-1.0-654.0-0.0","0","0","30037","","null","","","null","72","","","","","","","","","","","","","","","",""
"","ITI","","html-keyboard-response","469","580676","0.0-1.0-657.0","0","0","30037","","null","","","null","72","","","","","","","","","","","","","","","NaN",""
"","S1","","html-keyboard-response","470","580934","0.0-1.0-659.0","0","0","30037","","null","","","null","73","","","","","","","","","","","","","","","",""
"","ISI","","html-keyboard-response","471","581438","0.0-1.0-660.0","0","0","30037","","null","","","null","73","NaN","","","","","","","","","","","","","","",""
"","S2","","html-keyboard-response","472","581694","0.0-1.0-661.0","0","0","30037","","null","","","null","73","","NaN","","","","","","","","","","","","","",""
"","response","","html-keyboard-response","473","582674","0.0-1.0-662.0-0.0","0","0","30037","","979","","","75","73","","","2","73","training","adjacent","DE","4","5","R.jpg","N.jpg","1","1","1","",""
"","feedback","","html-keyboard-response","474","583678","0.0-1.0-663.0-0.0","0","0","30037","","null","","","null","73","","","","","","","","","","","","","","","",""
"","ITI","","html-keyboard-response","475","584703","0.0-1.0-666.0","0","0","30037","","null","","","null","73","","","","","","","","","","","","","","","NaN",""
"","S1","","html-keyboard-response","476","584957","0.0-1.0-668.0","0","0","30037","","null","","","null","74","","","","","","","","","","","","","","","",""
"","ISI","","html-keyboard-response","477","585461","0.0-1.0-669.0","0","0","30037","","null","","","null","74","NaN","","","","","","","","","","","","","","",""
"","S2","","html-keyboard-response","478","585718","0.0-1.0-670.0","0","0","30037","","null","","","null","74","","NaN","","","","","","","","","","","","","",""
"","response","","html-keyboard-response","479","586444","0.0-1.0-671.0-0.0","0","0","30037","","723","","","68","74","","","2","74","training","adjacent","ED","5","4","N.jpg","R.jpg","0","0","1","",""
"","feedback","","html-keyboard-response","480","587454","0.0-1.0-672.0-0.0","0","0","30037","","null","","","null","74","","","","","","","","","","","","","","","",""
"","ITI","","html-keyboard-response","481","588463","0.0-1.0-675.0","0","0","30037","","null","","","null","74","","","","","","","","","","","","","","","NaN",""
"","S1","","html-keyboard-response","482","588719","0.0-1.0-677.0","0","0","30037","","null","","","null","75","","","","","","","","","","","","","","","",""
"","ISI","","html-keyboard-response","483","589222","0.0-1.0-678.0","0","0","30037","","null","","","null","75","NaN","","","","","","","","","","","","","","",""
"","S2","","html-keyboard-response","484","589479","0.0-1.0-679.0","0","0","30037","","null","","","null","75","","NaN","","","","","","","","","","","","","",""
"","response","","html-keyboard-response","485","590224","0.0-1.0-680.0-0.0","0","0","30037","","743","","","68","75","","","2","75","training","adjacent","FG","6","7","M.jpg","O.jpg","0","1","0","",""
"","feedback","","html-keyboard-response","486","591231","0.0-1.0-681.0-0.0","0","0","30037","","null","","","null","75","","","","","","","","","","","","","","","",""
"","time_out","","html-keyboard-response","487","593239","0.0-1.0-683.0-0.0","0","0","30037","","null","","","null","75","","","","","","","","","","","","","","","",""
"","ITI","","html-keyboard-response","488","594271","0.0-1.0-684.0","0","0","30037","","null","","","null","75","","","","","","","","","","","","","","","NaN",""
"","S1","","html-keyboard-response","489","594527","0.0-1.0-686.0","0","0","30037","","null","","","null","76","","","","","","","","","","","","","","","",""
"","ISI","","html-keyboard-response","490","595037","0.0-1.0-687.0","0","0","30037","","null","","","null","76","NaN","","","","","","","","","","","","","","",""
"","S2","","html-keyboard-response","491","595294","0.0-1.0-688.0","0","0","30037","","null","","","null","76","","NaN","","","","","","","","","","","","","",""
"","response","","html-keyboard-response","492","596344","0.0-1.0-689.0-0.0","0","0","30037","","1047","","","75","76","","","2","76","training","adjacent","FE","6","5","M.jpg","N.jpg","1","0","0","",""
"","feedback","","html-keyboard-response","493","597349","0.0-1.0-690.0-0.0","0","0","30037","","null","","","null","76","","","","","","","","","","","","","","","",""
"","time_out","","html-keyboard-response","494","599358","0.0-1.0-692.0-0.0","0","0","30037","","null","","","null","76","","","","","","","","","","","","","","","",""
"","ITI","","html-keyboard-response","495","600376","0.0-1.0-693.0","0","0","30037","","null","","","null","76","","","","","","","","","","","","","","","NaN",""
"","S1","","html-keyboard-response","496","600673","0.0-1.0-695.0","0","0","30037","","null","","","null","77","","","","","","","","","","","","","","","",""
"","ISI","","html-keyboard-response","497","601181","0.0-1.0-696.0","0","0","30037","","null","","","null","77","NaN","","","","","","","","","","","","","","",""
"","S2","","html-keyboard-response","498","601437","0.0-1.0-697.0","0","0","30037","","null","","","null","77","","NaN","","","","","","","","","","","","","",""
"","response","","html-keyboard-response","499","602723","0.0-1.0-698.0-0.0","0","0","30037","","1284","","","68","77","","","2","77","training","adjacent","CD","3","4","P.jpg","R.jpg","0","1","0","",""
"","feedback","","html-keyboard-response","500","603737","0.0-1.0-699.0-0.0","0","0","30037","","null","","","null","77","","","","","","","","","","","","","","","",""
"","time_out","","html-keyboard-response","501","605741","0.0-1.0-701.0-0.0","0","0","30037","","null","","","null","77","","","","","","","","","","","","","","","",""
"","ITI","","html-keyboard-response","502","606750","0.0-1.0-702.0","0","0","30037","","null","","","null","77","","","","","","","","","","","","","","","NaN",""
"","S1","","html-keyboard-response","503","607005","0.0-1.0-704.0","0","0","30037","","null","","","null","78","","","","","","","","","","","","","","","",""
"","ISI","","html-keyboard-response","504","607510","0.0-1.0-705.0","0","0","30037","","null","","","null","78","NaN","","","","","","","","","","","","","","",""
"","S2","","html-keyboard-response","505","607767","0.0-1.0-706.0","0","0","30037","","null","","","null","78","","NaN","","","","","","","","","","","","","",""
"","response","","html-keyboard-response","506","609195","0.0-1.0-707.0-0.0","0","0","30037","","1426","","","75","78","","","2","78","training","adjacent","FE","6","5","M.jpg","N.jpg","1","0","0","",""
"","feedback","","html-keyboard-response","507","610572","0.0-1.0-708.0-0.0","0","0","30037","","null","","","null","78","","","","","","","","","","","","","","","",""
"","time_out","","html-keyboard-response","508","612587","0.0-1.0-710.0-0.0","0","0","30037","","null","","","null","78","","","","","","","","","","","","","","","",""
"","ITI","","html-keyboard-response","509","613598","0.0-1.0-711.0","0","0","30037","","null","","","null","78","","","","","","","","","","","","","","","NaN",""
"","S1","","html-keyboard-response","510","613855","0.0-1.0-713.0","0","0","30037","","null","","","null","79","","","","","","","","","","","","","","","",""
"","ISI","","html-keyboard-response","511","614358","0.0-1.0-714.0","0","0","30037","","null","","","null","79","NaN","","","","","","","","","","","","","","",""
"","S2","","html-keyboard-response","512","614614","0.0-1.0-715.0","0","0","30037","","null","","","null","79","","NaN","","","","","","","","","","","","","",""
"","response","","html-keyboard-response","513","615213","0.0-1.0-716.0-0.0","0","0","30037","","597","","","68","79","","","2","79","training","adjacent","CB","3","2","P.jpg","L.jpg","0","0","1","",""
"","feedback","","html-keyboard-response","514","616221","0.0-1.0-717.0-0.0","0","0","30037","","null","","","null","79","","","","","","","","","","","","","","","",""
"","ITI","","html-keyboard-response","515","617229","0.0-1.0-720.0","0","0","30037","","null","","","null","79","","","","","","","","","","","","","","","NaN",""
"","S1","","html-keyboard-response","516","617486","0.0-1.0-722.0","0","0","30037","","null","","","null","80","","","","","","","","","","","","","","","",""
"","ISI","","html-keyboard-response","517","617991","0.0-1.0-723.0","0","0","30037","","null","","","null","80","NaN","","","","","","","","","","","","","","",""
"","S2","","html-keyboard-response","518","618246","0.0-1.0-724.0","0","0","30037","","null","","","null","80","","NaN","","","","","","","","","","","","","",""
"","response","","html-keyboard-response","519","619023","0.0-1.0-725.0-0.0","0","0","30037","","775","","","68","80","","","2","80","training","adjacent","ED","5","4","N.jpg","R.jpg","0","0","1","",""
"","feedback","","html-keyboard-response","520","620030","0.0-1.0-726.0-0.0","0","0","30037","","null","","","null","80","","","","","","","","","","","","","","","",""
"","ITI","","html-keyboard-response","521","621037","0.0-1.0-729.0","0","0","30037","","null","","","null","80","","","","","","","","","","","","","","","NaN",""
"","S1","","html-keyboard-response","522","621294","0.0-1.0-731.0","0","0","30037","","null","","","null","81","","","","","","","","","","","","","","","",""
"","ISI","","html-keyboard-response","523","621798","0.0-1.0-732.0","0","0","30037","","null","","","null","81","NaN","","","","","","","","","","","","","","",""
"","S2","","html-keyboard-response","524","622491","0.0-1.0-733.0","0","0","30037","","null","","","null","81","","NaN","","","","","","","","","","","","","",""
"","response","","html-keyboard-response","525","623743","0.0-1.0-734.0-0.0","0","0","30037","","1250","","","75","81","","","2","81","training","adjacent","EF","5","6","N.jpg","M.jpg","1","1","1","",""
"","feedback","","html-keyboard-response","526","624750","0.0-1.0-735.0-0.0","0","0","30037","","null","","","null","81","","","","","","","","","","","","","","","",""
"","ITI","","html-keyboard-response","527","625758","0.0-1.0-738.0","0","0","30037","","null","","","null","81","","","","","","","","","","","","","","","NaN",""
"","S1","","html-keyboard-response","528","626014","0.0-1.0-740.0","0","0","30037","","null","","","null","82","","","","","","","","","","","","","","","",""
"","ISI","","html-keyboard-response","529","626519","0.0-1.0-741.0","0","0","30037","","null","","","null","82","NaN","","","","","","","","","","","","","","",""
"","S2","","html-keyboard-response","530","626774","0.0-1.0-742.0","0","0","30037","","null","","","null","82","","NaN","","","","","","","","","","","","","",""
"","response","","html-keyboard-response","531","627432","0.0-1.0-743.0-0.0","0","0","30037","","656","","","68","82","","","2","82","training","adjacent","GF","7","6","O.jpg","M.jpg","0","0","1","",""
"","feedback","","html-keyboard-response","532","628437","0.0-1.0-744.0-0.0","0","0","30037","","null","","","null","82","","","","","","","","","","","","","","","",""
"","ITI","","html-keyboard-response","533","629446","0.0-1.0-747.0","0","0","30037","","null","","","null","82","","","","","","","","","","","","","","","NaN",""
"","S1","","html-keyboard-response","534","629703","0.0-1.0-749.0","0","0","30037","","null","","","null","83","","","","","","","","","","","","","","","",""
"","ISI","","html-keyboard-response","535","630214","0.0-1.0-750.0","0","0","30037","","null","","","null","83","NaN","","","","","","","","","","","","","","",""
"","S2","","html-keyboard-response","536","630470","0.0-1.0-751.0","0","0","30037","","null","","","null","83","","NaN","","","","","","","","","","","","","",""
"","response","","html-keyboard-response","537","631422","0.0-1.0-752.0-0.0","0","0","30037","","951","","","75","83","","","2","83","training","adjacent","FE","6","5","M.jpg","N.jpg","1","0","0","",""
"","feedback","","html-keyboard-response","538","632431","0.0-1.0-753.0-0.0","0","0","30037","","null","","","null","83","","","","","","","","","","","","","","","",""
"","time_out","","html-keyboard-response","539","634602","0.0-1.0-755.0-0.0","0","0","30037","","null","","","null","83","","","","","","","","","","","","","","","",""
"","ITI","","html-keyboard-response","540","635605","0.0-1.0-756.0","0","0","30037","","null","","","null","83","","","","","","","","","","","","","","","NaN",""
"","S1","","html-keyboard-response","541","635863","0.0-1.0-758.0","0","0","30037","","null","","","null","84","","","","","","","","","","","","","","","",""
"","ISI","","html-keyboard-response","542","636382","0.0-1.0-759.0","0","0","30037","","null","","","null","84","NaN","","","","","","","","","","","","","","",""
"","S2","","html-keyboard-response","543","636639","0.0-1.0-760.0","0","0","30037","","null","","","null","84","","NaN","","","","","","","","","","","","","",""
"","response","","html-keyboard-response","544","637822","0.0-1.0-761.0-0.0","0","0","30037","","1182","","","68","84","","","2","84","training","adjacent","DE","4","5","R.jpg","N.jpg","0","1","0","",""
"","feedback","","html-keyboard-response","545","638830","0.0-1.0-762.0-0.0","0","0","30037","","null","","","null","84","","","","","","","","","","","","","","","",""
"","time_out","","html-keyboard-response","546","640838","0.0-1.0-764.0-0.0","0","0","30037","","null","","","null","84","","","","","","","","","","","","","","","",""
"","ITI","","html-keyboard-response","547","641847","0.0-1.0-765.0","0","0","30037","","null","","","null","84","","","","","","","","","","","","","","","NaN",""
"","S1","","html-keyboard-response","548","642102","0.0-1.0-767.0","0","0","30037","","null","","","null","85","","","","","","","","","","","","","","","",""
"","ISI","","html-keyboard-response","549","642605","0.0-1.0-768.0","0","0","30037","","null","","","null","85","NaN","","","","","","","","","","","","","","",""
"","S2","","html-keyboard-response","550","642863","0.0-1.0-769.0","0","0","30037","","null","","","null","85","","NaN","","","","","","","","","","","","","",""
"","response","","html-keyboard-response","551","643847","0.0-1.0-770.0-0.0","0","0","30037","","982","","","75","85","","","2","85","training","adjacent","FG","6","7","M.jpg","O.jpg","1","1","1","",""
"","feedback","","html-keyboard-response","552","644984","0.0-1.0-771.0-0.0","0","0","30037","","null","","","null","85","","","","","","","","","","","","","","","",""
"","ITI","","html-keyboard-response","553","645999","0.0-1.0-774.0","0","0","30037","","null","","","null","85","","","","","","","","","","","","","","","NaN",""
"","S1","","html-keyboard-response","554","646254","0.0-1.0-776.0","0","0","30037","","null","","","null","86","","","","","","","","","","","","","","","",""
"","ISI","","html-keyboard-response","555","646758","0.0-1.0-777.0","0","0","30037","","null","","","null","86","NaN","","","","","","","","","","","","","","",""
"","S2","","html-keyboard-response","556","647014","0.0-1.0-778.0","0","0","30037","","null","","","null","86","","NaN","","","","","","","","","","","","","",""
"","response","","html-keyboard-response","557","647857","0.0-1.0-779.0-0.0","0","0","30037","","841","","","68","86","","","2","86","training","adjacent","DC","4","3","R.jpg","P.jpg","0","0","1","",""
"","feedback","","html-keyboard-response","558","648863","0.0-1.0-780.0-0.0","0","0","30037","","null","","","null","86","","","","","","","","","","","","","","","",""
"","ITI","","html-keyboard-response","559","649870","0.0-1.0-783.0","0","0","30037","","null","","","null","86","","","","","","","","","","","","","","","NaN",""
"","S1","","html-keyboard-response","560","650125","0.0-1.0-785.0","0","0","30037","","null","","","null","87","","","","","","","","","","","","","","","",""
"","ISI","","html-keyboard-response","561","650631","0.0-1.0-786.0","0","0","30037","","null","","","null","87","NaN","","","","","","","","","","","","","","",""
"","S2","","html-keyboard-response","562","650887","0.0-1.0-787.0","0","0","30037","","null","","","null","87","","NaN","","","","","","","","","","","","","",""
"","response","","html-keyboard-response","563","651734","0.0-1.0-788.0-0.0","0","0","30037","","845","","","68","87","","","2","87","training","adjacent","FG","6","7","M.jpg","O.jpg","0","1","0","",""
"","feedback","","html-keyboard-response","564","652742","0.0-1.0-789.0-0.0","0","0","30037","","null","","","null","87","","","","","","","","","","","","","","","",""
"","time_out","","html-keyboard-response","565","654751","0.0-1.0-791.0-0.0","0","0","30037","","null","","","null","87","","","","","","","","","","","","","","","",""
"","ITI","","html-keyboard-response","566","655920","0.0-1.0-792.0","0","0","30037","","null","","","null","87","","","","","","","","","","","","","","","NaN",""
"","S1","","html-keyboard-response","567","656938","0.0-1.0-794.0","0","0","30037","","null","","","null","88","","","","","","","","","","","","","","","",""
"","ISI","","html-keyboard-response","568","657445","0.0-1.0-795.0","0","0","30037","","51","","","75","88","k","","","","","","","","","","","","","","",""
"","S2","","html-keyboard-response","569","657702","0.0-1.0-796.0","0","0","30037","","null","","","null","88","","NaN","","","","","","","","","","","","","",""
"","response","","html-keyboard-response","570","658306","0.0-1.0-797.0-0.0","0","0","30037","","602","","","75","88","","","2","88","training","adjacent","DE","4","5","R.jpg","N.jpg","1","1","1","",""
"","feedback","","html-keyboard-response","571","659317","0.0-1.0-798.0-0.0","0","0","30037","","null","","","null","88","","","","","","","","","","","","","","","",""
"","ITI","","html-keyboard-response","572","660325","0.0-1.0-801.0","0","0","30037","","null","","","null","88","","","","","","","","","","","","","","","NaN",""
"","S1","","html-keyboard-response","573","660581","0.0-1.0-803.0","0","0","30037","","null","","","null","89","","","","","","","","","","","","","","","",""
"","ISI","","html-keyboard-response","574","661085","0.0-1.0-804.0","0","0","30037","","null","","","null","89","NaN","","","","","","","","","","","","","","",""
"","S2","","html-keyboard-response","575","661216","0.0-1.0-805.0","0","0","30037","","128","","","75","89","","k","2","89","training","adjacent","BA","2","1","L.jpg","Q.jpg","1","0","0","",""
"","feedback","","html-keyboard-response","576","662221","0.0-1.0-807.0-0.0","0","0","30037","","null","","","null","89","","","","","","","","","","","","","","","",""
"","time_out","","html-keyboard-response","577","664229","0.0-1.0-809.0-0.0","0","0","30037","","null","","","null","89","","","","","","","","","","","","","","","",""
"","ITI","","html-keyboard-response","578","665253","0.0-1.0-810.0","0","0","30037","","null","","","null","89","","","","","","","","","","","","","","","NaN",""
"","S1","","html-keyboard-response","579","665510","0.0-1.0-812.0","0","0","30037","","null","","","null","90","","","","","","","","","","","","","","","",""
"","ISI","","html-keyboard-response","580","666014","0.0-1.0-813.0","0","0","30037","","null","","","null","90","NaN","","","","","","","","","","","","","","",""
