"success","ttype","start_time","trial_type","trial_index","time_elapsed","internal_node_id","warning","missed_checkup","PID","view_history","rt","responses","repeat_instructions","key_press","index","keypress_isi","keypress_S2","block","trial_num","phase","group_type","pair_type","S1_stim","S2_stim","S1_img","S2_img","S1_chosen","S1_higher","accuracy","keypress_iti","total_bonus_tally"
"true","full_screen","d04132023hr1858","fullscreen","0","16449","0.0-0.0","0","0","55257","","","","","","","","","","","","","","","","","","","","","",""
"","instructions","","instructions","1","105582","0.0-1.0-0.0-0.0","0","0","55257","[{""page_index"":0,""viewing_time"":11256},{""page_index"":1,""viewing_time"":57042},{""page_index"":2,""viewing_time"":16239},{""page_index"":3,""viewing_time"":4592}]","89129","","","","","","","","","","","","","","","","","","","",""
"","comprehension_check","","survey-multi-choice","2","166812","0.0-1.0-0.0-1.0","0","0","55257","","61227","{""Q0"":""True"",""Q1"":""K"",""Q2"":""Only when the screen 'MAKE A CHOICE' is shown"",""Q3"":""Green mark"",""Q4"":""either D or K""}","1","","","","","","","","","","","","","","","","","",""
"","missed_instruction_checkup","","html-keyboard-response","3","170276","0.0-1.0-0.0-2.0-0.0","0","1","55257","","3462","","","32","","","","","","","","","","","","","","","","",""
"","instructions","","instructions","4","197316","0.0-1.0-0.1-0.1","0","0","55257","[{""page_index"":0,""viewing_time"":4222},{""page_index"":1,""viewing_time"":18440},{""page_index"":2,""viewing_time"":3256},{""page_index"":3,""viewing_time"":1120}]","27038","","","","","","","","","","","","","","","","","","","",""
"","comprehension_check","","survey-multi-choice","5","222646","0.0-1.0-0.1-1.1","0","0","55257","","25326","{""Q0"":""False"",""Q1"":""K"",""Q2"":""Once the second image appears and while the screen 'MAKE A CHOICE' is shown"",""Q3"":""Green mark"",""Q4"":""either D or K""}","1","","","","","","","","","","","","","","","","","",""
"","missed_instruction_checkup","","html-keyboard-response","6","224820","0.0-1.0-0.1-2.1-0.1","0","1","55257","","2172","","","32","","","","","","","","","","","","","","","","",""
"","instructions","","instructions","7","236157","0.0-1.0-0.2-0.2","0","0","55257","[{""page_index"":0,""viewing_time"":2807},{""page_index"":1,""viewing_time"":5167},{""page_index"":2,""viewing_time"":2657},{""page_index"":3,""viewing_time"":704}]","11335","","","","","","","","","","","","","","","","","","","",""
"","comprehension_check","","survey-multi-choice","8","251461","0.0-1.0-0.2-1.2","0","0","55257","","15302","{""Q0"":""True"",""Q1"":""K"",""Q2"":""Once the second image appears and while the screen 'MAKE A CHOICE' is shown"",""Q3"":""Green mark"",""Q4"":""either D or K""}","0","","","","","","","","","","","","","","","","","",""
"","start_exp","","html-keyboard-response","9","254364","0.0-1.0-1.0","0","0","55257","","2900","","","32","","","","","","","","","","","","","","","","",""
"","S1","","html-keyboard-response","10","254625","0.0-1.0-2.0","0","0","55257","","null","","","null","0","","","","","","","","","","","","","","","",""
"","ISI","","html-keyboard-response","11","255633","0.0-1.0-3.0","0","0","55257","","null","","","null","0","NaN","","","","","","","","","","","","","","",""
"","S2","","html-keyboard-response","12","255897","0.0-1.0-4.0","0","0","55257","","null","","","null","0","","NaN","","","","","","","","","","","","","",""
"","response","","html-keyboard-response","13","256804","0.0-1.0-5.0-0.0","0","0","55257","","904","","","75","0","","","1","0","training","adjacent","FG","6","7","L.jpg","N.jpg","1","1","1","",""
"","feedback","","html-keyboard-response","14","257806","0.0-1.0-6.0-0.0","0","0","55257","","null","","","null","0","","","","","","","","","","","","","","","",""
"","ITI","","html-keyboard-response","15","258815","0.0-1.0-9.0","0","0","55257","","null","","","null","0","","","","","","","","","","","","","","","NaN",""
"","S1","","html-keyboard-response","16","259080","0.0-1.0-11.0","0","0","55257","","null","","","null","1","","","","","","","","","","","","","","","",""
"","ISI","","html-keyboard-response","17","260093","0.0-1.0-12.0","0","0","55257","","null","","","null","1","NaN","","","","","","","","","","","","","","",""
"","S2","","html-keyboard-response","18","260357","0.0-1.0-13.0","0","0","55257","","null","","","null","1","","NaN","","","","","","","","","","","","","",""
"","response","","html-keyboard-response","19","260916","0.0-1.0-14.0-0.0","0","0","55257","","557","","","68","1","","","1","1","training","adjacent","DC","4","3","R.jpg","P.jpg","0","0","1","",""
"","feedback","","html-keyboard-response","20","261924","0.0-1.0-15.0-0.0","0","0","55257","","null","","","null","1","","","","","","","","","","","","","","","",""
"","ITI","","html-keyboard-response","21","262934","0.0-1.0-18.0","0","0","55257","","null","","","null","1","","","","","","","","","","","","","","","NaN",""
"","S1","","html-keyboard-response","22","263195","0.0-1.0-20.0","0","0","55257","","null","","","null","2","","","","","","","","","","","","","","","",""
"","ISI","","html-keyboard-response","23","264205","0.0-1.0-21.0","0","0","55257","","null","","","null","2","NaN","","","","","","","","","","","","","","",""
"","S2","","html-keyboard-response","24","264468","0.0-1.0-22.0","0","0","55257","","null","","","null","2","","NaN","","","","","","","","","","","","","",""
"","response","","html-keyboard-response","25","265268","0.0-1.0-23.0-0.0","0","0","55257","","797","","","75","2","","","1","2","training","adjacent","FG","6","7","L.jpg","N.jpg","1","1","1","",""
"","feedback","","html-keyboard-response","26","266281","0.0-1.0-24.0-0.0","0","0","55257","","null","","","null","2","","","","","","","","","","","","","","","",""
"","ITI","","html-keyboard-response","27","267293","0.0-1.0-27.0","0","0","55257","","null","","","null","2","","","","","","","","","","","","","","","NaN",""
"","S1","","html-keyboard-response","28","267556","0.0-1.0-29.0","0","0","55257","","null","","","null","3","","","","","","","","","","","","","","","",""
"","ISI","","html-keyboard-response","29","268567","0.0-1.0-30.0","0","0","55257","","null","","","null","3","NaN","","","","","","","","","","","","","","",""
"","S2","","html-keyboard-response","30","268830","0.0-1.0-31.0","0","0","55257","","null","","","null","3","","NaN","","","","","","","","","","","","","",""
"","response","","html-keyboard-response","31","269444","0.0-1.0-32.0-0.0","0","0","55257","","612","","","75","3","","","1","3","training","adjacent","DE","4","5","R.jpg","Q.jpg","1","1","1","",""
"","feedback","","html-keyboard-response","32","270448","0.0-1.0-33.0-0.0","0","0","55257","","null","","","null","3","","","","","","","","","","","","","","","",""
"","ITI","","html-keyboard-response","33","271455","0.0-1.0-36.0","0","0","55257","","null","","","null","3","","","","","","","","","","","","","","","NaN",""
"","S1","","html-keyboard-response","34","271719","0.0-1.0-38.0","0","0","55257","","null","","","null","4","","","","","","","","","","","","","","","",""
"","ISI","","html-keyboard-response","35","272734","0.0-1.0-39.0","0","0","55257","","null","","","null","4","NaN","","","","","","","","","","","","","","",""
"","S2","","html-keyboard-response","36","272999","0.0-1.0-40.0","0","0","55257","","null","","","null","4","","NaN","","","","","","","","","","","","","",""
"","response","","html-keyboard-response","37","273516","0.0-1.0-41.0-0.0","0","0","55257","","515","","","68","4","","","1","4","training","adjacent","GF","7","6","N.jpg","L.jpg","0","0","1","",""
"","feedback","","html-keyboard-response","38","274526","0.0-1.0-42.0-0.0","0","0","55257","","null","","","null","4","","","","","","","","","","","","","","","",""
"","ITI","","html-keyboard-response","39","275535","0.0-1.0-45.0","0","0","55257","","null","","","null","4","","","","","","","","","","","","","","","NaN",""
"","S1","","html-keyboard-response","40","275797","0.0-1.0-47.0","0","0","55257","","null","","","null","5","","","","","","","","","","","","","","","",""
"","ISI","","html-keyboard-response","41","276807","0.0-1.0-48.0","0","0","55257","","null","","","null","5","NaN","","","","","","","","","","","","","","",""
"","S2","","html-keyboard-response","42","277071","0.0-1.0-49.0","0","0","55257","","null","","","null","5","","NaN","","","","","","","","","","","","","",""
"","response","","html-keyboard-response","43","277444","0.0-1.0-50.0-0.0","0","0","55257","","371","","","75","5","","","1","5","training","adjacent","FE","6","5","L.jpg","Q.jpg","1","0","0","",""
"","feedback","","html-keyboard-response","44","278452","0.0-1.0-51.0-0.0","0","0","55257","","null","","","null","5","","","","","","","","","","","","","","","",""
"","time_out","","html-keyboard-response","45","280464","0.0-1.0-53.0-0.0","0","0","55257","","null","","","null","5","","","","","","","","","","","","","","","",""
"","ITI","","html-keyboard-response","46","281477","0.0-1.0-54.0","0","0","55257","","null","","","null","5","","","","","","","","","","","","","","","NaN",""
"","S1","","html-keyboard-response","47","281739","0.0-1.0-56.0","0","0","55257","","null","","","null","6","","","","","","","","","","","","","","","",""
"","ISI","","html-keyboard-response","48","282751","0.0-1.0-57.0","0","0","55257","","null","","","null","6","NaN","","","","","","","","","","","","","","",""
"","S2","","html-keyboard-response","49","283015","0.0-1.0-58.0","0","0","55257","","null","","","null","6","","NaN","","","","","","","","","","","","","",""
"","response","","html-keyboard-response","50","283580","0.0-1.0-59.0-0.0","0","0","55257","","563","","","68","6","","","1","6","training","adjacent","CB","3","2","P.jpg","O.jpg","0","0","1","",""
"","feedback","","html-keyboard-response","51","284588","0.0-1.0-60.0-0.0","0","0","55257","","null","","","null","6","","","","","","","","","","","","","","","",""
"","ITI","","html-keyboard-response","52","285599","0.0-1.0-63.0","0","0","55257","","null","","","null","6","","","","","","","","","","","","","","","NaN",""
"","S1","","html-keyboard-response","53","285863","0.0-1.0-65.0","0","0","55257","","null","","","null","7","","","","","","","","","","","","","","","",""
"","ISI","","html-keyboard-response","54","286870","0.0-1.0-66.0","0","0","55257","","null","","","null","7","NaN","","","","","","","","","","","","","","",""
"","S2","","html-keyboard-response","55","287133","0.0-1.0-67.0","0","0","55257","","null","","","null","7","","NaN","","","","","","","","","","","","","",""
"","response","","html-keyboard-response","56","288020","0.0-1.0-68.0-0.0","0","0","55257","","886","","","68","7","","","1","7","training","adjacent","GF","7","6","N.jpg","L.jpg","0","0","1","",""
"","feedback","","html-keyboard-response","57","289028","0.0-1.0-69.0-0.0","0","0","55257","","null","","","null","7","","","","","","","","","","","","","","","",""
"","ITI","","html-keyboard-response","58","290033","0.0-1.0-72.0","0","0","55257","","null","","","null","7","","","","","","","","","","","","","","","NaN",""
"","S1","","html-keyboard-response","59","290298","0.0-1.0-74.0","0","0","55257","","null","","","null","8","","","","","","","","","","","","","","","",""
"","ISI","","html-keyboard-response","60","291310","0.0-1.0-75.0","0","0","55257","","null","","","null","8","NaN","","","","","","","","","","","","","","",""
"","S2","","html-keyboard-response","61","291562","0.0-1.0-76.0","0","0","55257","","null","","","null","8","","NaN","","","","","","","","","","","","","",""
"","response","","html-keyboard-response","62","292356","0.0-1.0-77.0-0.0","0","0","55257","","792","","","68","8","","","1","8","training","adjacent","EF","5","6","Q.jpg","L.jpg","0","1","0","",""
"","feedback","","html-keyboard-response","63","293363","0.0-1.0-78.0-0.0","0","0","55257","","null","","","null","8","","","","","","","","","","","","","","","",""
"","time_out","","html-keyboard-response","64","295373","0.0-1.0-80.0-0.0","0","0","55257","","null","","","null","8","","","","","","","","","","","","","","","",""
"","ITI","","html-keyboard-response","65","296382","0.0-1.0-81.0","0","0","55257","","null","","","null","8","","","","","","","","","","","","","","","NaN",""
"","S1","","html-keyboard-response","66","296643","0.0-1.0-83.0","0","0","55257","","null","","","null","9","","","","","","","","","","","","","","","",""
"","ISI","","html-keyboard-response","67","297656","0.0-1.0-84.0","0","0","55257","","null","","","null","9","NaN","","","","","","","","","","","","","","",""
"","S2","","html-keyboard-response","68","297921","0.0-1.0-85.0","0","0","55257","","null","","","null","9","","NaN","","","","","","","","","","","","","",""
"","response","","html-keyboard-response","69","298676","0.0-1.0-86.0-0.0","0","0","55257","","753","","","68","9","","","1","9","training","adjacent","DC","4","3","R.jpg","P.jpg","0","0","1","",""
"","feedback","","html-keyboard-response","70","299683","0.0-1.0-87.0-0.0","0","0","55257","","null","","","null","9","","","","","","","","","","","","","","","",""
"","ITI","","html-keyboard-response","71","300693","0.0-1.0-90.0","0","0","55257","","null","","","null","9","","","","","","","","","","","","","","","NaN",""
"","S1","","html-keyboard-response","72","300959","0.0-1.0-92.0","0","0","55257","","null","","","null","10","","","","","","","","","","","","","","","",""
"","ISI","","html-keyboard-response","73","301966","0.0-1.0-93.0","0","0","55257","","null","","","null","10","NaN","","","","","","","","","","","","","","",""
"","S2","","html-keyboard-response","74","302228","0.0-1.0-94.0","0","0","55257","","null","","","null","10","","NaN","","","","","","","","","","","","","",""
"","response","","html-keyboard-response","75","302908","0.0-1.0-95.0-0.0","0","0","55257","","679","","","75","10","","","1","10","training","adjacent","AB","1","2","M.jpg","O.jpg","1","1","1","",""
"","feedback","","html-keyboard-response","76","303922","0.0-1.0-96.0-0.0","0","0","55257","","null","","","null","10","","","","","","","","","","","","","","","",""
"","ITI","","html-keyboard-response","77","304937","0.0-1.0-99.0","0","0","55257","","null","","","null","10","","","","","","","","","","","","","","","NaN",""
"","S1","","html-keyboard-response","78","305198","0.0-1.0-101.0","0","0","55257","","null","","","null","11","","","","","","","","","","","","","","","",""
"","ISI","","html-keyboard-response","79","306213","0.0-1.0-102.0","0","0","55257","","null","","","null","11","NaN","","","","","","","","","","","","","","",""
"","S2","","html-keyboard-response","80","306465","0.0-1.0-103.0","0","0","55257","","null","","","null","11","","NaN","","","","","","","","","","","","","",""
"","response","","html-keyboard-response","81","307348","0.0-1.0-104.0-0.0","0","0","55257","","880","","","68","11","","","1","11","training","adjacent","DE","4","5","R.jpg","Q.jpg","0","1","0","",""
"","feedback","","html-keyboard-response","82","308364","0.0-1.0-105.0-0.0","0","0","55257","","null","","","null","11","","","","","","","","","","","","","","","",""
"","time_out","","html-keyboard-response","83","310374","0.0-1.0-107.0-0.0","0","0","55257","","null","","","null","11","","","","","","","","","","","","","","","",""
"","ITI","","html-keyboard-response","84","311378","0.0-1.0-108.0","0","0","55257","","null","","","null","11","","","","","","","","","","","","","","","NaN",""
"","S1","","html-keyboard-response","85","311642","0.0-1.0-110.0","0","0","55257","","null","","","null","12","","","","","","","","","","","","","","","",""
"","ISI","","html-keyboard-response","86","312654","0.0-1.0-111.0","0","0","55257","","null","","","null","12","NaN","","","","","","","","","","","","","","",""
"","S2","","html-keyboard-response","87","312917","0.0-1.0-112.0","0","0","55257","","null","","","null","12","","NaN","","","","","","","","","","","","","",""
"","response","","html-keyboard-response","88","313500","0.0-1.0-113.0-0.0","0","0","55257","","580","","","75","12","","","1","12","training","adjacent","FG","6","7","L.jpg","N.jpg","1","1","1","",""
"","feedback","","html-keyboard-response","89","314505","0.0-1.0-114.0-0.0","0","0","55257","","null","","","null","12","","","","","","","","","","","","","","","",""
"","ITI","","html-keyboard-response","90","315515","0.0-1.0-117.0","0","0","55257","","null","","","null","12","","","","","","","","","","","","","","","NaN",""
"","S1","","html-keyboard-response","91","315779","0.0-1.0-119.0","0","0","55257","","null","","","null","13","","","","","","","","","","","","","","","",""
"","ISI","","html-keyboard-response","92","316795","0.0-1.0-120.0","0","0","55257","","null","","","null","13","NaN","","","","","","","","","","","","","","",""
"","S2","","html-keyboard-response","93","317063","0.0-1.0-121.0","0","0","55257","","null","","","null","13","","NaN","","","","","","","","","","","","","",""
"","response","","html-keyboard-response","94","317836","0.0-1.0-122.0-0.0","0","0","55257","","772","","","75","13","","","1","13","training","adjacent","EF","5","6","Q.jpg","L.jpg","1","1","1","",""
"","feedback","","html-keyboard-response","95","318847","0.0-1.0-123.0-0.0","0","0","55257","","null","","","null","13","","","","","","","","","","","","","","","",""
"","ITI","","html-keyboard-response","96","319859","0.0-1.0-126.0","0","0","55257","","null","","","null","13","","","","","","","","","","","","","","","NaN",""
"","S1","","html-keyboard-response","97","320122","0.0-1.0-128.0","0","0","55257","","null","","","null","14","","","","","","","","","","","","","","","",""
"","ISI","","html-keyboard-response","98","321130","0.0-1.0-129.0","0","0","55257","","null","","","null","14","NaN","","","","","","","","","","","","","","",""
"","S2","","html-keyboard-response","99","321395","0.0-1.0-130.0","0","0","55257","","null","","","null","14","","NaN","","","","","","","","","","","","","",""
"","response","","html-keyboard-response","100","322268","0.0-1.0-131.0-0.0","0","0","55257","","871","","","68","14","","","1","14","training","adjacent","CB","3","2","P.jpg","O.jpg","0","0","1","",""
"","feedback","","html-keyboard-response","101","323271","0.0-1.0-132.0-0.0","0","0","55257","","null","","","null","14","","","","","","","","","","","","","","","",""
"","ITI","","html-keyboard-response","102","324283","0.0-1.0-135.0","0","0","55257","","null","","","null","14","","","","","","","","","","","","","","","NaN",""
"","S1","","html-keyboard-response","103","324550","0.0-1.0-137.0","0","0","55257","","null","","","null","15","","","","","","","","","","","","","","","",""
"","ISI","","html-keyboard-response","104","325555","0.0-1.0-138.0","0","0","55257","","null","","","null","15","NaN","","","","","","","","","","","","","","",""
"","S2","","html-keyboard-response","105","325822","0.0-1.0-139.0","0","0","55257","","null","","","null","15","","NaN","","","","","","","","","","","","","",""
"","response","","html-keyboard-response","106","326540","0.0-1.0-140.0-0.0","0","0","55257","","717","","","68","15","","","1","15","training","adjacent","BC","2","3","O.jpg","P.jpg","0","1","0","",""
"","feedback","","html-keyboard-response","107","327544","0.0-1.0-141.0-0.0","0","0","55257","","null","","","null","15","","","","","","","","","","","","","","","",""
"","time_out","","html-keyboard-response","108","329552","0.0-1.0-143.0-0.0","0","0","55257","","null","","","null","15","","","","","","","","","","","","","","","",""
"","ITI","","html-keyboard-response","109","330565","0.0-1.0-144.0","0","0","55257","","null","","","null","15","","","","","","","","","","","","","","","NaN",""
"","S1","","html-keyboard-response","110","330827","0.0-1.0-146.0","0","0","55257","","null","","","null","16","","","","","","","","","","","","","","","",""
"","ISI","","html-keyboard-response","111","331830","0.0-1.0-147.0","0","0","55257","","null","","","null","16","NaN","","","","","","","","","","","","","","",""
"","S2","","html-keyboard-response","112","332092","0.0-1.0-148.0","0","0","55257","","null","","","null","16","","NaN","","","","","","","","","","","","","",""
"","response","","html-keyboard-response","113","332827","0.0-1.0-149.0-0.0","0","0","55257","","734","","","68","16","","","1","16","training","adjacent","DE","4","5","R.jpg","Q.jpg","0","1","0","",""
"","feedback","","html-keyboard-response","114","333842","0.0-1.0-150.0-0.0","0","0","55257","","null","","","null","16","","","","","","","","","","","","","","","",""
"","time_out","","html-keyboard-response","115","335849","0.0-1.0-152.0-0.0","0","0","55257","","null","","","null","16","","","","","","","","","","","","","","","",""
"","ITI","","html-keyboard-response","116","336860","0.0-1.0-153.0","0","0","55257","","null","","","null","16","","","","","","","","","","","","","","","NaN",""
"","S1","","html-keyboard-response","117","337122","0.0-1.0-155.0","0","0","55257","","null","","","null","17","","","","","","","","","","","","","","","",""
"","ISI","","html-keyboard-response","118","338127","0.0-1.0-156.0","0","0","55257","","null","","","null","17","NaN","","","","","","","","","","","","","","",""
"","S2","","html-keyboard-response","119","338388","0.0-1.0-157.0","0","0","55257","","null","","","null","17","","NaN","","","","","","","","","","","","","",""
"","response","","html-keyboard-response","120","338843","0.0-1.0-158.0-0.0","0","0","55257","","454","","","75","17","","","1","17","training","adjacent","FE","6","5","L.jpg","Q.jpg","1","0","0","",""
"","feedback","","html-keyboard-response","121","339853","0.0-1.0-159.0-0.0","0","0","55257","","null","","","null","17","","","","","","","","","","","","","","","",""
"","time_out","","html-keyboard-response","122","341857","0.0-1.0-161.0-0.0","0","0","55257","","null","","","null","17","","","","","","","","","","","","","","","",""
"","ITI","","html-keyboard-response","123","342866","0.0-1.0-162.0","0","0","55257","","null","","","null","17","","","","","","","","","","","","","","","NaN",""
"","S1","","html-keyboard-response","124","343131","0.0-1.0-164.0","0","0","55257","","null","","","null","18","","","","","","","","","","","","","","","",""
"","ISI","","html-keyboard-response","125","344139","0.0-1.0-165.0","0","0","55257","","null","","","null","18","NaN","","","","","","","","","","","","","","",""
"","S2","","html-keyboard-response","126","344405","0.0-1.0-166.0","0","0","55257","","null","","","null","18","","NaN","","","","","","","","","","","","","",""
"","response","","html-keyboard-response","127","344955","0.0-1.0-167.0-0.0","0","0","55257","","549","","","75","18","","","1","18","training","adjacent","FG","6","7","L.jpg","N.jpg","1","1","1","",""
"","feedback","","html-keyboard-response","128","345961","0.0-1.0-168.0-0.0","0","0","55257","","null","","","null","18","","","","","","","","","","","","","","","",""
"","ITI","","html-keyboard-response","129","346970","0.0-1.0-171.0","0","0","55257","","null","","","null","18","","","","","","","","","","","","","","","NaN",""
"","S1","","html-keyboard-response","130","347234","0.0-1.0-173.0","0","0","55257","","null","","","null","19","","","","","","","","","","","","","","","",""
"","ISI","","html-keyboard-response","131","348244","0.0-1.0-174.0","0","0","55257","","null","","","null","19","NaN","","","","","","","","","","","","","","",""
"","S2","","html-keyboard-response","132","348508","0.0-1.0-175.0","0","0","55257","","null","","","null","19","","NaN","","","","","","","","","","","","","",""
"","response","","html-keyboard-response","133","349227","0.0-1.0-176.0-0.0","0","0","55257","","718","","","68","19","","","1","19","training","adjacent","BC","2","3","O.jpg","P.jpg","0","1","0","",""
"","feedback","","html-keyboard-response","134","350237","0.0-1.0-177.0-0.0","0","0","55257","","null","","","null","19","","","","","","","","","","","","","","","",""
"","time_out","","html-keyboard-response","135","352244","0.0-1.0-179.0-0.0","0","0","55257","","null","","","null","19","","","","","","","","","","","","","","","",""
"","ITI","","html-keyboard-response","136","353257","0.0-1.0-180.0","0","0","55257","","null","","","null","19","","","","","","","","","","","","","","","NaN",""
"","S1","","html-keyboard-response","137","353522","0.0-1.0-182.0","0","0","55257","","null","","","null","20","","","","","","","","","","","","","","","",""
"","ISI","","html-keyboard-response","138","354530","0.0-1.0-183.0","0","0","55257","","null","","","null","20","NaN","","","","","","","","","","","","","","",""
"","S2","","html-keyboard-response","139","354794","0.0-1.0-184.0","0","0","55257","","null","","","null","20","","NaN","","","","","","","","","","","","","",""
"","response","","html-keyboard-response","140","355508","0.0-1.0-185.0-0.0","0","0","55257","","713","","","68","20","","","1","20","training","adjacent","BA","2","1","O.jpg","M.jpg","0","0","1","",""
"","feedback","","html-keyboard-response","141","356518","0.0-1.0-186.0-0.0","0","0","55257","","null","","","null","20","","","","","","","","","","","","","","","",""
"","ITI","","html-keyboard-response","142","357528","0.0-1.0-189.0","0","0","55257","","null","","","null","20","","","","","","","","","","","","","","","NaN",""
"","S1","","html-keyboard-response","143","357794","0.0-1.0-191.0","0","0","55257","","null","","","null","21","","","","","","","","","","","","","","","",""
"","ISI","","html-keyboard-response","144","358806","0.0-1.0-192.0","0","0","55257","","null","","","null","21","NaN","","","","","","","","","","","","","","",""
"","S2","","html-keyboard-response","145","359069","0.0-1.0-193.0","0","0","55257","","null","","","null","21","","NaN","","","","","","","","","","","","","",""
"","response","","html-keyboard-response","146","359828","0.0-1.0-194.0-0.0","0","0","55257","","756","","","68","21","","","1","21","training","adjacent","DC","4","3","R.jpg","P.jpg","0","0","1","",""
"","feedback","","html-keyboard-response","147","360839","0.0-1.0-195.0-0.0","0","0","55257","","null","","","null","21","","","","","","","","","","","","","","","",""
"","ITI","","html-keyboard-response","148","361854","0.0-1.0-198.0","0","0","55257","","null","","","null","21","","","","","","","","","","","","","","","NaN",""
"","S1","","html-keyboard-response","149","362116","0.0-1.0-200.0","0","0","55257","","null","","","null","22","","","","","","","","","","","","","","","",""
"","ISI","","html-keyboard-response","150","363130","0.0-1.0-201.0","0","0","55257","","null","","","null","22","NaN","","","","","","","","","","","","","","",""
"","S2","","html-keyboard-response","151","363394","0.0-1.0-202.0","0","0","55257","","null","","","null","22","","NaN","","","","","","","","","","","","","",""
"","response","","html-keyboard-response","152","364123","0.0-1.0-203.0-0.0","0","0","55257","","729","","","75","22","","","1","22","training","adjacent","BA","2","1","O.jpg","M.jpg","1","0","0","",""
"","feedback","","html-keyboard-response","153","365131","0.0-1.0-204.0-0.0","0","0","55257","","null","","","null","22","","","","","","","","","","","","","","","",""
"","time_out","","html-keyboard-response","154","367137","0.0-1.0-206.0-0.0","0","0","55257","","null","","","null","22","","","","","","","","","","","","","","","",""
"","ITI","","html-keyboard-response","155","368152","0.0-1.0-207.0","0","0","55257","","null","","","null","22","","","","","","","","","","","","","","","NaN",""
"","S1","","html-keyboard-response","156","368418","0.0-1.0-209.0","0","0","55257","","null","","","null","23","","","","","","","","","","","","","","","",""
"","ISI","","html-keyboard-response","157","369433","0.0-1.0-210.0","0","0","55257","","null","","","null","23","NaN","","","","","","","","","","","","","","",""
"","S2","","html-keyboard-response","158","369697","0.0-1.0-211.0","0","0","55257","","null","","","null","23","","NaN","","","","","","","","","","","","","",""
"","response","","html-keyboard-response","159","370795","0.0-1.0-212.0-0.0","0","0","55257","","1097","","","75","23","","","1","23","training","adjacent","DC","4","3","R.jpg","P.jpg","1","0","0","",""
"","feedback","","html-keyboard-response","160","371807","0.0-1.0-213.0-0.0","0","0","55257","","null","","","null","23","","","","","","","","","","","","","","","",""
"","time_out","","html-keyboard-response","161","373815","0.0-1.0-215.0-0.0","0","0","55257","","null","","","null","23","","","","","","","","","","","","","","","",""
"","ITI","","html-keyboard-response","162","374825","0.0-1.0-216.0","0","0","55257","","null","","","null","23","","","","","","","","","","","","","","","NaN",""
"","S1","","html-keyboard-response","163","375089","0.0-1.0-218.0","0","0","55257","","null","","","null","24","","","","","","","","","","","","","","","",""
"","ISI","","html-keyboard-response","164","376097","0.0-1.0-219.0","0","0","55257","","null","","","null","24","NaN","","","","","","","","","","","","","","",""
"","S2","","html-keyboard-response","165","376361","0.0-1.0-220.0","0","0","55257","","null","","","null","24","","NaN","","","","","","","","","","","","","",""
"","response","","html-keyboard-response","166","377468","0.0-1.0-221.0-0.0","0","0","55257","","1105","","","68","24","","","1","24","training","adjacent","FE","6","5","L.jpg","Q.jpg","0","0","1","",""
"","feedback","","html-keyboard-response","167","378483","0.0-1.0-222.0-0.0","0","0","55257","","null","","","null","24","","","","","","","","","","","","","","","",""
"","ITI","","html-keyboard-response","168","379496","0.0-1.0-225.0","0","0","55257","","null","","","null","24","","","","","","","","","","","","","","","NaN",""
"","S1","","html-keyboard-response","169","379760","0.0-1.0-227.0","0","0","55257","","null","","","null","25","","","","","","","","","","","","","","","",""
"","ISI","","html-keyboard-response","170","380766","0.0-1.0-228.0","0","0","55257","","null","","","null","25","NaN","","","","","","","","","","","","","","",""
"","S2","","html-keyboard-response","171","381031","0.0-1.0-229.0","0","0","55257","","null","","","null","25","","NaN","","","","","","","","","","","","","",""
"","response","","html-keyboard-response","172","381852","0.0-1.0-230.0-0.0","0","0","55257","","819","","","75","25","","","1","25","training","adjacent","AB","1","2","M.jpg","O.jpg","1","1","1","",""
"","feedback","","html-keyboard-response","173","382855","0.0-1.0-231.0-0.0","0","0","55257","","null","","","null","25","","","","","","","","","","","","","","","",""
"","ITI","","html-keyboard-response","174","383864","0.0-1.0-234.0","0","0","55257","","null","","","null","25","","","","","","","","","","","","","","","NaN",""
"","S1","","html-keyboard-response","175","384130","0.0-1.0-236.0","0","0","55257","","null","","","null","26","","","","","","","","","","","","","","","",""
"","ISI","","html-keyboard-response","176","385141","0.0-1.0-237.0","0","0","55257","","null","","","null","26","NaN","","","","","","","","","","","","","","",""
"","S2","","html-keyboard-response","177","385403","0.0-1.0-238.0","0","0","55257","","null","","","null","26","","NaN","","","","","","","","","","","","","",""
"","response","","html-keyboard-response","178","386500","0.0-1.0-239.0-0.0","0","0","55257","","1096","","","68","26","","","1","26","training","adjacent","BA","2","1","O.jpg","M.jpg","0","0","1","",""
"","feedback","","html-keyboard-response","179","387503","0.0-1.0-240.0-0.0","0","0","55257","","null","","","null","26","","","","","","","","","","","","","","","",""
"","ITI","","html-keyboard-response","180","388515","0.0-1.0-243.0","0","0","55257","","null","","","null","26","","","","","","","","","","","","","","","NaN",""
"","S1","","html-keyboard-response","181","388780","0.0-1.0-245.0","0","0","55257","","null","","","null","27","","","","","","","","","","","","","","","",""
"","ISI","","html-keyboard-response","182","389786","0.0-1.0-246.0","0","0","55257","","null","","","null","27","NaN","","","","","","","","","","","","","","",""
"","S2","","html-keyboard-response","183","390051","0.0-1.0-247.0","0","0","55257","","null","","","null","27","","NaN","","","","","","","","","","","","","",""
"","response","","html-keyboard-response","184","391172","0.0-1.0-248.0-0.0","0","0","55257","","1119","","","68","27","","","1","27","training","adjacent","AB","1","2","M.jpg","O.jpg","0","1","0","",""
"","feedback","","html-keyboard-response","185","392181","0.0-1.0-249.0-0.0","0","0","55257","","null","","","null","27","","","","","","","","","","","","","","","",""
"","time_out","","html-keyboard-response","186","394189","0.0-1.0-251.0-0.0","0","0","55257","","null","","","null","27","","","","","","","","","","","","","","","",""
"","ITI","","html-keyboard-response","187","395197","0.0-1.0-252.0","0","0","55257","","null","","","null","27","","","","","","","","","","","","","","","NaN",""
"","S1","","html-keyboard-response","188","395460","0.0-1.0-254.0","0","0","55257","","null","","","null","28","","","","","","","","","","","","","","","",""
"","ISI","","html-keyboard-response","189","396468","0.0-1.0-255.0","0","0","55257","","null","","","null","28","NaN","","","","","","","","","","","","","","",""
"","S2","","html-keyboard-response","190","396731","0.0-1.0-256.0","0","0","55257","","null","","","null","28","","NaN","","","","","","","","","","","","","",""
"","response","","html-keyboard-response","191","397827","0.0-1.0-257.0-0.0","0","0","55257","","1095","","","75","28","","","1","28","training","adjacent","EF","5","6","Q.jpg","L.jpg","1","1","1","",""
"","feedback","","html-keyboard-response","192","398838","0.0-1.0-258.0-0.0","0","0","55257","","null","","","null","28","","","","","","","","","","","","","","","",""
"","ITI","","html-keyboard-response","193","399851","0.0-1.0-261.0","0","0","55257","","null","","","null","28","","","","","","","","","","","","","","","NaN",""
"","S1","","html-keyboard-response","194","400118","0.0-1.0-263.0","0","0","55257","","null","","","null","29","","","","","","","","","","","","","","","",""
"","ISI","","html-keyboard-response","195","401127","0.0-1.0-264.0","0","0","55257","","null","","","null","29","NaN","","","","","","","","","","","","","","",""
"","S2","","html-keyboard-response","196","401393","0.0-1.0-265.0","0","0","55257","","null","","","null","29","","NaN","","","","","","","","","","","","","",""
"","response","","html-keyboard-response","197","401916","0.0-1.0-266.0-0.0","0","0","55257","","522","","","68","29","","","1","29","training","adjacent","CB","3","2","P.jpg","O.jpg","0","0","1","",""
"","feedback","","html-keyboard-response","198","402933","0.0-1.0-267.0-0.0","0","0","55257","","null","","","null","29","","","","","","","","","","","","","","","",""
"","ITI","","html-keyboard-response","199","403946","0.0-1.0-270.0","0","0","55257","","null","","","null","29","","","","","","","","","","","","","","","NaN",""
"","S1","","html-keyboard-response","200","404210","0.0-1.0-272.0","0","0","55257","","null","","","null","30","","","","","","","","","","","","","","","",""
"","ISI","","html-keyboard-response","201","405221","0.0-1.0-273.0","0","0","55257","","null","","","null","30","NaN","","","","","","","","","","","","","","",""
"","S2","","html-keyboard-response","202","405484","0.0-1.0-274.0","0","0","55257","","null","","","null","30","","NaN","","","","","","","","","","","","","",""
"","response","","html-keyboard-response","203","406499","0.0-1.0-275.0-0.0","0","0","55257","","1014","","","68","30","","","1","30","training","adjacent","ED","5","4","Q.jpg","R.jpg","0","0","1","",""
"","feedback","","html-keyboard-response","204","407513","0.0-1.0-276.0-0.0","0","0","55257","","null","","","null","30","","","","","","","","","","","","","","","",""
"","ITI","","html-keyboard-response","205","408524","0.0-1.0-279.0","0","0","55257","","null","","","null","30","","","","","","","","","","","","","","","NaN",""
"","S1","","html-keyboard-response","206","408789","0.0-1.0-281.0","0","0","55257","","null","","","null","31","","","","","","","","","","","","","","","",""
"","ISI","","html-keyboard-response","207","409799","0.0-1.0-282.0","0","0","55257","","null","","","null","31","NaN","","","","","","","","","","","","","","",""
"","S2","","html-keyboard-response","208","410065","0.0-1.0-283.0","0","0","55257","","null","","","null","31","","NaN","","","","","","","","","","","","","",""
"","response","","html-keyboard-response","209","411116","0.0-1.0-284.0-0.0","0","0","55257","","1049","","","75","31","","","1","31","training","adjacent","ED","5","4","Q.jpg","R.jpg","1","0","0","",""
"","feedback","","html-keyboard-response","210","412130","0.0-1.0-285.0-0.0","0","0","55257","","null","","","null","31","","","","","","","","","","","","","","","",""
"","time_out","","html-keyboard-response","211","414142","0.0-1.0-287.0-0.0","0","0","55257","","null","","","null","31","","","","","","","","","","","","","","","",""
"","ITI","","html-keyboard-response","212","415157","0.0-1.0-288.0","0","0","55257","","null","","","null","31","","","","","","","","","","","","","","","NaN",""
"","S1","","html-keyboard-response","213","415421","0.0-1.0-290.0","0","0","55257","","null","","","null","32","","","","","","","","","","","","","","","",""
"","ISI","","html-keyboard-response","214","416432","0.0-1.0-291.0","0","0","55257","","null","","","null","32","NaN","","","","","","","","","","","","","","",""
"","S2","","html-keyboard-response","215","416697","0.0-1.0-292.0","0","0","55257","","null","","","null","32","","NaN","","","","","","","","","","","","","",""
"","response","","html-keyboard-response","216","417820","0.0-1.0-293.0-0.0","0","0","55257","","1121","","","75","32","","","1","32","training","adjacent","AB","1","2","M.jpg","O.jpg","1","1","1","",""
"","feedback","","html-keyboard-response","217","418833","0.0-1.0-294.0-0.0","0","0","55257","","null","","","null","32","","","","","","","","","","","","","","","",""
"","ITI","","html-keyboard-response","218","419844","0.0-1.0-297.0","0","0","55257","","null","","","null","32","","","","","","","","","","","","","","","NaN",""
"","S1","","html-keyboard-response","219","420109","0.0-1.0-299.0","0","0","55257","","null","","","null","33","","","","","","","","","","","","","","","",""
"","ISI","","html-keyboard-response","220","421118","0.0-1.0-300.0","0","0","55257","","null","","","null","33","NaN","","","","","","","","","","","","","","",""
"","S2","","html-keyboard-response","221","421382","0.0-1.0-301.0","0","0","55257","","null","","","null","33","","NaN","","","","","","","","","","","","","",""
"","response","","html-keyboard-response","222","422395","0.0-1.0-302.0-0.0","0","0","55257","","1011","","","68","33","","","1","33","training","adjacent","GF","7","6","N.jpg","L.jpg","0","0","1","",""
"","feedback","","html-keyboard-response","223","423404","0.0-1.0-303.0-0.0","0","0","55257","","null","","","null","33","","","","","","","","","","","","","","","",""
"","ITI","","html-keyboard-response","224","424415","0.0-1.0-306.0","0","0","55257","","null","","","null","33","","","","","","","","","","","","","","","NaN",""
"","S1","","html-keyboard-response","225","424667","0.0-1.0-308.0","0","0","55257","","null","","","null","34","","","","","","","","","","","","","","","",""
"","ISI","","html-keyboard-response","226","425679","0.0-1.0-309.0","0","0","55257","","null","","","null","34","NaN","","","","","","","","","","","","","","",""
"","S2","","html-keyboard-response","227","425945","0.0-1.0-310.0","0","0","55257","","null","","","null","34","","NaN","","","","","","","","","","","","","",""
"","response","","html-keyboard-response","228","426699","0.0-1.0-311.0-0.0","0","0","55257","","753","","","68","34","","","1","34","training","adjacent","CD","3","4","P.jpg","R.jpg","0","1","0","",""
"","feedback","","html-keyboard-response","229","427715","0.0-1.0-312.0-0.0","0","0","55257","","null","","","null","34","","","","","","","","","","","","","","","",""
"","time_out","","html-keyboard-response","230","429727","0.0-1.0-314.0-0.0","0","0","55257","","null","","","null","34","","","","","","","","","","","","","","","",""
"","ITI","","html-keyboard-response","231","430741","0.0-1.0-315.0","0","0","55257","","null","","","null","34","","","","","","","","","","","","","","","NaN",""
"","S1","","html-keyboard-response","232","431002","0.0-1.0-317.0","0","0","55257","","null","","","null","35","","","","","","","","","","","","","","","",""
"","ISI","","html-keyboard-response","233","432014","0.0-1.0-318.0","0","0","55257","","null","","","null","35","NaN","","","","","","","","","","","","","","",""
"","S2","","html-keyboard-response","234","432265","0.0-1.0-319.0","0","0","55257","","null","","","null","35","","NaN","","","","","","","","","","","","","",""
"","response","","html-keyboard-response","235","432900","0.0-1.0-320.0-0.0","0","0","55257","","632","","","68","35","","","1","35","training","adjacent","ED","5","4","Q.jpg","R.jpg","0","0","1","",""
"","feedback","","html-keyboard-response","236","433902","0.0-1.0-321.0-0.0","0","0","55257","","null","","","null","35","","","","","","","","","","","","","","","",""
"","ITI","","html-keyboard-response","237","434910","0.0-1.0-324.0","0","0","55257","","null","","","null","35","","","","","","","","","","","","","","","NaN",""
"","S1","","html-keyboard-response","238","435177","0.0-1.0-326.0","0","0","55257","","null","","","null","36","","","","","","","","","","","","","","","",""
"","ISI","","html-keyboard-response","239","436184","0.0-1.0-327.0","0","0","55257","","null","","","null","36","NaN","","","","","","","","","","","","","","",""
"","S2","","html-keyboard-response","240","436448","0.0-1.0-328.0","0","0","55257","","null","","","null","36","","NaN","","","","","","","","","","","","","",""
"","response","","html-keyboard-response","241","437796","0.0-1.0-329.0-0.0","0","0","55257","","1347","","","75","36","","","1","36","training","adjacent","CB","3","2","P.jpg","O.jpg","1","0","0","",""
"","feedback","","html-keyboard-response","242","438811","0.0-1.0-330.0-0.0","0","0","55257","","null","","","null","36","","","","","","","","","","","","","","","",""
"","time_out","","html-keyboard-response","243","440816","0.0-1.0-332.0-0.0","0","0","55257","","null","","","null","36","","","","","","","","","","","","","","","",""
"","ITI","","html-keyboard-response","244","441824","0.0-1.0-333.0","0","0","55257","","null","","","null","36","","","","","","","","","","","","","","","NaN",""
"","S1","","html-keyboard-response","245","442089","0.0-1.0-335.0","0","0","55257","","null","","","null","37","","","","","","","","","","","","","","","",""
"","ISI","","html-keyboard-response","246","443098","0.0-1.0-336.0","0","0","55257","","null","","","null","37","NaN","","","","","","","","","","","","","","",""
"","S2","","html-keyboard-response","247","443364","0.0-1.0-337.0","0","0","55257","","null","","","null","37","","NaN","","","","","","","","","","","","","",""
"","response","","html-keyboard-response","248","444660","0.0-1.0-338.0-0.0","0","0","55257","","1293","","","68","37","","","1","37","training","adjacent","DE","4","5","R.jpg","Q.jpg","0","1","0","",""
"","feedback","","html-keyboard-response","249","445668","0.0-1.0-339.0-0.0","0","0","55257","","null","","","null","37","","","","","","","","","","","","","","","",""
"","time_out","","html-keyboard-response","250","447676","0.0-1.0-341.0-0.0","0","0","55257","","null","","","null","37","","","","","","","","","","","","","","","",""
"","ITI","","html-keyboard-response","251","448690","0.0-1.0-342.0","0","0","55257","","null","","","null","37","","","","","","","","","","","","","","","NaN",""
"","S1","","html-keyboard-response","252","448953","0.0-1.0-344.0","0","0","55257","","null","","","null","38","","","","","","","","","","","","","","","",""
"","ISI","","html-keyboard-response","253","449970","0.0-1.0-345.0","0","0","55257","","null","","","null","38","NaN","","","","","","","","","","","","","","",""
"","S2","","html-keyboard-response","254","450235","0.0-1.0-346.0","0","0","55257","","null","","","null","38","","NaN","","","","","","","","","","","","","",""
"","response","","html-keyboard-response","255","451348","0.0-1.0-347.0-0.0","0","0","55257","","1111","","","75","38","","","1","38","training","adjacent","BA","2","1","O.jpg","M.jpg","1","0","0","",""
"","feedback","","html-keyboard-response","256","452362","0.0-1.0-348.0-0.0","0","0","55257","","null","","","null","38","","","","","","","","","","","","","","","",""
"","time_out","","html-keyboard-response","257","454371","0.0-1.0-350.0-0.0","0","0","55257","","null","","","null","38","","","","","","","","","","","","","","","",""
"","ITI","","html-keyboard-response","258","455384","0.0-1.0-351.0","0","0","55257","","null","","","null","38","","","","","","","","","","","","","","","NaN",""
"","S1","","html-keyboard-response","259","455647","0.0-1.0-353.0","0","0","55257","","null","","","null","39","","","","","","","","","","","","","","","",""
"","ISI","","html-keyboard-response","260","456660","0.0-1.0-354.0","0","0","55257","","null","","","null","39","NaN","","","","","","","","","","","","","","",""
"","S2","","html-keyboard-response","261","456924","0.0-1.0-355.0","0","0","55257","","null","","","null","39","","NaN","","","","","","","","","","","","","",""
"","response","","html-keyboard-response","262","457859","0.0-1.0-356.0-0.0","0","0","55257","","934","","","68","39","","","1","39","training","adjacent","EF","5","6","Q.jpg","L.jpg","0","1","0","",""
"","feedback","","html-keyboard-response","263","458872","0.0-1.0-357.0-0.0","0","0","55257","","null","","","null","39","","","","","","","","","","","","","","","",""
"","time_out","","html-keyboard-response","264","460879","0.0-1.0-359.0-0.0","0","0","55257","","null","","","null","39","","","","","","","","","","","","","","","",""
"","ITI","","html-keyboard-response","265","461889","0.0-1.0-360.0","0","0","55257","","null","","","null","39","","","","","","","","","","","","","","","NaN",""
"","S1","","html-keyboard-response","266","462155","0.0-1.0-362.0","0","0","55257","","null","","","null","40","","","","","","","","","","","","","","","",""
"","ISI","","html-keyboard-response","267","463164","0.0-1.0-363.0","0","0","55257","","null","","","null","40","NaN","","","","","","","","","","","","","","",""
"","S2","","html-keyboard-response","268","463429","0.0-1.0-364.0","0","0","55257","","null","","","null","40","","NaN","","","","","","","","","","","","","",""
"","response","","html-keyboard-response","269","464868","0.0-1.0-365.0-0.0","0","0","55257","","1437","","","75","40","","","1","40","training","adjacent","ED","5","4","Q.jpg","R.jpg","1","0","0","",""
"","feedback","","html-keyboard-response","270","465876","0.0-1.0-366.0-0.0","0","0","55257","","null","","","null","40","","","","","","","","","","","","","","","",""
"","time_out","","html-keyboard-response","271","467884","0.0-1.0-368.0-0.0","0","0","55257","","null","","","null","40","","","","","","","","","","","","","","","",""
"","ITI","","html-keyboard-response","272","468892","0.0-1.0-369.0","0","0","55257","","null","","","null","40","","","","","","","","","","","","","","","NaN",""
"","S1","","html-keyboard-response","273","469157","0.0-1.0-371.0","0","0","55257","","null","","","null","41","","","","","","","","","","","","","","","",""
"","ISI","","html-keyboard-response","274","470160","0.0-1.0-372.0","0","0","55257","","null","","","null","41","NaN","","","","","","","","","","","","","","",""
"","S2","","html-keyboard-response","275","470425","0.0-1.0-373.0","0","0","55257","","null","","","null","41","","NaN","","","","","","","","","","","","","",""
"","response","","html-keyboard-response","276","471388","0.0-1.0-374.0-0.0","0","0","55257","","962","","","75","41","","","1","41","training","adjacent","BC","2","3","O.jpg","P.jpg","1","1","1","",""
"","feedback","","html-keyboard-response","277","472400","0.0-1.0-375.0-0.0","0","0","55257","","null","","","null","41","","","","","","","","","","","","","","","",""
"","ITI","","html-keyboard-response","278","473410","0.0-1.0-378.0","0","0","55257","","null","","","null","41","","","","","","","","","","","","","","","NaN",""
"","S1","","html-keyboard-response","279","473673","0.0-1.0-380.0","0","0","55257","","null","","","null","42","","","","","","","","","","","","","","","",""
"","ISI","","html-keyboard-response","280","474689","0.0-1.0-381.0","0","0","55257","","null","","","null","42","NaN","","","","","","","","","","","","","","",""
"","S2","","html-keyboard-response","281","474955","0.0-1.0-382.0","0","0","55257","","null","","","null","42","","NaN","","","","","","","","","","","","","",""
"","response","","html-keyboard-response","282","475523","0.0-1.0-383.0-0.0","0","0","55257","","567","","","68","42","","","1","42","training","adjacent","BC","2","3","O.jpg","P.jpg","0","1","0","",""
"","feedback","","html-keyboard-response","283","476530","0.0-1.0-384.0-0.0","0","0","55257","","null","","","null","42","","","","","","","","","","","","","","","",""
"","time_out","","html-keyboard-response","284","478543","0.0-1.0-386.0-0.0","0","0","55257","","null","","","null","42","","","","","","","","","","","","","","","",""
"","ITI","","html-keyboard-response","285","479554","0.0-1.0-387.0","0","0","55257","","null","","","null","42","","","","","","","","","","","","","","","NaN",""
"","S1","","html-keyboard-response","286","479815","0.0-1.0-389.0","0","0","55257","","null","","","null","43","","","","","","","","","","","","","","","",""
"","ISI","","html-keyboard-response","287","480826","0.0-1.0-390.0","0","0","55257","","null","","","null","43","NaN","","","","","","","","","","","","","","",""
"","S2","","html-keyboard-response","288","481093","0.0-1.0-391.0","0","0","55257","","null","","","null","43","","NaN","","","","","","","","","","","","","",""
"","response","","html-keyboard-response","289","481492","0.0-1.0-392.0-0.0","0","0","55257","","398","","","75","43","","","1","43","training","adjacent","CD","3","4","P.jpg","R.jpg","1","1","1","",""
"","feedback","","html-keyboard-response","290","482508","0.0-1.0-393.0-0.0","0","0","55257","","null","","","null","43","","","","","","","","","","","","","","","",""
"","ITI","","html-keyboard-response","291","483517","0.0-1.0-396.0","0","0","55257","","null","","","null","43","","","","","","","","","","","","","","","NaN",""
"","S1","","html-keyboard-response","292","483783","0.0-1.0-398.0","0","0","55257","","null","","","null","44","","","","","","","","","","","","","","","",""
"","ISI","","html-keyboard-response","293","484793","0.0-1.0-399.0","0","0","55257","","null","","","null","44","NaN","","","","","","","","","","","","","","",""
"","S2","","html-keyboard-response","294","485054","0.0-1.0-400.0","0","0","55257","","null","","","null","44","","NaN","","","","","","","","","","","","","",""
"","response","","html-keyboard-response","295","485884","0.0-1.0-401.0-0.0","0","0","55257","","829","","","75","44","","","1","44","training","adjacent","CD","3","4","P.jpg","R.jpg","1","1","1","",""
"","feedback","","html-keyboard-response","296","486893","0.0-1.0-402.0-0.0","0","0","55257","","null","","","null","44","","","","","","","","","","","","","","","",""
"","ITI","","html-keyboard-response","297","487901","0.0-1.0-405.0","0","0","55257","","null","","","null","44","","","","","","","","","","","","","","","NaN",""
"","S1","","html-keyboard-response","298","488166","0.0-1.0-407.0","0","0","55257","","null","","","null","45","","","","","","","","","","","","","","","",""
"","ISI","","html-keyboard-response","299","489178","0.0-1.0-408.0","0","0","55257","","null","","","null","45","NaN","","","","","","","","","","","","","","",""
"","S2","","html-keyboard-response","300","489441","0.0-1.0-409.0","0","0","55257","","null","","","null","45","","NaN","","","","","","","","","","","","","",""
"","response","","html-keyboard-response","301","490235","0.0-1.0-410.0-0.0","0","0","55257","","793","","","75","45","","","1","45","training","adjacent","FE","6","5","L.jpg","Q.jpg","1","0","0","",""
"","feedback","","html-keyboard-response","302","491243","0.0-1.0-411.0-0.0","0","0","55257","","null","","","null","45","","","","","","","","","","","","","","","",""
"","time_out","","html-keyboard-response","303","493246","0.0-1.0-413.0-0.0","0","0","55257","","null","","","null","45","","","","","","","","","","","","","","","",""
"","ITI","","html-keyboard-response","304","494257","0.0-1.0-414.0","0","0","55257","","null","","","null","45","","","","","","","","","","","","","","","NaN",""
"","S1","","html-keyboard-response","305","494509","0.0-1.0-416.0","0","0","55257","","null","","","null","46","","","","","","","","","","","","","","","",""
"","ISI","","html-keyboard-response","306","495522","0.0-1.0-417.0","0","0","55257","","null","","","null","46","NaN","","","","","","","","","","","","","","",""
"","S2","","html-keyboard-response","307","495787","0.0-1.0-418.0","0","0","55257","","null","","","null","46","","NaN","","","","","","","","","","","","","",""
"","response","","html-keyboard-response","308","496371","0.0-1.0-419.0-0.0","0","0","55257","","583","","","75","46","","","1","46","training","adjacent","GF","7","6","N.jpg","L.jpg","1","0","0","",""
"","feedback","","html-keyboard-response","309","497388","0.0-1.0-420.0-0.0","0","0","55257","","null","","","null","46","","","","","","","","","","","","","","","",""
"","time_out","","html-keyboard-response","310","499403","0.0-1.0-422.0-0.0","0","0","55257","","null","","","null","46","","","","","","","","","","","","","","","",""
"","ITI","","html-keyboard-response","311","500409","0.0-1.0-423.0","0","0","55257","","null","","","null","46","","","","","","","","","","","","","","","NaN",""
"","S1","","html-keyboard-response","312","500673","0.0-1.0-425.0","0","0","55257","","null","","","null","47","","","","","","","","","","","","","","","",""
"","ISI","","html-keyboard-response","313","501686","0.0-1.0-426.0","0","0","55257","","null","","","null","47","NaN","","","","","","","","","","","","","","",""
"","S2","","html-keyboard-response","314","501948","0.0-1.0-427.0","0","0","55257","","null","","","null","47","","NaN","","","","","","","","","","","","","",""
"","response","","html-keyboard-response","315","502444","0.0-1.0-428.0-0.0","0","0","55257","","494","","","75","47","","","1","47","training","adjacent","CD","3","4","P.jpg","R.jpg","1","1","1","",""
"","feedback","","html-keyboard-response","316","503455","0.0-1.0-429.0-0.0","0","0","55257","","null","","","null","47","","","","","","","","","","","","","","","",""
"","ITI","","html-keyboard-response","317","504469","0.0-1.0-432.0","0","0","55257","","null","","","null","47","","","","","","","","","","","","","","","NaN",""
"","block_over","","html-keyboard-response","318","513484","0.0-1.0-433.0-0.0","0","0","55257","","9013","","","32","47","","","","","","","","","","","","","","","",""
"","S1","","html-keyboard-response","319","513746","0.0-1.0-434.0","0","0","55257","","null","","","null","48","","","","","","","","","","","","","","","",""
"","ISI","","html-keyboard-response","320","514757","0.0-1.0-435.0","0","0","55257","","null","","","null","48","NaN","","","","","","","","","","","","","","",""
"","S2","","html-keyboard-response","321","515019","0.0-1.0-436.0","0","0","55257","","null","","","null","48","","NaN","","","","","","","","","","","","","",""
"","response","","html-keyboard-response","322","515820","0.0-1.0-437.0-0.0","0","0","55257","","799","","","75","48","","","2","48","training","adjacent","BC","2","3","O.jpg","P.jpg","1","1","1","",""
"","feedback","","html-keyboard-response","323","516824","0.0-1.0-438.0-0.0","0","0","55257","","null","","","null","48","","","","","","","","","","","","","","","",""
"","ITI","","html-keyboard-response","324","517836","0.0-1.0-441.0","0","0","55257","","null","","","null","48","","","","","","","","","","","","","","","NaN",""
"","S1","","html-keyboard-response","325","518101","0.0-1.0-443.0","0","0","55257","","null","","","null","49","","","","","","","","","","","","","","","",""
"","ISI","","html-keyboard-response","326","519114","0.0-1.0-444.0","0","0","55257","","null","","","null","49","NaN","","","","","","","","","","","","","","",""
"","S2","","html-keyboard-response","327","519378","0.0-1.0-445.0","0","0","55257","","null","","","null","49","","NaN","","","","","","","","","","","","","",""
"","response","","html-keyboard-response","328","520259","0.0-1.0-446.0-0.0","0","0","55257","","880","","","75","49","","","2","49","training","adjacent","CB","3","2","P.jpg","O.jpg","1","0","0","",""
"","feedback","","html-keyboard-response","329","521274","0.0-1.0-447.0-0.0","0","0","55257","","null","","","null","49","","","","","","","","","","","","","","","",""
"","time_out","","html-keyboard-response","330","523283","0.0-1.0-449.0-0.0","0","0","55257","","null","","","null","49","","","","","","","","","","","","","","","",""
"","ITI","","html-keyboard-response","331","524291","0.0-1.0-450.0","0","0","55257","","null","","","null","49","","","","","","","","","","","","","","","NaN",""
"","S1","","html-keyboard-response","332","524555","0.0-1.0-452.0","0","0","55257","","null","","","null","50","","","","","","","","","","","","","","","",""
"","ISI","","html-keyboard-response","333","525570","0.0-1.0-453.0","0","0","55257","","null","","","null","50","NaN","","","","","","","","","","","","","","",""
"","S2","","html-keyboard-response","334","525831","0.0-1.0-454.0","0","0","55257","","null","","","null","50","","NaN","","","","","","","","","","","","","",""
"","response","","html-keyboard-response","335","527028","0.0-1.0-455.0-0.0","0","0","55257","","1195","","","75","50","","","2","50","training","adjacent","CD","3","4","P.jpg","R.jpg","1","1","1","",""
"","feedback","","html-keyboard-response","336","528035","0.0-1.0-456.0-0.0","0","0","55257","","null","","","null","50","","","","","","","","","","","","","","","",""
"","ITI","","html-keyboard-response","337","529041","0.0-1.0-459.0","0","0","55257","","null","","","null","50","","","","","","","","","","","","","","","NaN",""
"","S1","","html-keyboard-response","338","529305","0.0-1.0-461.0","0","0","55257","","null","","","null","51","","","","","","","","","","","","","","","",""
"","ISI","","html-keyboard-response","339","530311","0.0-1.0-462.0","0","0","55257","","null","","","null","51","NaN","","","","","","","","","","","","","","",""
"","S2","","html-keyboard-response","340","530574","0.0-1.0-463.0","0","0","55257","","null","","","null","51","","NaN","","","","","","","","","","","","","",""
"","response","","html-keyboard-response","341","530940","0.0-1.0-464.0-0.0","0","0","55257","","363","","","68","51","","","2","51","training","adjacent","AB","1","2","M.jpg","O.jpg","0","1","0","",""
"","feedback","","html-keyboard-response","342","531947","0.0-1.0-465.0-0.0","0","0","55257","","null","","","null","51","","","","","","","","","","","","","","","",""
"","time_out","","html-keyboard-response","343","533953","0.0-1.0-467.0-0.0","0","0","55257","","null","","","null","51","","","","","","","","","","","","","","","",""
"","ITI","","html-keyboard-response","344","534963","0.0-1.0-468.0","0","0","55257","","null","","","null","51","","","","","","","","","","","","","","","NaN",""
"","S1","","html-keyboard-response","345","535227","0.0-1.0-470.0","0","0","55257","","null","","","null","52","","","","","","","","","","","","","","","",""
"","ISI","","html-keyboard-response","346","536238","0.0-1.0-471.0","0","0","55257","","null","","","null","52","NaN","","","","","","","","","","","","","","",""
"","S2","","html-keyboard-response","347","536501","0.0-1.0-472.0","0","0","55257","","null","","","null","52","","NaN","","","","","","","","","","","","","",""
"","response","","html-keyboard-response","348","537228","0.0-1.0-473.0-0.0","0","0","55257","","726","","","68","52","","","2","52","training","adjacent","CD","3","4","P.jpg","R.jpg","0","1","0","",""
"","feedback","","html-keyboard-response","349","538244","0.0-1.0-474.0-0.0","0","0","55257","","null","","","null","52","","","","","","","","","","","","","","","",""
"","time_out","","html-keyboard-response","350","540251","0.0-1.0-476.0-0.0","0","0","55257","","null","","","null","52","","","","","","","","","","","","","","","",""
"","ITI","","html-keyboard-response","351","541261","0.0-1.0-477.0","0","0","55257","","null","","","null","52","","","","","","","","","","","","","","","NaN",""
"","S1","","html-keyboard-response","352","541527","0.0-1.0-479.0","0","0","55257","","null","","","null","53","","","","","","","","","","","","","","","",""
"","ISI","","html-keyboard-response","353","542540","0.0-1.0-480.0","0","0","55257","","null","","","null","53","NaN","","","","","","","","","","","","","","",""
"","S2","","html-keyboard-response","354","542807","0.0-1.0-481.0","0","0","55257","","null","","","null","53","","NaN","","","","","","","","","","","","","",""
"","response","","html-keyboard-response","355","543812","0.0-1.0-482.0-0.0","0","0","55257","","1003","","","75","53","","","2","53","training","adjacent","ED","5","4","Q.jpg","R.jpg","1","0","0","",""
"","feedback","","html-keyboard-response","356","544827","0.0-1.0-483.0-0.0","0","0","55257","","null","","","null","53","","","","","","","","","","","","","","","",""
"","time_out","","html-keyboard-response","357","546832","0.0-1.0-485.0-0.0","0","0","55257","","null","","","null","53","","","","","","","","","","","","","","","",""
"","ITI","","html-keyboard-response","358","547845","0.0-1.0-486.0","0","0","55257","","null","","","null","53","","","","","","","","","","","","","","","NaN",""
"","S1","","html-keyboard-response","359","548112","0.0-1.0-488.0","0","0","55257","","null","","","null","54","","","","","","","","","","","","","","","",""
"","ISI","","html-keyboard-response","360","549120","0.0-1.0-489.0","0","0","55257","","null","","","null","54","NaN","","","","","","","","","","","","","","",""
"","S2","","html-keyboard-response","361","549388","0.0-1.0-490.0","0","0","55257","","null","","","null","54","","NaN","","","","","","","","","","","","","",""
"","response","","html-keyboard-response","362","549923","0.0-1.0-491.0-0.0","0","0","55257","","534","","","75","54","","","2","54","training","adjacent","FE","6","5","L.jpg","Q.jpg","1","0","0","",""
"","feedback","","html-keyboard-response","363","550927","0.0-1.0-492.0-0.0","0","0","55257","","null","","","null","54","","","","","","","","","","","","","","","",""
"","time_out","","html-keyboard-response","364","552942","0.0-1.0-494.0-0.0","0","0","55257","","null","","","null","54","","","","","","","","","","","","","","","",""
"","ITI","","html-keyboard-response","365","553950","0.0-1.0-495.0","0","0","55257","","null","","","null","54","","","","","","","","","","","","","","","NaN",""
"","S1","","html-keyboard-response","366","554214","0.0-1.0-497.0","0","0","55257","","null","","","null","55","","","","","","","","","","","","","","","",""
"","ISI","","html-keyboard-response","367","555216","0.0-1.0-498.0","0","0","55257","","null","","","null","55","NaN","","","","","","","","","","","","","","",""
"","S2","","html-keyboard-response","368","555480","0.0-1.0-499.0","0","0","55257","","null","","","null","55","","NaN","","","","","","","","","","","","","",""
"","response","","html-keyboard-response","369","555996","0.0-1.0-500.0-0.0","0","0","55257","","514","","","75","55","","","2","55","training","adjacent","AB","1","2","M.jpg","O.jpg","1","1","1","",""
"","feedback","","html-keyboard-response","370","557004","0.0-1.0-501.0-0.0","0","0","55257","","null","","","null","55","","","","","","","","","","","","","","","",""
"","ITI","","html-keyboard-response","371","558014","0.0-1.0-504.0","0","0","55257","","null","","","null","55","","","","","","","","","","","","","","","NaN",""
"","S1","","html-keyboard-response","372","558280","0.0-1.0-506.0","0","0","55257","","null","","","null","56","","","","","","","","","","","","","","","",""
"","ISI","","html-keyboard-response","373","559286","0.0-1.0-507.0","0","0","55257","","null","","","null","56","NaN","","","","","","","","","","","","","","",""
"","S2","","html-keyboard-response","374","559551","0.0-1.0-508.0","0","0","55257","","null","","","null","56","","NaN","","","","","","","","","","","","","",""
"","response","","html-keyboard-response","375","559868","0.0-1.0-509.0-0.0","0","0","55257","","315","","","68","56","","","2","56","training","adjacent","DE","4","5","R.jpg","Q.jpg","0","1","0","",""
"","feedback","","html-keyboard-response","376","560879","0.0-1.0-510.0-0.0","0","0","55257","","null","","","null","56","","","","","","","","","","","","","","","",""
"","time_out","","html-keyboard-response","377","562882","0.0-1.0-512.0-0.0","0","0","55257","","null","","","null","56","","","","","","","","","","","","","","","",""
"","ITI","","html-keyboard-response","378","563892","0.0-1.0-513.0","0","0","55257","","null","","","null","56","","","","","","","","","","","","","","","NaN",""
"","S1","","html-keyboard-response","379","564155","0.0-1.0-515.0","0","0","55257","","null","","","null","57","","","","","","","","","","","","","","","",""
"","ISI","","html-keyboard-response","380","565164","0.0-1.0-516.0","0","0","55257","","null","","","null","57","NaN","","","","","","","","","","","","","","",""
"","S2","","html-keyboard-response","381","565427","0.0-1.0-517.0","0","0","55257","","null","","","null","57","","NaN","","","","","","","","","","","","","",""
"","response","","html-keyboard-response","382","566419","0.0-1.0-518.0-0.0","0","0","55257","","991","","","75","57","","","2","57","training","adjacent","AB","1","2","M.jpg","O.jpg","1","1","1","",""
"","feedback","","html-keyboard-response","383","567434","0.0-1.0-519.0-0.0","0","0","55257","","null","","","null","57","","","","","","","","","","","","","","","",""
"","ITI","","html-keyboard-response","384","568443","0.0-1.0-522.0","0","0","55257","","null","","","null","57","","","","","","","","","","","","","","","NaN",""
"","S1","","html-keyboard-response","385","568704","0.0-1.0-524.0","0","0","55257","","null","","","null","58","","","","","","","","","","","","","","","",""
"","ISI","","html-keyboard-response","386","569719","0.0-1.0-525.0","0","0","55257","","null","","","null","58","NaN","","","","","","","","","","","","","","",""
"","S2","","html-keyboard-response","387","569984","0.0-1.0-526.0","0","0","55257","","null","","","null","58","","NaN","","","","","","","","","","","","","",""
"","response","","html-keyboard-response","388","570931","0.0-1.0-527.0-0.0","0","0","55257","","946","","","68","58","","","2","58","training","adjacent","BC","2","3","O.jpg","P.jpg","0","1","0","",""
"","feedback","","html-keyboard-response","389","571948","0.0-1.0-528.0-0.0","0","0","55257","","null","","","null","58","","","","","","","","","","","","","","","",""
"","time_out","","html-keyboard-response","390","573953","0.0-1.0-530.0-0.0","0","0","55257","","null","","","null","58","","","","","","","","","","","","","","","",""
"","ITI","","html-keyboard-response","391","574968","0.0-1.0-531.0","0","0","55257","","null","","","null","58","","","","","","","","","","","","","","","NaN",""
"","S1","","html-keyboard-response","392","575235","0.0-1.0-533.0","0","0","55257","","null","","","null","59","","","","","","","","","","","","","","","",""
"","ISI","","html-keyboard-response","393","576244","0.0-1.0-534.0","0","0","55257","","null","","","null","59","NaN","","","","","","","","","","","","","","",""
"","S2","","html-keyboard-response","394","576508","0.0-1.0-535.0","0","0","55257","","null","","","null","59","","NaN","","","","","","","","","","","","","",""
"","response","","html-keyboard-response","395","577300","0.0-1.0-536.0-0.0","0","0","55257","","790","","","68","59","","","2","59","training","adjacent","EF","5","6","Q.jpg","L.jpg","0","1","0","",""
"","feedback","","html-keyboard-response","396","578317","0.0-1.0-537.0-0.0","0","0","55257","","null","","","null","59","","","","","","","","","","","","","","","",""
"","time_out","","html-keyboard-response","397","580325","0.0-1.0-539.0-0.0","0","0","55257","","null","","","null","59","","","","","","","","","","","","","","","",""
"","ITI","","html-keyboard-response","398","581331","0.0-1.0-540.0","0","0","55257","","null","","","null","59","","","","","","","","","","","","","","","NaN",""
"","S1","","html-keyboard-response","399","581594","0.0-1.0-542.0","0","0","55257","","null","","","null","60","","","","","","","","","","","","","","","",""
"","ISI","","html-keyboard-response","400","582608","0.0-1.0-543.0","0","0","55257","","null","","","null","60","NaN","","","","","","","","","","","","","","",""
"","S2","","html-keyboard-response","401","582871","0.0-1.0-544.0","0","0","55257","","null","","","null","60","","NaN","","","","","","","","","","","","","",""
"","response","","html-keyboard-response","402","583556","0.0-1.0-545.0-0.0","0","0","55257","","683","","","75","60","","","2","60","training","adjacent","FG","6","7","L.jpg","N.jpg","1","1","1","",""
"","feedback","","html-keyboard-response","403","584565","0.0-1.0-546.0-0.0","0","0","55257","","null","","","null","60","","","","","","","","","","","","","","","",""
"","ITI","","html-keyboard-response","404","585578","0.0-1.0-549.0","0","0","55257","","null","","","null","60","","","","","","","","","","","","","","","NaN",""
"","S1","","html-keyboard-response","405","585841","0.0-1.0-551.0","0","0","55257","","null","","","null","61","","","","","","","","","","","","","","","",""
"","ISI","","html-keyboard-response","406","586854","0.0-1.0-552.0","0","0","55257","","null","","","null","61","NaN","","","","","","","","","","","","","","",""
"","S2","","html-keyboard-response","407","587116","0.0-1.0-553.0","0","0","55257","","null","","","null","61","","NaN","","","","","","","","","","","","","",""
"","response","","html-keyboard-response","408","588035","0.0-1.0-554.0-0.0","0","0","55257","","918","","","68","61","","","2","61","training","adjacent","DC","4","3","R.jpg","P.jpg","0","0","1","",""
"","feedback","","html-keyboard-response","409","589042","0.0-1.0-555.0-0.0","0","0","55257","","null","","","null","61","","","","","","","","","","","","","","","",""
"","ITI","","html-keyboard-response","410","590058","0.0-1.0-558.0","0","0","55257","","null","","","null","61","","","","","","","","","","","","","","","NaN",""
"","S1","","html-keyboard-response","411","590323","0.0-1.0-560.0","0","0","55257","","null","","","null","62","","","","","","","","","","","","","","","",""
"","ISI","","html-keyboard-response","412","591337","0.0-1.0-561.0","0","0","55257","","null","","","null","62","NaN","","","","","","","","","","","","","","",""
"","S2","","html-keyboard-response","413","591602","0.0-1.0-562.0","0","0","55257","","null","","","null","62","","NaN","","","","","","","","","","","","","",""
"","response","","html-keyboard-response","414","592580","0.0-1.0-563.0-0.0","0","0","55257","","976","","","75","62","","","2","62","training","adjacent","DC","4","3","R.jpg","P.jpg","1","0","0","",""
"","feedback","","html-keyboard-response","415","593596","0.0-1.0-564.0-0.0","0","0","55257","","null","","","null","62","","","","","","","","","","","","","","","",""
"","time_out","","html-keyboard-response","416","595609","0.0-1.0-566.0-0.0","0","0","55257","","null","","","null","62","","","","","","","","","","","","","","","",""
"","ITI","","html-keyboard-response","417","596621","0.0-1.0-567.0","0","0","55257","","null","","","null","62","","","","","","","","","","","","","","","NaN",""
"","S1","","html-keyboard-response","418","596886","0.0-1.0-569.0","0","0","55257","","null","","","null","63","","","","","","","","","","","","","","","",""
"","ISI","","html-keyboard-response","419","597896","0.0-1.0-570.0","0","0","55257","","null","","","null","63","NaN","","","","","","","","","","","","","","",""
"","S2","","html-keyboard-response","420","598161","0.0-1.0-571.0","0","0","55257","","null","","","null","63","","NaN","","","","","","","","","","","","","",""
"","response","","html-keyboard-response","421","598916","0.0-1.0-572.0-0.0","0","0","55257","","753","","","68","63","","","2","63","training","adjacent","FG","6","7","L.jpg","N.jpg","0","1","0","",""
"","feedback","","html-keyboard-response","422","599924","0.0-1.0-573.0-0.0","0","0","55257","","null","","","null","63","","","","","","","","","","","","","","","",""
"","time_out","","html-keyboard-response","423","601929","0.0-1.0-575.0-0.0","0","0","55257","","null","","","null","63","","","","","","","","","","","","","","","",""
"","ITI","","html-keyboard-response","424","602939","0.0-1.0-576.0","0","0","55257","","null","","","null","63","","","","","","","","","","","","","","","NaN",""
"","S1","","html-keyboard-response","425","603205","0.0-1.0-578.0","0","0","55257","","null","","","null","64","","","","","","","","","","","","","","","",""
"","ISI","","html-keyboard-response","426","604213","0.0-1.0-579.0","0","0","55257","","null","","","null","64","NaN","","","","","","","","","","","","","","",""
"","S2","","html-keyboard-response","427","604475","0.0-1.0-580.0","0","0","55257","","null","","","null","64","","NaN","","","","","","","","","","","","","",""
"","response","","html-keyboard-response","428","605644","0.0-1.0-581.0-0.0","0","0","55257","","1168","","","68","64","","","2","64","training","adjacent","EF","5","6","Q.jpg","L.jpg","0","1","0","",""
"","feedback","","html-keyboard-response","429","606655","0.0-1.0-582.0-0.0","0","0","55257","","null","","","null","64","","","","","","","","","","","","","","","",""
"","time_out","","html-keyboard-response","430","608658","0.0-1.0-584.0-0.0","0","0","55257","","null","","","null","64","","","","","","","","","","","","","","","",""
"","ITI","","html-keyboard-response","431","609673","0.0-1.0-585.0","0","0","55257","","null","","","null","64","","","","","","","","","","","","","","","NaN",""
"","S1","","html-keyboard-response","432","609936","0.0-1.0-587.0","0","0","55257","","null","","","null","65","","","","","","","","","","","","","","","",""
"","ISI","","html-keyboard-response","433","610949","0.0-1.0-588.0","0","0","55257","","null","","","null","65","NaN","","","","","","","","","","","","","","",""
"","S2","","html-keyboard-response","434","611214","0.0-1.0-589.0","0","0","55257","","null","","","null","65","","NaN","","","","","","","","","","","","","",""
"","response","","html-keyboard-response","435","612668","0.0-1.0-590.0-0.0","0","0","55257","","1452","","","68","65","","","2","65","training","adjacent","GF","7","6","N.jpg","L.jpg","0","0","1","",""
"","feedback","","html-keyboard-response","436","613670","0.0-1.0-591.0-0.0","0","0","55257","","null","","","null","65","","","","","","","","","","","","","","","",""
"","ITI","","html-keyboard-response","437","614682","0.0-1.0-594.0","0","0","55257","","null","","","null","65","","","","","","","","","","","","","","","NaN",""
"","S1","","html-keyboard-response","438","614945","0.0-1.0-596.0","0","0","55257","","null","","","null","66","","","","","","","","","","","","","","","",""
"","ISI","","html-keyboard-response","439","615950","0.0-1.0-597.0","0","0","55257","","null","","","null","66","NaN","","","","","","","","","","","","","","",""
"","S2","","html-keyboard-response","440","616217","0.0-1.0-598.0","0","0","55257","","null","","","null","66","","NaN","","","","","","","","","","","","","",""
"","response","","html-keyboard-response","441","616835","0.0-1.0-599.0-0.0","0","0","55257","","617","","","68","66","","","2","66","training","adjacent","FG","6","7","L.jpg","N.jpg","0","1","0","",""
"","feedback","","html-keyboard-response","442","617838","0.0-1.0-600.0-0.0","0","0","55257","","null","","","null","66","","","","","","","","","","","","","","","",""
"","time_out","","html-keyboard-response","443","619842","0.0-1.0-602.0-0.0","0","0","55257","","null","","","null","66","","","","","","","","","","","","","","","",""
"","ITI","","html-keyboard-response","444","620852","0.0-1.0-603.0","0","0","55257","","null","","","null","66","","","","","","","","","","","","","","","NaN",""
"","S1","","html-keyboard-response","445","621113","0.0-1.0-605.0","0","0","55257","","null","","","null","67","","","","","","","","","","","","","","","",""
"","ISI","","html-keyboard-response","446","622121","0.0-1.0-606.0","0","0","55257","","null","","","null","67","NaN","","","","","","","","","","","","","","",""
"","S2","","html-keyboard-response","447","622383","0.0-1.0-607.0","0","0","55257","","null","","","null","67","","NaN","","","","","","","","","","","","","",""
"","response","","html-keyboard-response","448","623412","0.0-1.0-608.0-0.0","0","0","55257","","1027","","","68","67","","","2","67","training","adjacent","DE","4","5","R.jpg","Q.jpg","0","1","0","",""
"","feedback","","html-keyboard-response","449","624423","0.0-1.0-609.0-0.0","0","0","55257","","null","","","null","67","","","","","","","","","","","","","","","",""
"","time_out","","html-keyboard-response","450","626429","0.0-1.0-611.0-0.0","0","0","55257","","null","","","null","67","","","","","","","","","","","","","","","",""
"","ITI","","html-keyboard-response","451","627437","0.0-1.0-612.0","0","0","55257","","null","","","null","67","","","","","","","","","","","","","","","NaN",""
"","S1","","html-keyboard-response","452","627704","0.0-1.0-614.0","0","0","55257","","null","","","null","68","","","","","","","","","","","","","","","",""
"","ISI","","html-keyboard-response","453","628714","0.0-1.0-615.0","0","0","55257","","null","","","null","68","NaN","","","","","","","","","","","","","","",""
"","S2","","html-keyboard-response","454","628979","0.0-1.0-616.0","0","0","55257","","null","","","null","68","","NaN","","","","","","","","","","","","","",""
"","response","","html-keyboard-response","455","629540","0.0-1.0-617.0-0.0","0","0","55257","","559","","","75","68","","","2","68","training","adjacent","DE","4","5","R.jpg","Q.jpg","1","1","1","",""
"","feedback","","html-keyboard-response","456","630556","0.0-1.0-618.0-0.0","0","0","55257","","null","","","null","68","","","","","","","","","","","","","","","",""
"","ITI","","html-keyboard-response","457","631567","0.0-1.0-621.0","0","0","55257","","null","","","null","68","","","","","","","","","","","","","","","NaN",""
"","S1","","html-keyboard-response","458","631834","0.0-1.0-623.0","0","0","55257","","null","","","null","69","","","","","","","","","","","","","","","",""
"","ISI","","html-keyboard-response","459","632844","0.0-1.0-624.0","0","0","55257","","null","","","null","69","NaN","","","","","","","","","","","","","","",""
"","S2","","html-keyboard-response","460","633107","0.0-1.0-625.0","0","0","55257","","null","","","null","69","","NaN","","","","","","","","","","","","","",""
"","response","","html-keyboard-response","461","633907","0.0-1.0-626.0-0.0","0","0","55257","","797","","","68","69","","","2","69","training","adjacent","CB","3","2","P.jpg","O.jpg","0","0","1","",""
"","feedback","","html-keyboard-response","462","634914","0.0-1.0-627.0-0.0","0","0","55257","","null","","","null","69","","","","","","","","","","","","","","","",""
"","ITI","","html-keyboard-response","463","635925","0.0-1.0-630.0","0","0","55257","","null","","","null","69","","","","","","","","","","","","","","","NaN",""
"","S1","","html-keyboard-response","464","636191","0.0-1.0-632.0","0","0","55257","","null","","","null","70","","","","","","","","","","","","","","","",""
"","ISI","","html-keyboard-response","465","637203","0.0-1.0-633.0","0","0","55257","","null","","","null","70","NaN","","","","","","","","","","","","","","",""
"","S2","","html-keyboard-response","466","637465","0.0-1.0-634.0","0","0","55257","","null","","","null","70","","NaN","","","","","","","","","","","","","",""
"","response","","html-keyboard-response","467","638996","0.0-1.0-635.0-0.0","0","0","55257","","1529","","","68","70","","","2","70","training","adjacent","DC","4","3","R.jpg","P.jpg","0","0","1","",""
"","feedback","","html-keyboard-response","468","640004","0.0-1.0-636.0-0.0","0","0","55257","","null","","","null","70","","","","","","","","","","","","","","","",""
"","ITI","","html-keyboard-response","469","641013","0.0-1.0-639.0","0","0","55257","","null","","","null","70","","","","","","","","","","","","","","","NaN",""
"","S1","","html-keyboard-response","470","641280","0.0-1.0-641.0","0","0","55257","","null","","","null","71","","","","","","","","","","","","","","","",""
"","ISI","","html-keyboard-response","471","642290","0.0-1.0-642.0","0","0","55257","","null","","","null","71","NaN","","","","","","","","","","","","","","",""
"","S2","","html-keyboard-response","472","642553","0.0-1.0-643.0","0","0","55257","","null","","","null","71","","NaN","","","","","","","","","","","","","",""
"","response","","html-keyboard-response","473","643036","0.0-1.0-644.0-0.0","0","0","55257","","482","","","75","71","","","2","71","training","adjacent","DE","4","5","R.jpg","Q.jpg","1","1","1","",""
"","feedback","","html-keyboard-response","474","644047","0.0-1.0-645.0-0.0","0","0","55257","","null","","","null","71","","","","","","","","","","","","","","","",""
"","ITI","","html-keyboard-response","475","645057","0.0-1.0-648.0","0","0","55257","","null","","","null","71","","","","","","","","","","","","","","","NaN",""
"","S1","","html-keyboard-response","476","645320","0.0-1.0-650.0","0","0","55257","","null","","","null","72","","","","","","","","","","","","","","","",""
"","ISI","","html-keyboard-response","477","646331","0.0-1.0-651.0","0","0","55257","","null","","","null","72","NaN","","","","","","","","","","","","","","",""
"","S2","","html-keyboard-response","478","646596","0.0-1.0-652.0","0","0","55257","","null","","","null","72","","NaN","","","","","","","","","","","","","",""
"","response","","html-keyboard-response","479","647684","0.0-1.0-653.0-0.0","0","0","55257","","1086","","","75","72","","","2","72","training","adjacent","BA","2","1","O.jpg","M.jpg","1","0","0","",""
"","feedback","","html-keyboard-response","480","648687","0.0-1.0-654.0-0.0","0","0","55257","","null","","","null","72","","","","","","","","","","","","","","","",""
"","time_out","","html-keyboard-response","481","650690","0.0-1.0-656.0-0.0","0","0","55257","","null","","","null","72","","","","","","","","","","","","","","","",""
"","ITI","","html-keyboard-response","482","651692","0.0-1.0-657.0","0","0","55257","","null","","","null","72","","","","","","","","","","","","","","","NaN",""
"","S1","","html-keyboard-response","483","651958","0.0-1.0-659.0","0","0","55257","","null","","","null","73","","","","","","","","","","","","","","","",""
"","ISI","","html-keyboard-response","484","652966","0.0-1.0-660.0","0","0","55257","","null","","","null","73","NaN","","","","","","","","","","","","","","",""
"","S2","","html-keyboard-response","485","653229","0.0-1.0-661.0","0","0","55257","","null","","","null","73","","NaN","","","","","","","","","","","","","",""
"","response","","html-keyboard-response","486","654163","0.0-1.0-662.0-0.0","0","0","55257","","933","","","68","73","","","2","73","training","adjacent","CD","3","4","P.jpg","R.jpg","0","1","0","",""
"","feedback","","html-keyboard-response","487","655175","0.0-1.0-663.0-0.0","0","0","55257","","null","","","null","73","","","","","","","","","","","","","","","",""
"","time_out","","html-keyboard-response","488","657190","0.0-1.0-665.0-0.0","0","0","55257","","null","","","null","73","","","","","","","","","","","","","","","",""
"","ITI","","html-keyboard-response","489","658205","0.0-1.0-666.0","0","0","55257","","null","","","null","73","","","","","","","","","","","","","","","NaN",""
"","S1","","html-keyboard-response","490","658467","0.0-1.0-668.0","0","0","55257","","null","","","null","74","","","","","","","","","","","","","","","",""
"","ISI","","html-keyboard-response","491","659482","0.0-1.0-669.0","0","0","55257","","null","","","null","74","NaN","","","","","","","","","","","","","","",""
"","S2","","html-keyboard-response","492","659744","0.0-1.0-670.0","0","0","55257","","null","","","null","74","","NaN","","","","","","","","","","","","","",""
"","response","","html-keyboard-response","493","660340","0.0-1.0-671.0-0.0","0","0","55257","","594","","","75","74","","","2","74","training","adjacent","FG","6","7","L.jpg","N.jpg","1","1","1","",""
"","feedback","","html-keyboard-response","494","661347","0.0-1.0-672.0-0.0","0","0","55257","","null","","","null","74","","","","","","","","","","","","","","","",""
"","ITI","","html-keyboard-response","495","662352","0.0-1.0-675.0","0","0","55257","","null","","","null","74","","","","","","","","","","","","","","","NaN",""
"","S1","","html-keyboard-response","496","662615","0.0-1.0-677.0","0","0","55257","","null","","","null","75","","","","","","","","","","","","","","","",""
"","ISI","","html-keyboard-response","497","663625","0.0-1.0-678.0","0","0","55257","","null","","","null","75","NaN","","","","","","","","","","","","","","",""
"","S2","","html-keyboard-response","498","663890","0.0-1.0-679.0","0","0","55257","","null","","","null","75","","NaN","","","","","","","","","","","","","",""
"","response","","html-keyboard-response","499","664708","0.0-1.0-680.0-0.0","0","0","55257","","816","","","75","75","","","2","75","training","adjacent","CB","3","2","P.jpg","O.jpg","1","0","0","",""
"","feedback","","html-keyboard-response","500","665721","0.0-1.0-681.0-0.0","0","0","55257","","null","","","null","75","","","","","","","","","","","","","","","",""
"","time_out","","html-keyboard-response","501","667732","0.0-1.0-683.0-0.0","0","0","55257","","null","","","null","75","","","","","","","","","","","","","","","",""
"","ITI","","html-keyboard-response","502","668743","0.0-1.0-684.0","0","0","55257","","null","","","null","75","","","","","","","","","","","","","","","NaN",""
"","S1","","html-keyboard-response","503","669007","0.0-1.0-686.0","0","0","55257","","null","","","null","76","","","","","","","","","","","","","","","",""
"","ISI","","html-keyboard-response","504","670017","0.0-1.0-687.0","0","0","55257","","null","","","null","76","NaN","","","","","","","","","","","","","","",""
"","S2","","html-keyboard-response","505","670281","0.0-1.0-688.0","0","0","55257","","null","","","null","76","","NaN","","","","","","","","","","","","","",""
"","response","","html-keyboard-response","506","671099","0.0-1.0-689.0-0.0","0","0","55257","","816","","","68","76","","","2","76","training","adjacent","ED","5","4","Q.jpg","R.jpg","0","0","1","",""
"","feedback","","html-keyboard-response","507","672116","0.0-1.0-690.0-0.0","0","0","55257","","null","","","null","76","","","","","","","","","","","","","","","",""
"","ITI","","html-keyboard-response","508","673132","0.0-1.0-693.0","0","0","55257","","null","","","null","76","","","","","","","","","","","","","","","NaN",""
"","S1","","html-keyboard-response","509","673396","0.0-1.0-695.0","0","0","55257","","null","","","null","77","","","","","","","","","","","","","","","",""
"","ISI","","html-keyboard-response","510","674407","0.0-1.0-696.0","0","0","55257","","null","","","null","77","NaN","","","","","","","","","","","","","","",""
"","S2","","html-keyboard-response","511","674672","0.0-1.0-697.0","0","0","55257","","null","","","null","77","","NaN","","","","","","","","","","","","","",""
"","response","","html-keyboard-response","512","675900","0.0-1.0-698.0-0.0","0","0","55257","","1227","","","75","77","","","2","77","training","adjacent","EF","5","6","Q.jpg","L.jpg","1","1","1","",""
"","feedback","","html-keyboard-response","513","676917","0.0-1.0-699.0-0.0","0","0","55257","","null","","","null","77","","","","","","","","","","","","","","","",""
"","ITI","","html-keyboard-response","514","677931","0.0-1.0-702.0","0","0","55257","","null","","","null","77","","","","","","","","","","","","","","","NaN",""
"","S1","","html-keyboard-response","515","678197","0.0-1.0-704.0","0","0","55257","","null","","","null","78","","","","","","","","","","","","","","","",""
"","ISI","","html-keyboard-response","516","679208","0.0-1.0-705.0","0","0","55257","","null","","","null","78","NaN","","","","","","","","","","","","","","",""
"","S2","","html-keyboard-response","517","679460","0.0-1.0-706.0","0","0","55257","","null","","","null","78","","NaN","","","","","","","","","","","","","",""
"","response","","html-keyboard-response","518","680100","0.0-1.0-707.0-0.0","0","0","55257","","638","","","75","78","","","2","78","training","adjacent","ED","5","4","Q.jpg","R.jpg","1","0","0","",""
"","feedback","","html-keyboard-response","519","681114","0.0-1.0-708.0-0.0","0","0","55257","","null","","","null","78","","","","","","","","","","","","","","","",""
"","time_out","","html-keyboard-response","520","683120","0.0-1.0-710.0-0.0","0","0","55257","","null","","","null","78","","","","","","","","","","","","","","","",""
"","ITI","","html-keyboard-response","521","684130","0.0-1.0-711.0","0","0","55257","","null","","","null","78","","","","","","","","","","","","","","","NaN",""
"","S1","","html-keyboard-response","522","684395","0.0-1.0-713.0","0","0","55257","","null","","","null","79","","","","","","","","","","","","","","","",""
"","ISI","","html-keyboard-response","523","685403","0.0-1.0-714.0","0","0","55257","","null","","","null","79","NaN","","","","","","","","","","","","","","",""
"","S2","","html-keyboard-response","524","685667","0.0-1.0-715.0","0","0","55257","","null","","","null","79","","NaN","","","","","","","","","","","","","",""
"","response","","html-keyboard-response","525","686468","0.0-1.0-716.0-0.0","0","0","55257","","800","","","68","79","","","2","79","training","adjacent","BA","2","1","O.jpg","M.jpg","0","0","1","",""
"","feedback","","html-keyboard-response","526","687483","0.0-1.0-717.0-0.0","0","0","55257","","null","","","null","79","","","","","","","","","","","","","","","",""
"","ITI","","html-keyboard-response","527","688491","0.0-1.0-720.0","0","0","55257","","null","","","null","79","","","","","","","","","","","","","","","NaN",""
"","S1","","html-keyboard-response","528","688755","0.0-1.0-722.0","0","0","55257","","null","","","null","80","","","","","","","","","","","","","","","",""
"","ISI","","html-keyboard-response","529","689763","0.0-1.0-723.0","0","0","55257","","null","","","null","80","NaN","","","","","","","","","","","","","","",""
"","S2","","html-keyboard-response","530","690029","0.0-1.0-724.0","0","0","55257","","null","","","null","80","","NaN","","","","","","","","","","","","","",""
"","response","","html-keyboard-response","531","690460","0.0-1.0-725.0-0.0","0","0","55257","","430","","","75","80","","","2","80","training","adjacent","BC","2","3","O.jpg","P.jpg","1","1","1","",""
"","feedback","","html-keyboard-response","532","691471","0.0-1.0-726.0-0.0","0","0","55257","","null","","","null","80","","","","","","","","","","","","","","","",""
"","ITI","","html-keyboard-response","533","692482","0.0-1.0-729.0","0","0","55257","","null","","","null","80","","","","","","","","","","","","","","","NaN",""
"","S1","","html-keyboard-response","534","692747","0.0-1.0-731.0","0","0","55257","","null","","","null","81","","","","","","","","","","","","","","","",""
"","ISI","","html-keyboard-response","535","693762","0.0-1.0-732.0","0","0","55257","","null","","","null","81","NaN","","","","","","","","","","","","","","",""
"","S2","","html-keyboard-response","536","694026","0.0-1.0-733.0","0","0","55257","","null","","","null","81","","NaN","","","","","","","","","","","","","",""
"","response","","html-keyboard-response","537","695020","0.0-1.0-734.0-0.0","0","0","55257","","992","","","68","81","","","2","81","training","adjacent","GF","7","6","N.jpg","L.jpg","0","0","1","",""
"","feedback","","html-keyboard-response","538","696028","0.0-1.0-735.0-0.0","0","0","55257","","null","","","null","81","","","","","","","","","","","","","","","",""
"","ITI","","html-keyboard-response","539","697041","0.0-1.0-738.0","0","0","55257","","null","","","null","81","","","","","","","","","","","","","","","NaN",""
"","S1","","html-keyboard-response","540","697307","0.0-1.0-740.0","0","0","55257","","null","","","null","82","","","","","","","","","","","","","","","",""
"","ISI","","html-keyboard-response","541","698314","0.0-1.0-741.0","0","0","55257","","null","","","null","82","NaN","","","","","","","","","","","","","","",""
"","S2","","html-keyboard-response","542","698580","0.0-1.0-742.0","0","0","55257","","null","","","null","82","","NaN","","","","","","","","","","","","","",""
"","response","","html-keyboard-response","543","699284","0.0-1.0-743.0-0.0","0","0","55257","","702","","","68","82","","","2","82","training","adjacent","CD","3","4","P.jpg","R.jpg","0","1","0","",""
"","feedback","","html-keyboard-response","544","700290","0.0-1.0-744.0-0.0","0","0","55257","","null","","","null","82","","","","","","","","","","","","","","","",""
"","time_out","","html-keyboard-response","545","702301","0.0-1.0-746.0-0.0","0","0","55257","","null","","","null","82","","","","","","","","","","","","","","","",""
"","ITI","","html-keyboard-response","546","703313","0.0-1.0-747.0","0","0","55257","","null","","","null","82","","","","","","","","","","","","","","","NaN",""
"","S1","","html-keyboard-response","547","703577","0.0-1.0-749.0","0","0","55257","","null","","","null","83","","","","","","","","","","","","","","","",""
"","ISI","","html-keyboard-response","548","704588","0.0-1.0-750.0","0","0","55257","","null","","","null","83","NaN","","","","","","","","","","","","","","",""
"","S2","","html-keyboard-response","549","704853","0.0-1.0-751.0","0","0","55257","","null","","","null","83","","NaN","","","","","","","","","","","","","",""
"","response","","html-keyboard-response","550","705404","0.0-1.0-752.0-0.0","0","0","55257","","549","","","75","83","","","2","83","training","adjacent","GF","7","6","N.jpg","L.jpg","1","0","0","",""
"","feedback","","html-keyboard-response","551","706408","0.0-1.0-753.0-0.0","0","0","55257","","null","","","null","83","","","","","","","","","","","","","","","",""
"","time_out","","html-keyboard-response","552","708413","0.0-1.0-755.0-0.0","0","0","55257","","null","","","null","83","","","","","","","","","","","","","","","",""
"","ITI","","html-keyboard-response","553","709424","0.0-1.0-756.0","0","0","55257","","null","","","null","83","","","","","","","","","","","","","","","NaN",""
"","S1","","html-keyboard-response","554","709689","0.0-1.0-758.0","0","0","55257","","null","","","null","84","","","","","","","","","","","","","","","",""
"","ISI","","html-keyboard-response","555","710697","0.0-1.0-759.0","0","0","55257","","null","","","null","84","NaN","","","","","","","","","","","","","","",""
"","S2","","html-keyboard-response","556","710960","0.0-1.0-760.0","0","0","55257","","null","","","null","84","","NaN","","","","","","","","","","","","","",""
"","response","","html-keyboard-response","557","711459","0.0-1.0-761.0-0.0","0","0","55257","","498","","","75","84","","","2","84","training","adjacent","FE","6","5","L.jpg","Q.jpg","1","0","0","",""
"","feedback","","html-keyboard-response","558","712469","0.0-1.0-762.0-0.0","0","0","55257","","null","","","null","84","","","","","","","","","","","","","","","",""
"","time_out","","html-keyboard-response","559","714474","0.0-1.0-764.0-0.0","0","0","55257","","null","","","null","84","","","","","","","","","","","","","","","",""
"","ITI","","html-keyboard-response","560","715486","0.0-1.0-765.0","0","0","55257","","null","","","null","84","","","","","","","","","","","","","","","NaN",""
"","S1","","html-keyboard-response","561","715753","0.0-1.0-767.0","0","0","55257","","null","","","null","85","","","","","","","","","","","","","","","",""
"","ISI","","html-keyboard-response","562","716767","0.0-1.0-768.0","0","0","55257","","null","","","null","85","NaN","","","","","","","","","","","","","","",""
"","S2","","html-keyboard-response","563","717031","0.0-1.0-769.0","0","0","55257","","null","","","null","85","","NaN","","","","","","","","","","","","","",""
"","response","","html-keyboard-response","564","717932","0.0-1.0-770.0-0.0","0","0","55257","","898","","","68","85","","","2","85","training","adjacent","BA","2","1","O.jpg","M.jpg","0","0","1","",""
"","feedback","","html-keyboard-response","565","718947","0.0-1.0-771.0-0.0","0","0","55257","","null","","","null","85","","","","","","","","","","","","","","","",""
"","ITI","","html-keyboard-response","566","719960","0.0-1.0-774.0","0","0","55257","","null","","","null","85","","","","","","","","","","","","","","","NaN",""
"","S1","","html-keyboard-response","567","720224","0.0-1.0-776.0","0","0","55257","","null","","","null","86","","","","","","","","","","","","","","","",""
"","ISI","","html-keyboard-response","568","721232","0.0-1.0-777.0","0","0","55257","","null","","","null","86","NaN","","","","","","","","","","","","","","",""
"","S2","","html-keyboard-response","569","721497","0.0-1.0-778.0","0","0","55257","","null","","","null","86","","NaN","","","","","","","","","","","","","",""
"","response","","html-keyboard-response","570","722563","0.0-1.0-779.0-0.0","0","0","55257","","1065","","","68","86","","","2","86","training","adjacent","ED","5","4","Q.jpg","R.jpg","0","0","1","",""
"","feedback","","html-keyboard-response","571","723574","0.0-1.0-780.0-0.0","0","0","55257","","null","","","null","86","","","","","","","","","","","","","","","",""
"","ITI","","html-keyboard-response","572","724586","0.0-1.0-783.0","0","0","55257","","null","","","null","86","","","","","","","","","","","","","","","NaN",""
"","S1","","html-keyboard-response","573","724849","0.0-1.0-785.0","0","0","55257","","null","","","null","87","","","","","","","","","","","","","","","",""
"","ISI","","html-keyboard-response","574","725859","0.0-1.0-786.0","0","0","55257","","null","","","null","87","NaN","","","","","","","","","","","","","","",""
"","S2","","html-keyboard-response","575","726124","0.0-1.0-787.0","0","0","55257","","null","","","null","87","","NaN","","","","","","","","","","","","","",""
"","response","","html-keyboard-response","576","727116","0.0-1.0-788.0-0.0","0","0","55257","","989","","","75","87","","","2","87","training","adjacent","CB","3","2","P.jpg","O.jpg","1","0","0","",""
"","feedback","","html-keyboard-response","577","728124","0.0-1.0-789.0-0.0","0","0","55257","","null","","","null","87","","","","","","","","","","","","","","","",""
"","time_out","","html-keyboard-response","578","730135","0.0-1.0-791.0-0.0","0","0","55257","","null","","","null","87","","","","","","","","","","","","","","","",""
