"success","ttype","start_time","trial_type","trial_index","time_elapsed","internal_node_id","warning","missed_checkup","PID","view_history","rt","responses","repeat_instructions","key_press","index","keypress_isi","keypress_S2","block","trial_num","phase","group_type","pair_type","S1_stim","S2_stim","S1_img","S2_img","S1_chosen","S1_higher","accuracy","keypress_iti","total_bonus_tally"
"true","full_screen","d04132023hr1406","fullscreen","0","2567","0.0-0.0","0","0","54299","","","","","","","","","","","","","","","","","","","","","",""
"","instructions","","instructions","1","22078","0.0-1.0-0.0-0.0","0","0","54299","[{""page_index"":0,""viewing_time"":3141},{""page_index"":1,""viewing_time"":10070},{""page_index"":2,""viewing_time"":5282},{""page_index"":3,""viewing_time"":1016}]","19509","","","","","","","","","","","","","","","","","","","",""
"","comprehension_check","","survey-multi-choice","2","40408","0.0-1.0-0.0-1.0","0","0","54299","","18327","{""Q0"":""True"",""Q1"":""D"",""Q2"":""Only when the screen 'MAKE A CHOICE' is shown"",""Q3"":""Green mark"",""Q4"":""either D or K""}","1","","","","","","","","","","","","","","","","","",""
"","missed_instruction_checkup","","html-keyboard-response","3","42570","0.0-1.0-0.0-2.0-0.0","0","1","54299","","2159","","","32","","","","","","","","","","","","","","","","",""
"","instructions","","instructions","4","48738","0.0-1.0-0.1-0.1","0","0","54299","[{""page_index"":0,""viewing_time"":2028},{""page_index"":1,""viewing_time"":2965},{""page_index"":2,""viewing_time"":589},{""page_index"":3,""viewing_time"":583}]","6166","","","","","","","","","","","","","","","","","","","",""
"","comprehension_check","","survey-multi-choice","5","57420","0.0-1.0-0.1-1.1","0","0","54299","","8679","{""Q0"":""True"",""Q1"":""D"",""Q2"":""Once the second image appears and while the screen 'MAKE A CHOICE' is shown"",""Q3"":""Green mark"",""Q4"":""either D or K""}","1","","","","","","","","","","","","","","","","","",""
"","missed_instruction_checkup","","html-keyboard-response","6","58798","0.0-1.0-0.1-2.1-0.1","0","1","54299","","1375","","","32","","","","","","","","","","","","","","","","",""
"","instructions","","instructions","7","63550","0.0-1.0-0.2-0.2","0","0","54299","[{""page_index"":0,""viewing_time"":1316},{""page_index"":1,""viewing_time"":2790},{""page_index"":2,""viewing_time"":293},{""page_index"":3,""viewing_time"":352}]","4751","","","","","","","","","","","","","","","","","","","",""
"","comprehension_check","","survey-multi-choice","8","78094","0.0-1.0-0.2-1.2","0","0","54299","","14541","{""Q0"":""True"",""Q1"":""K"",""Q2"":""Only when the screen 'MAKE A CHOICE' is shown"",""Q3"":""Green mark"",""Q4"":""either D or K""}","1","","","","","","","","","","","","","","","","","",""
"","missed_instruction_checkup","","html-keyboard-response","9","79941","0.0-1.0-0.2-2.2-0.2","0","1","54299","","1844","","","32","","","","","","","","","","","","","","","","",""
"","instructions","","instructions","10","82488","0.0-1.0-0.3-0.3","0","0","54299","[{""page_index"":0,""viewing_time"":1352},{""page_index"":1,""viewing_time"":315},{""page_index"":2,""viewing_time"":327},{""page_index"":3,""viewing_time"":551}]","2546","","","","","","","","","","","","","","","","","","","",""
"","comprehension_check","","survey-multi-choice","11","91218","0.0-1.0-0.3-1.3","0","0","54299","","8727","{""Q0"":""True"",""Q1"":""K"",""Q2"":""Once the second image appears and while the screen 'MAKE A CHOICE' is shown"",""Q3"":""Green mark"",""Q4"":""either D or K""}","0","","","","","","","","","","","","","","","","","",""
"","start_exp","","html-keyboard-response","12","93143","0.0-1.0-1.0","0","0","54299","","1923","","","32","","","","","","","","","","","","","","","","",""
"","S1","","html-keyboard-response","13","93397","0.0-1.0-2.0","0","0","54299","","null","","","null","0","","","","","","","","","","","","","","","",""
"","ISI","","html-keyboard-response","14","94401","0.0-1.0-3.0","0","0","54299","","null","","","null","0","NaN","","","","","","","","","","","","","","",""
"","S2","","html-keyboard-response","15","94654","0.0-1.0-4.0","0","0","54299","","null","","","null","0","","NaN","","","","","","","","","","","","","",""
"","response","","html-keyboard-response","16","95987","0.0-1.0-5.0-0.0","0","0","54299","","1331","","","68","0","","","1","0","training","adjacent","GF","7","6","M.jpg","L.jpg","0","0","1","",""
"","feedback","","html-keyboard-response","17","96990","0.0-1.0-6.0-0.0","0","0","54299","","null","","","null","0","","","","","","","","","","","","","","","",""
"","ITI","","html-keyboard-response","18","97993","0.0-1.0-9.0","0","0","54299","","794","","","75","0","","","","","","","","","","","","","","","k",""
"","S1","","html-keyboard-response","19","98247","0.0-1.0-11.0","0","0","54299","","null","","","null","1","","","","","","","","","","","","","","","",""
"","ISI","","html-keyboard-response","20","99260","0.0-1.0-12.0","0","0","54299","","null","","","null","1","NaN","","","","","","","","","","","","","","",""
"","S2","","html-keyboard-response","21","99514","0.0-1.0-13.0","0","0","54299","","null","","","null","1","","NaN","","","","","","","","","","","","","",""
"","response","","html-keyboard-response","22","99823","0.0-1.0-14.0-0.0","0","0","54299","","307","","","75","1","","","1","1","training","adjacent","FE","6","5","L.jpg","O.jpg","1","0","0","",""
"","feedback","","html-keyboard-response","23","100826","0.0-1.0-15.0-0.0","0","0","54299","","null","","","null","1","","","","","","","","","","","","","","","",""
"","time_out","","html-keyboard-response","24","102831","0.0-1.0-17.0-0.0","0","0","54299","","null","","","null","1","","","","","","","","","","","","","","","",""
"","ITI","","html-keyboard-response","25","103834","0.0-1.0-18.0","0","0","54299","","null","","","null","1","","","","","","","","","","","","","","","NaN",""
"","S1","","html-keyboard-response","26","104087","0.0-1.0-20.0","0","0","54299","","null","","","null","2","","","","","","","","","","","","","","","",""
"","ISI","","html-keyboard-response","27","105090","0.0-1.0-21.0","0","0","54299","","null","","","null","2","NaN","","","","","","","","","","","","","","",""
"","S2","","html-keyboard-response","28","105343","0.0-1.0-22.0","0","0","54299","","null","","","null","2","","NaN","","","","","","","","","","","","","",""
"","response","","html-keyboard-response","29","105902","0.0-1.0-23.0-0.0","0","0","54299","","558","","","75","2","","","1","2","training","adjacent","DE","4","5","N.jpg","O.jpg","1","1","1","",""
"","feedback","","html-keyboard-response","30","106906","0.0-1.0-24.0-0.0","0","0","54299","","null","","","null","2","","","","","","","","","","","","","","","",""
"","ITI","","html-keyboard-response","31","107909","0.0-1.0-27.0","0","0","54299","","null","","","null","2","","","","","","","","","","","","","","","NaN",""
"","S1","","html-keyboard-response","32","108162","0.0-1.0-29.0","0","0","54299","","null","","","null","3","","","","","","","","","","","","","","","",""
"","ISI","","html-keyboard-response","33","109165","0.0-1.0-30.0","0","0","54299","","null","","","null","3","NaN","","","","","","","","","","","","","","",""
"","S2","","html-keyboard-response","34","109430","0.0-1.0-31.0","0","0","54299","","null","","","null","3","","NaN","","","","","","","","","","","","","",""
"","response","","html-keyboard-response","35","109665","0.0-1.0-32.0-0.0","0","0","54299","","232","","","68","3","","","1","3","training","adjacent","EF","5","6","O.jpg","L.jpg","0","1","0","",""
"","feedback","","html-keyboard-response","36","110668","0.0-1.0-33.0-0.0","0","0","54299","","null","","","null","3","","","","","","","","","","","","","","","",""
"","time_out","","html-keyboard-response","37","112671","0.0-1.0-35.0-0.0","0","0","54299","","null","","","null","3","","","","","","","","","","","","","","","",""
"","ITI","","html-keyboard-response","38","113674","0.0-1.0-36.0","0","0","54299","","null","","","null","3","","","","","","","","","","","","","","","NaN",""
"","S1","","html-keyboard-response","39","113928","0.0-1.0-38.0","0","0","54299","","null","","","null","4","","","","","","","","","","","","","","","",""
"","ISI","","html-keyboard-response","40","114931","0.0-1.0-39.0","0","0","54299","","null","","","null","4","NaN","","","","","","","","","","","","","","",""
"","S2","","html-keyboard-response","41","115184","0.0-1.0-40.0","0","0","54299","","null","","","null","4","","NaN","","","","","","","","","","","","","",""
"","response","","html-keyboard-response","42","115562","0.0-1.0-41.0-0.0","0","0","54299","","376","","","75","4","","","1","4","training","adjacent","FG","6","7","L.jpg","M.jpg","1","1","1","",""
"","feedback","","html-keyboard-response","43","116566","0.0-1.0-42.0-0.0","0","0","54299","","null","","","null","4","","","","","","","","","","","","","","","",""
"","ITI","","html-keyboard-response","44","117570","0.0-1.0-45.0","0","0","54299","","null","","","null","4","","","","","","","","","","","","","","","NaN",""
"","S1","","html-keyboard-response","45","117823","0.0-1.0-47.0","0","0","54299","","null","","","null","5","","","","","","","","","","","","","","","",""
"","ISI","","html-keyboard-response","46","118825","0.0-1.0-48.0","0","0","54299","","null","","","null","5","NaN","","","","","","","","","","","","","","",""
"","S2","","html-keyboard-response","47","119079","0.0-1.0-49.0","0","0","54299","","null","","","null","5","","NaN","","","","","","","","","","","","","",""
"","response","","html-keyboard-response","48","119533","0.0-1.0-50.0-0.0","0","0","54299","","452","","","75","5","","","1","5","training","adjacent","AB","1","2","P.jpg","R.jpg","1","1","1","",""
"","feedback","","html-keyboard-response","49","120537","0.0-1.0-51.0-0.0","0","0","54299","","null","","","null","5","","","","","","","","","","","","","","","",""
"","ITI","","html-keyboard-response","50","121540","0.0-1.0-54.0","0","0","54299","","null","","","null","5","","","","","","","","","","","","","","","NaN",""
"","S1","","html-keyboard-response","51","121793","0.0-1.0-56.0","0","0","54299","","null","","","null","6","","","","","","","","","","","","","","","",""
"","ISI","","html-keyboard-response","52","122796","0.0-1.0-57.0","0","0","54299","","null","","","null","6","NaN","","","","","","","","","","","","","","",""
"","S2","","html-keyboard-response","53","123049","0.0-1.0-58.0","0","0","54299","","null","","","null","6","","NaN","","","","","","","","","","","","","",""
"","response","","html-keyboard-response","54","123327","0.0-1.0-59.0-0.0","0","0","54299","","275","","","75","6","","","1","6","training","adjacent","DE","4","5","N.jpg","O.jpg","1","1","1","",""
"","feedback","","html-keyboard-response","55","124330","0.0-1.0-60.0-0.0","0","0","54299","","null","","","null","6","","","","","","","","","","","","","","","",""
"","ITI","","html-keyboard-response","56","125334","0.0-1.0-63.0","0","0","54299","","null","","","null","6","","","","","","","","","","","","","","","NaN",""
"","S1","","html-keyboard-response","57","125587","0.0-1.0-65.0","0","0","54299","","null","","","null","7","","","","","","","","","","","","","","","",""
"","ISI","","html-keyboard-response","58","126590","0.0-1.0-66.0","0","0","54299","","null","","","null","7","NaN","","","","","","","","","","","","","","",""
"","S2","","html-keyboard-response","59","126843","0.0-1.0-67.0","0","0","54299","","null","","","null","7","","NaN","","","","","","","","","","","","","",""
"","response","","html-keyboard-response","60","127142","0.0-1.0-68.0-0.0","0","0","54299","","296","","","68","7","","","1","7","training","adjacent","BA","2","1","R.jpg","P.jpg","0","0","1","",""
"","feedback","","html-keyboard-response","61","128159","0.0-1.0-69.0-0.0","0","0","54299","","null","","","null","7","","","","","","","","","","","","","","","",""
"","ITI","","html-keyboard-response","62","129162","0.0-1.0-72.0","0","0","54299","","null","","","null","7","","","","","","","","","","","","","","","NaN",""
"","S1","","html-keyboard-response","63","129414","0.0-1.0-74.0","0","0","54299","","null","","","null","8","","","","","","","","","","","","","","","",""
"","ISI","","html-keyboard-response","64","130417","0.0-1.0-75.0","0","0","54299","","null","","","null","8","NaN","","","","","","","","","","","","","","",""
"","S2","","html-keyboard-response","65","130670","0.0-1.0-76.0","0","0","54299","","null","","","null","8","","NaN","","","","","","","","","","","","","",""
"","response","","html-keyboard-response","66","131014","0.0-1.0-77.0-0.0","0","0","54299","","341","","","75","8","","","1","8","training","adjacent","BC","2","3","R.jpg","Q.jpg","1","1","1","",""
"","feedback","","html-keyboard-response","67","132017","0.0-1.0-78.0-0.0","0","0","54299","","null","","","null","8","","","","","","","","","","","","","","","",""
"","ITI","","html-keyboard-response","68","133021","0.0-1.0-81.0","0","0","54299","","null","","","null","8","","","","","","","","","","","","","","","NaN",""
"","S1","","html-keyboard-response","69","133275","0.0-1.0-83.0","0","0","54299","","null","","","null","9","","","","","","","","","","","","","","","",""
"","ISI","","html-keyboard-response","70","134277","0.0-1.0-84.0","0","0","54299","","null","","","null","9","NaN","","","","","","","","","","","","","","",""
"","S2","","html-keyboard-response","71","134530","0.0-1.0-85.0","0","0","54299","","null","","","null","9","","NaN","","","","","","","","","","","","","",""
"","response","","html-keyboard-response","72","134687","0.0-1.0-86.0-0.0","0","0","54299","","154","","","75","9","","","1","9","training","adjacent","ED","5","4","O.jpg","N.jpg","1","0","0","",""
"","feedback","","html-keyboard-response","73","135690","0.0-1.0-87.0-0.0","0","0","54299","","null","","","null","9","","","","","","","","","","","","","","","",""
"","time_out","","html-keyboard-response","74","137693","0.0-1.0-89.0-0.0","0","0","54299","","null","","","null","9","","","","","","","","","","","","","","","",""
"","ITI","","html-keyboard-response","75","138696","0.0-1.0-90.0","0","0","54299","","null","","","null","9","","","","","","","","","","","","","","","NaN",""
"","S1","","html-keyboard-response","76","138950","0.0-1.0-92.0","0","0","54299","","null","","","null","10","","","","","","","","","","","","","","","",""
"","ISI","","html-keyboard-response","77","139954","0.0-1.0-93.0","0","0","54299","","null","","","null","10","NaN","","","","","","","","","","","","","","",""
"","S2","","html-keyboard-response","78","140207","0.0-1.0-94.0","0","0","54299","","null","","","null","10","","NaN","","","","","","","","","","","","","",""
"","response","","html-keyboard-response","79","140520","0.0-1.0-95.0-0.0","0","0","54299","","310","","","68","10","","","1","10","training","adjacent","DC","4","3","N.jpg","Q.jpg","0","0","1","",""
"","feedback","","html-keyboard-response","80","141523","0.0-1.0-96.0-0.0","0","0","54299","","null","","","null","10","","","","","","","","","","","","","","","",""
"","ITI","","html-keyboard-response","81","142526","0.0-1.0-99.0","0","0","54299","","null","","","null","10","","","","","","","","","","","","","","","NaN",""
"","S1","","html-keyboard-response","82","142778","0.0-1.0-101.0","0","0","54299","","null","","","null","11","","","","","","","","","","","","","","","",""
"","ISI","","html-keyboard-response","83","143782","0.0-1.0-102.0","0","0","54299","","null","","","null","11","NaN","","","","","","","","","","","","","","",""
"","S2","","html-keyboard-response","84","144035","0.0-1.0-103.0","0","0","54299","","null","","","null","11","","NaN","","","","","","","","","","","","","",""
"","response","","html-keyboard-response","85","144349","0.0-1.0-104.0-0.0","0","0","54299","","311","","","75","11","","","1","11","training","adjacent","GF","7","6","M.jpg","L.jpg","1","0","0","",""
"","feedback","","html-keyboard-response","86","145352","0.0-1.0-105.0-0.0","0","0","54299","","null","","","null","11","","","","","","","","","","","","","","","",""
"","time_out","","html-keyboard-response","87","147355","0.0-1.0-107.0-0.0","0","0","54299","","null","","","null","11","","","","","","","","","","","","","","","",""
"","ITI","","html-keyboard-response","88","148359","0.0-1.0-108.0","0","0","54299","","null","","","null","11","","","","","","","","","","","","","","","NaN",""
"","S1","","html-keyboard-response","89","148611","0.0-1.0-110.0","0","0","54299","","null","","","null","12","","","","","","","","","","","","","","","",""
"","ISI","","html-keyboard-response","90","149614","0.0-1.0-111.0","0","0","54299","","null","","","null","12","NaN","","","","","","","","","","","","","","",""
"","S2","","html-keyboard-response","91","149867","0.0-1.0-112.0","0","0","54299","","null","","","null","12","","NaN","","","","","","","","","","","","","",""
"","response","","html-keyboard-response","92","150115","0.0-1.0-113.0-0.0","0","0","54299","","247","","","75","12","","","1","12","training","adjacent","FE","6","5","L.jpg","O.jpg","1","0","0","",""
"","feedback","","html-keyboard-response","93","151119","0.0-1.0-114.0-0.0","0","0","54299","","null","","","null","12","","","","","","","","","","","","","","","",""
"","time_out","","html-keyboard-response","94","153122","0.0-1.0-116.0-0.0","0","0","54299","","null","","","null","12","","","","","","","","","","","","","","","",""
"","ITI","","html-keyboard-response","95","154125","0.0-1.0-117.0","0","0","54299","","null","","","null","12","","","","","","","","","","","","","","","NaN",""
"","S1","","html-keyboard-response","96","154378","0.0-1.0-119.0","0","0","54299","","null","","","null","13","","","","","","","","","","","","","","","",""
"","ISI","","html-keyboard-response","97","155381","0.0-1.0-120.0","0","0","54299","","null","","","null","13","NaN","","","","","","","","","","","","","","",""
"","S2","","html-keyboard-response","98","155634","0.0-1.0-121.0","0","0","54299","","null","","","null","13","","NaN","","","","","","","","","","","","","",""
"","response","","html-keyboard-response","99","155720","0.0-1.0-122.0-0.0","0","0","54299","","83","","","68","13","","","1","13","training","adjacent","BC","2","3","R.jpg","Q.jpg","0","1","0","",""
"","feedback","","html-keyboard-response","100","156723","0.0-1.0-123.0-0.0","0","0","54299","","null","","","null","13","","","","","","","","","","","","","","","",""
"","time_out","","html-keyboard-response","101","158726","0.0-1.0-125.0-0.0","0","0","54299","","null","","","null","13","","","","","","","","","","","","","","","",""
"","ITI","","html-keyboard-response","102","159729","0.0-1.0-126.0","0","0","54299","","null","","","null","13","","","","","","","","","","","","","","","NaN",""
"","S1","","html-keyboard-response","103","159982","0.0-1.0-128.0","0","0","54299","","null","","","null","14","","","","","","","","","","","","","","","",""
"","ISI","","html-keyboard-response","104","160992","0.0-1.0-129.0","0","0","54299","","null","","","null","14","NaN","","","","","","","","","","","","","","",""
"","S2","","html-keyboard-response","105","161236","0.0-1.0-130.0","0","0","54299","","242","","","68","14","","d","1","14","training","adjacent","DC","4","3","N.jpg","Q.jpg","0","0","1","",""
"","feedback","","html-keyboard-response","106","162240","0.0-1.0-132.0-0.0","0","0","54299","","null","","","null","14","","","","","","","","","","","","","","","",""
"","ITI","","html-keyboard-response","107","163242","0.0-1.0-135.0","0","0","54299","","null","","","null","14","","","","","","","","","","","","","","","NaN",""
"","S1","","html-keyboard-response","108","163496","0.0-1.0-137.0","0","0","54299","","null","","","null","15","","","","","","","","","","","","","","","",""
"","ISI","","html-keyboard-response","109","164499","0.0-1.0-138.0","0","0","54299","","null","","","null","15","NaN","","","","","","","","","","","","","","",""
"","S2","","html-keyboard-response","110","164752","0.0-1.0-139.0","0","0","54299","","null","","","null","15","","NaN","","","","","","","","","","","","","",""
"","response","","html-keyboard-response","111","164875","0.0-1.0-140.0-0.0","0","0","54299","","120","","","75","15","","","1","15","training","adjacent","CB","3","2","Q.jpg","R.jpg","1","0","0","",""
"","feedback","","html-keyboard-response","112","165878","0.0-1.0-141.0-0.0","0","0","54299","","null","","","null","15","","","","","","","","","","","","","","","",""
"","time_out","","html-keyboard-response","113","167883","0.0-1.0-143.0-0.0","0","0","54299","","null","","","null","15","","","","","","","","","","","","","","","",""
"","ITI","","html-keyboard-response","114","168886","0.0-1.0-144.0","0","0","54299","","null","","","null","15","","","","","","","","","","","","","","","NaN",""
"","S1","","html-keyboard-response","115","169140","0.0-1.0-146.0","0","0","54299","","null","","","null","16","","","","","","","","","","","","","","","",""
"","ISI","","html-keyboard-response","116","170143","0.0-1.0-147.0","0","0","54299","","null","","","null","16","NaN","","","","","","","","","","","","","","",""
"","S2","","html-keyboard-response","117","170397","0.0-1.0-148.0","0","0","54299","","null","","","null","16","","NaN","","","","","","","","","","","","","",""
"","response","","html-keyboard-response","118","170929","0.0-1.0-149.0-0.0","0","0","54299","","530","","","68","16","","","1","16","training","adjacent","ED","5","4","O.jpg","N.jpg","0","0","1","",""
"","feedback","","html-keyboard-response","119","171932","0.0-1.0-150.0-0.0","0","0","54299","","null","","","null","16","","","","","","","","","","","","","","","",""
"","ITI","","html-keyboard-response","120","172936","0.0-1.0-153.0","0","0","54299","","null","","","null","16","","","","","","","","","","","","","","","NaN",""
"","S1","","html-keyboard-response","121","173189","0.0-1.0-155.0","0","0","54299","","null","","","null","17","","","","","","","","","","","","","","","",""
"","ISI","","html-keyboard-response","122","174193","0.0-1.0-156.0","0","0","54299","","null","","","null","17","NaN","","","","","","","","","","","","","","",""
"","S2","","html-keyboard-response","123","174446","0.0-1.0-157.0","0","0","54299","","null","","","null","17","","NaN","","","","","","","","","","","","","",""
"","response","","html-keyboard-response","124","174583","0.0-1.0-158.0-0.0","0","0","54299","","134","","","68","17","","","1","17","training","adjacent","EF","5","6","O.jpg","L.jpg","0","1","0","",""
"","feedback","","html-keyboard-response","125","175587","0.0-1.0-159.0-0.0","0","0","54299","","null","","","null","17","","","","","","","","","","","","","","","",""
"","time_out","","html-keyboard-response","126","177589","0.0-1.0-161.0-0.0","0","0","54299","","null","","","null","17","","","","","","","","","","","","","","","",""
"","ITI","","html-keyboard-response","127","178593","0.0-1.0-162.0","0","0","54299","","null","","","null","17","","","","","","","","","","","","","","","NaN",""
"","S1","","html-keyboard-response","128","178846","0.0-1.0-164.0","0","0","54299","","null","","","null","18","","","","","","","","","","","","","","","",""
"","ISI","","html-keyboard-response","129","179849","0.0-1.0-165.0","0","0","54299","","null","","","null","18","NaN","","","","","","","","","","","","","","",""
"","S2","","html-keyboard-response","130","180102","0.0-1.0-166.0","0","0","54299","","null","","","null","18","","NaN","","","","","","","","","","","","","",""
"","response","","html-keyboard-response","131","180546","0.0-1.0-167.0-0.0","0","0","54299","","441","","","68","18","","","1","18","training","adjacent","BC","2","3","R.jpg","Q.jpg","0","1","0","",""
"","feedback","","html-keyboard-response","132","181548","0.0-1.0-168.0-0.0","0","0","54299","","null","","","null","18","","","","","","","","","","","","","","","",""
"","time_out","","html-keyboard-response","133","183552","0.0-1.0-170.0-0.0","0","0","54299","","null","","","null","18","","","","","","","","","","","","","","","",""
"","ITI","","html-keyboard-response","134","184555","0.0-1.0-171.0","0","0","54299","","null","","","null","18","","","","","","","","","","","","","","","NaN",""
"","S1","","html-keyboard-response","135","184808","0.0-1.0-173.0","0","0","54299","","null","","","null","19","","","","","","","","","","","","","","","",""
"","ISI","","html-keyboard-response","136","185812","0.0-1.0-174.0","0","0","54299","","null","","","null","19","NaN","","","","","","","","","","","","","","",""
"","S2","","html-keyboard-response","137","186065","0.0-1.0-175.0","0","0","54299","","null","","","null","19","","NaN","","","","","","","","","","","","","",""
"","response","","html-keyboard-response","138","186525","0.0-1.0-176.0-0.0","0","0","54299","","459","","","68","19","","","1","19","training","adjacent","CB","3","2","Q.jpg","R.jpg","0","0","1","",""
"","feedback","","html-keyboard-response","139","187529","0.0-1.0-177.0-0.0","0","0","54299","","null","","","null","19","","","","","","","","","","","","","","","",""
"","ITI","","html-keyboard-response","140","188531","0.0-1.0-180.0","0","0","54299","","null","","","null","19","","","","","","","","","","","","","","","NaN",""
"","S1","","html-keyboard-response","141","188785","0.0-1.0-182.0","0","0","54299","","null","","","null","20","","","","","","","","","","","","","","","",""
"","ISI","","html-keyboard-response","142","189788","0.0-1.0-183.0","0","0","54299","","null","","","null","20","NaN","","","","","","","","","","","","","","",""
"","S2","","html-keyboard-response","143","190041","0.0-1.0-184.0","0","0","54299","","null","","","null","20","","NaN","","","","","","","","","","","","","",""
"","response","","html-keyboard-response","144","190282","0.0-1.0-185.0-0.0","0","0","54299","","238","","","75","20","","","1","20","training","adjacent","FG","6","7","L.jpg","M.jpg","1","1","1","",""
"","feedback","","html-keyboard-response","145","191285","0.0-1.0-186.0-0.0","0","0","54299","","null","","","null","20","","","","","","","","","","","","","","","",""
"","ITI","","html-keyboard-response","146","192288","0.0-1.0-189.0","0","0","54299","","null","","","null","20","","","","","","","","","","","","","","","NaN",""
"","S1","","html-keyboard-response","147","192541","0.0-1.0-191.0","0","0","54299","","null","","","null","21","","","","","","","","","","","","","","","",""
"","ISI","","html-keyboard-response","148","193544","0.0-1.0-192.0","0","0","54299","","null","","","null","21","NaN","","","","","","","","","","","","","","",""
"","S2","","html-keyboard-response","149","193798","0.0-1.0-193.0","0","0","54299","","null","","","null","21","","NaN","","","","","","","","","","","","","",""
"","response","","html-keyboard-response","150","193986","0.0-1.0-194.0-0.0","0","0","54299","","186","","","75","21","","","1","21","training","adjacent","AB","1","2","P.jpg","R.jpg","1","1","1","",""
"","feedback","","html-keyboard-response","151","194989","0.0-1.0-195.0-0.0","0","0","54299","","null","","","null","21","","","","","","","","","","","","","","","",""
"","ITI","","html-keyboard-response","152","195992","0.0-1.0-198.0","0","0","54299","","null","","","null","21","","","","","","","","","","","","","","","NaN",""
"","S1","","html-keyboard-response","153","196245","0.0-1.0-200.0","0","0","54299","","null","","","null","22","","","","","","","","","","","","","","","",""
"","ISI","","html-keyboard-response","154","197248","0.0-1.0-201.0","0","0","54299","","null","","","null","22","NaN","","","","","","","","","","","","","","",""
"","S2","","html-keyboard-response","155","197501","0.0-1.0-202.0","0","0","54299","","null","","","null","22","","NaN","","","","","","","","","","","","","",""
"","response","","html-keyboard-response","156","197650","0.0-1.0-203.0-0.0","0","0","54299","","146","","","68","22","","","1","22","training","adjacent","CD","3","4","Q.jpg","N.jpg","0","1","0","",""
"","feedback","","html-keyboard-response","157","198653","0.0-1.0-204.0-0.0","0","0","54299","","null","","","null","22","","","","","","","","","","","","","","","",""
"","time_out","","html-keyboard-response","158","200655","0.0-1.0-206.0-0.0","0","0","54299","","null","","","null","22","","","","","","","","","","","","","","","",""
"","ITI","","html-keyboard-response","159","201669","0.0-1.0-207.0","0","0","54299","","null","","","null","22","","","","","","","","","","","","","","","NaN",""
"","S1","","html-keyboard-response","160","201922","0.0-1.0-209.0","0","0","54299","","null","","","null","23","","","","","","","","","","","","","","","",""
"","ISI","","html-keyboard-response","161","202925","0.0-1.0-210.0","0","0","54299","","null","","","null","23","NaN","","","","","","","","","","","","","","",""
"","S2","","html-keyboard-response","162","203177","0.0-1.0-211.0","0","0","54299","","null","","","null","23","","NaN","","","","","","","","","","","","","",""
"","response","","html-keyboard-response","163","203545","0.0-1.0-212.0-0.0","0","0","54299","","367","","","75","23","","","1","23","training","adjacent","AB","1","2","P.jpg","R.jpg","1","1","1","",""
"","feedback","","html-keyboard-response","164","204549","0.0-1.0-213.0-0.0","0","0","54299","","null","","","null","23","","","","","","","","","","","","","","","",""
"","ITI","","html-keyboard-response","165","205552","0.0-1.0-216.0","0","0","54299","","null","","","null","23","","","","","","","","","","","","","","","NaN",""
"","S1","","html-keyboard-response","166","205805","0.0-1.0-218.0","0","0","54299","","null","","","null","24","","","","","","","","","","","","","","","",""
"","ISI","","html-keyboard-response","167","206809","0.0-1.0-219.0","0","0","54299","","null","","","null","24","NaN","","","","","","","","","","","","","","",""
"","S2","","html-keyboard-response","168","207062","0.0-1.0-220.0","0","0","54299","","null","","","null","24","","NaN","","","","","","","","","","","","","",""
"","response","","html-keyboard-response","169","207294","0.0-1.0-221.0-0.0","0","0","54299","","230","","","68","24","","","1","24","training","adjacent","AB","1","2","P.jpg","R.jpg","0","1","0","",""
"","feedback","","html-keyboard-response","170","208297","0.0-1.0-222.0-0.0","0","0","54299","","null","","","null","24","","","","","","","","","","","","","","","",""
"","time_out","","html-keyboard-response","171","210301","0.0-1.0-224.0-0.0","0","0","54299","","null","","","null","24","","","","","","","","","","","","","","","",""
"","ITI","","html-keyboard-response","172","211304","0.0-1.0-225.0","0","0","54299","","null","","","null","24","","","","","","","","","","","","","","","NaN",""
"","S1","","html-keyboard-response","173","211558","0.0-1.0-227.0","0","0","54299","","null","","","null","25","","","","","","","","","","","","","","","",""
"","ISI","","html-keyboard-response","174","212561","0.0-1.0-228.0","0","0","54299","","null","","","null","25","NaN","","","","","","","","","","","","","","",""
"","S2","","html-keyboard-response","175","212814","0.0-1.0-229.0","0","0","54299","","null","","","null","25","","NaN","","","","","","","","","","","","","",""
"","response","","html-keyboard-response","176","212971","0.0-1.0-230.0-0.0","0","0","54299","","154","","","75","25","","","1","25","training","adjacent","CD","3","4","Q.jpg","N.jpg","1","1","1","",""
"","feedback","","html-keyboard-response","177","213974","0.0-1.0-231.0-0.0","0","0","54299","","null","","","null","25","","","","","","","","","","","","","","","",""
"","ITI","","html-keyboard-response","178","214977","0.0-1.0-234.0","0","0","54299","","null","","","null","25","","","","","","","","","","","","","","","NaN",""
"","S1","","html-keyboard-response","179","215232","0.0-1.0-236.0","0","0","54299","","null","","","null","26","","","","","","","","","","","","","","","",""
"","ISI","","html-keyboard-response","180","216234","0.0-1.0-237.0","0","0","54299","","null","","","null","26","NaN","","","","","","","","","","","","","","",""
"","S2","","html-keyboard-response","181","216488","0.0-1.0-238.0","0","0","54299","","null","","","null","26","","NaN","","","","","","","","","","","","","",""
"","response","","html-keyboard-response","182","216733","0.0-1.0-239.0-0.0","0","0","54299","","243","","","68","26","","","1","26","training","adjacent","CB","3","2","Q.jpg","R.jpg","0","0","1","",""
"","feedback","","html-keyboard-response","183","217737","0.0-1.0-240.0-0.0","0","0","54299","","null","","","null","26","","","","","","","","","","","","","","","",""
"","ITI","","html-keyboard-response","184","218740","0.0-1.0-243.0","0","0","54299","","null","","","null","26","","","","","","","","","","","","","","","NaN",""
"","S1","","html-keyboard-response","185","218993","0.0-1.0-245.0","0","0","54299","","null","","","null","27","","","","","","","","","","","","","","","",""
"","ISI","","html-keyboard-response","186","219996","0.0-1.0-246.0","0","0","54299","","null","","","null","27","NaN","","","","","","","","","","","","","","",""
"","S2","","html-keyboard-response","187","220251","0.0-1.0-247.0","0","0","54299","","null","","","null","27","","NaN","","","","","","","","","","","","","",""
"","response","","html-keyboard-response","188","220684","0.0-1.0-248.0-0.0","0","0","54299","","431","","","68","27","","","1","27","training","adjacent","CD","3","4","Q.jpg","N.jpg","0","1","0","",""
"","feedback","","html-keyboard-response","189","221689","0.0-1.0-249.0-0.0","0","0","54299","","null","","","null","27","","","","","","","","","","","","","","","",""
"","time_out","","html-keyboard-response","190","223693","0.0-1.0-251.0-0.0","0","0","54299","","null","","","null","27","","","","","","","","","","","","","","","",""
"","ITI","","html-keyboard-response","191","224696","0.0-1.0-252.0","0","0","54299","","null","","","null","27","","","","","","","","","","","","","","","NaN",""
"","S1","","html-keyboard-response","192","224949","0.0-1.0-254.0","0","0","54299","","null","","","null","28","","","","","","","","","","","","","","","",""
"","ISI","","html-keyboard-response","193","225953","0.0-1.0-255.0","0","0","54299","","543","","","75","28","k","","","","","","","","","","","","","","",""
"","S2","","html-keyboard-response","194","226207","0.0-1.0-256.0","0","0","54299","","null","","","null","28","","NaN","","","","","","","","","","","","","",""
"","response","","html-keyboard-response","195","226247","0.0-1.0-257.0-0.0","0","0","54299","","39","","","75","28","","","1","28","training","adjacent","CB","3","2","Q.jpg","R.jpg","1","0","0","",""
"","feedback","","html-keyboard-response","196","227250","0.0-1.0-258.0-0.0","0","0","54299","","null","","","null","28","","","","","","","","","","","","","","","",""
"","time_out","","html-keyboard-response","197","229254","0.0-1.0-260.0-0.0","0","0","54299","","null","","","null","28","","","","","","","","","","","","","","","",""
"","ITI","","html-keyboard-response","198","230256","0.0-1.0-261.0","0","0","54299","","null","","","null","28","","","","","","","","","","","","","","","NaN",""
"","S1","","html-keyboard-response","199","230522","0.0-1.0-263.0","0","0","54299","","null","","","null","29","","","","","","","","","","","","","","","",""
"","ISI","","html-keyboard-response","200","231525","0.0-1.0-264.0","0","0","54299","","null","","","null","29","NaN","","","","","","","","","","","","","","",""
"","S2","","html-keyboard-response","201","231780","0.0-1.0-265.0","0","0","54299","","null","","","null","29","","NaN","","","","","","","","","","","","","",""
"","response","","html-keyboard-response","202","232512","0.0-1.0-266.0-0.0","0","0","54299","","729","","","68","29","","","1","29","training","adjacent","EF","5","6","O.jpg","L.jpg","0","1","0","",""
"","feedback","","html-keyboard-response","203","233516","0.0-1.0-267.0-0.0","0","0","54299","","null","","","null","29","","","","","","","","","","","","","","","",""
"","time_out","","html-keyboard-response","204","235518","0.0-1.0-269.0-0.0","0","0","54299","","null","","","null","29","","","","","","","","","","","","","","","",""
"","ITI","","html-keyboard-response","205","236522","0.0-1.0-270.0","0","0","54299","","null","","","null","29","","","","","","","","","","","","","","","NaN",""
"","S1","","html-keyboard-response","206","236775","0.0-1.0-272.0","0","0","54299","","null","","","null","30","","","","","","","","","","","","","","","",""
"","ISI","","html-keyboard-response","207","237778","0.0-1.0-273.0","0","0","54299","","null","","","null","30","NaN","","","","","","","","","","","","","","",""
"","S2","","html-keyboard-response","208","238031","0.0-1.0-274.0","0","0","54299","","null","","","null","30","","NaN","","","","","","","","","","","","","",""
"","response","","html-keyboard-response","209","238481","0.0-1.0-275.0-0.0","0","0","54299","","447","","","68","30","","","1","30","training","adjacent","DC","4","3","N.jpg","Q.jpg","0","0","1","",""
"","feedback","","html-keyboard-response","210","239484","0.0-1.0-276.0-0.0","0","0","54299","","null","","","null","30","","","","","","","","","","","","","","","",""
"","ITI","","html-keyboard-response","211","240488","0.0-1.0-279.0","0","0","54299","","null","","","null","30","","","","","","","","","","","","","","","NaN",""
"","S1","","html-keyboard-response","212","240741","0.0-1.0-281.0","0","0","54299","","null","","","null","31","","","","","","","","","","","","","","","",""
"","ISI","","html-keyboard-response","213","241756","0.0-1.0-282.0","0","0","54299","","null","","","null","31","NaN","","","","","","","","","","","","","","",""
"","S2","","html-keyboard-response","214","242019","0.0-1.0-283.0","0","0","54299","","null","","","null","31","","NaN","","","","","","","","","","","","","",""
"","response","","html-keyboard-response","215","242745","0.0-1.0-284.0-0.0","0","0","54299","","723","","","75","31","","","1","31","training","adjacent","DE","4","5","N.jpg","O.jpg","1","1","1","",""
"","feedback","","html-keyboard-response","216","243748","0.0-1.0-285.0-0.0","0","0","54299","","null","","","null","31","","","","","","","","","","","","","","","",""
"","ITI","","html-keyboard-response","217","244752","0.0-1.0-288.0","0","0","54299","","null","","","null","31","","","","","","","","","","","","","","","NaN",""
"","S1","","html-keyboard-response","218","245005","0.0-1.0-290.0","0","0","54299","","null","","","null","32","","","","","","","","","","","","","","","",""
"","ISI","","html-keyboard-response","219","246007","0.0-1.0-291.0","0","0","54299","","null","","","null","32","NaN","","","","","","","","","","","","","","",""
"","S2","","html-keyboard-response","220","246261","0.0-1.0-292.0","0","0","54299","","null","","","null","32","","NaN","","","","","","","","","","","","","",""
"","response","","html-keyboard-response","221","247633","0.0-1.0-293.0-0.0","0","0","54299","","1370","","","68","32","","","1","32","training","adjacent","ED","5","4","O.jpg","N.jpg","0","0","1","",""
"","feedback","","html-keyboard-response","222","248636","0.0-1.0-294.0-0.0","0","0","54299","","null","","","null","32","","","","","","","","","","","","","","","",""
"","ITI","","html-keyboard-response","223","249638","0.0-1.0-297.0","0","0","54299","","null","","","null","32","","","","","","","","","","","","","","","NaN",""
"","S1","","html-keyboard-response","224","249891","0.0-1.0-299.0","0","0","54299","","null","","","null","33","","","","","","","","","","","","","","","",""
"","ISI","","html-keyboard-response","225","250895","0.0-1.0-300.0","0","0","54299","","null","","","null","33","NaN","","","","","","","","","","","","","","",""
"","S2","","html-keyboard-response","226","251148","0.0-1.0-301.0","0","0","54299","","null","","","null","33","","NaN","","","","","","","","","","","","","",""
"","response","","html-keyboard-response","227","251703","0.0-1.0-302.0-0.0","0","0","54299","","552","","","75","33","","","1","33","training","adjacent","FE","6","5","L.jpg","O.jpg","1","0","0","",""
"","feedback","","html-keyboard-response","228","252707","0.0-1.0-303.0-0.0","0","0","54299","","null","","","null","33","","","","","","","","","","","","","","","",""
"","time_out","","html-keyboard-response","229","254710","0.0-1.0-305.0-0.0","0","0","54299","","null","","","null","33","","","","","","","","","","","","","","","",""
"","ITI","","html-keyboard-response","230","255714","0.0-1.0-306.0","0","0","54299","","null","","","null","33","","","","","","","","","","","","","","","NaN",""
"","S1","","html-keyboard-response","231","255967","0.0-1.0-308.0","0","0","54299","","null","","","null","34","","","","","","","","","","","","","","","",""
"","ISI","","html-keyboard-response","232","256971","0.0-1.0-309.0","0","0","54299","","534","","","68","34","d","","","","","","","","","","","","","","",""
"","S2","","html-keyboard-response","233","257224","0.0-1.0-310.0","0","0","54299","","null","","","null","34","","NaN","","","","","","","","","","","","","",""
"","response","","html-keyboard-response","234","258126","0.0-1.0-311.0-0.0","0","0","54299","","900","","","68","34","","","1","34","training","adjacent","FG","6","7","L.jpg","M.jpg","0","1","0","",""
"","feedback","","html-keyboard-response","235","259129","0.0-1.0-312.0-0.0","0","0","54299","","null","","","null","34","","","","","","","","","","","","","","","",""
"","time_out","","html-keyboard-response","236","261132","0.0-1.0-314.0-0.0","0","0","54299","","null","","","null","34","","","","","","","","","","","","","","","",""
"","ITI","","html-keyboard-response","237","262133","0.0-1.0-315.0","0","0","54299","","null","","","null","34","","","","","","","","","","","","","","","NaN",""
"","S1","","html-keyboard-response","238","262385","0.0-1.0-317.0","0","0","54299","","null","","","null","35","","","","","","","","","","","","","","","",""
"","ISI","","html-keyboard-response","239","263388","0.0-1.0-318.0","0","0","54299","","null","","","null","35","NaN","","","","","","","","","","","","","","",""
"","S2","","html-keyboard-response","240","263640","0.0-1.0-319.0","0","0","54299","","null","","","null","35","","NaN","","","","","","","","","","","","","",""
"","response","","html-keyboard-response","241","264335","0.0-1.0-320.0-0.0","0","0","54299","","693","","","75","35","","","1","35","training","adjacent","BA","2","1","R.jpg","P.jpg","1","0","0","",""
"","feedback","","html-keyboard-response","242","265338","0.0-1.0-321.0-0.0","0","0","54299","","null","","","null","35","","","","","","","","","","","","","","","",""
"","time_out","","html-keyboard-response","243","267341","0.0-1.0-323.0-0.0","0","0","54299","","null","","","null","35","","","","","","","","","","","","","","","",""
"","ITI","","html-keyboard-response","244","268343","0.0-1.0-324.0","0","0","54299","","null","","","null","35","","","","","","","","","","","","","","","NaN",""
"","S1","","html-keyboard-response","245","268596","0.0-1.0-326.0","0","0","54299","","null","","","null","36","","","","","","","","","","","","","","","",""
"","ISI","","html-keyboard-response","246","269598","0.0-1.0-327.0","0","0","54299","","null","","","null","36","NaN","","","","","","","","","","","","","","",""
"","S2","","html-keyboard-response","247","269852","0.0-1.0-328.0","0","0","54299","","null","","","null","36","","NaN","","","","","","","","","","","","","",""
"","response","","html-keyboard-response","248","270253","0.0-1.0-329.0-0.0","0","0","54299","","400","","","68","36","","","1","36","training","adjacent","BC","2","3","R.jpg","Q.jpg","0","1","0","",""
"","feedback","","html-keyboard-response","249","271256","0.0-1.0-330.0-0.0","0","0","54299","","null","","","null","36","","","","","","","","","","","","","","","",""
"","time_out","","html-keyboard-response","250","273259","0.0-1.0-332.0-0.0","0","0","54299","","null","","","null","36","","","","","","","","","","","","","","","",""
"","ITI","","html-keyboard-response","251","274262","0.0-1.0-333.0","0","0","54299","","null","","","null","36","","","","","","","","","","","","","","","NaN",""
"","S1","","html-keyboard-response","252","274515","0.0-1.0-335.0","0","0","54299","","null","","","null","37","","","","","","","","","","","","","","","",""
"","ISI","","html-keyboard-response","253","275518","0.0-1.0-336.0","0","0","54299","","null","","","null","37","NaN","","","","","","","","","","","","","","",""
"","S2","","html-keyboard-response","254","275771","0.0-1.0-337.0","0","0","54299","","null","","","null","37","","NaN","","","","","","","","","","","","","",""
"","response","","html-keyboard-response","255","277283","0.0-1.0-338.0-0.0","0","0","54299","","1510","","","75","37","","","1","37","training","adjacent","EF","5","6","O.jpg","L.jpg","1","1","1","",""
"","feedback","","html-keyboard-response","256","278287","0.0-1.0-339.0-0.0","0","0","54299","","null","","","null","37","","","","","","","","","","","","","","","",""
"","ITI","","html-keyboard-response","257","279290","0.0-1.0-342.0","0","0","54299","","null","","","null","37","","","","","","","","","","","","","","","NaN",""
"","S1","","html-keyboard-response","258","279544","0.0-1.0-344.0","0","0","54299","","null","","","null","38","","","","","","","","","","","","","","","",""
"","ISI","","html-keyboard-response","259","280548","0.0-1.0-345.0","0","0","54299","","null","","","null","38","NaN","","","","","","","","","","","","","","",""
"","S2","","html-keyboard-response","260","280801","0.0-1.0-346.0","0","0","54299","","null","","","null","38","","NaN","","","","","","","","","","","","","",""
"","response","","html-keyboard-response","261","282414","0.0-1.0-347.0-0.0","0","0","54299","","1610","","","75","38","","","1","38","training","adjacent","DE","4","5","N.jpg","O.jpg","1","1","1","",""
"","feedback","","html-keyboard-response","262","283418","0.0-1.0-348.0-0.0","0","0","54299","","null","","","null","38","","","","","","","","","","","","","","","",""
"","ITI","","html-keyboard-response","263","284422","0.0-1.0-351.0","0","0","54299","","null","","","null","38","","","","","","","","","","","","","","","NaN",""
"","S1","","html-keyboard-response","264","284675","0.0-1.0-353.0","0","0","54299","","null","","","null","39","","","","","","","","","","","","","","","",""
"","ISI","","html-keyboard-response","265","285678","0.0-1.0-354.0","0","0","54299","","null","","","null","39","NaN","","","","","","","","","","","","","","",""
"","S2","","html-keyboard-response","266","285932","0.0-1.0-355.0","0","0","54299","","null","","","null","39","","NaN","","","","","","","","","","","","","",""
"","response","","html-keyboard-response","267","286417","0.0-1.0-356.0-0.0","0","0","54299","","483","","","68","39","","","1","39","training","adjacent","CD","3","4","Q.jpg","N.jpg","0","1","0","",""
"","feedback","","html-keyboard-response","268","287421","0.0-1.0-357.0-0.0","0","0","54299","","null","","","null","39","","","","","","","","","","","","","","","",""
"","time_out","","html-keyboard-response","269","289424","0.0-1.0-359.0-0.0","0","0","54299","","null","","","null","39","","","","","","","","","","","","","","","",""
"","ITI","","html-keyboard-response","270","290426","0.0-1.0-360.0","0","0","54299","","null","","","null","39","","","","","","","","","","","","","","","NaN",""
"","S1","","html-keyboard-response","271","290689","0.0-1.0-362.0","0","0","54299","","null","","","null","40","","","","","","","","","","","","","","","",""
"","ISI","","html-keyboard-response","272","291693","0.0-1.0-363.0","0","0","54299","","null","","","null","40","NaN","","","","","","","","","","","","","","",""
"","S2","","html-keyboard-response","273","291946","0.0-1.0-364.0","0","0","54299","","null","","","null","40","","NaN","","","","","","","","","","","","","",""
"","response","","html-keyboard-response","274","292212","0.0-1.0-365.0-0.0","0","0","54299","","263","","","75","40","","","1","40","training","adjacent","ED","5","4","O.jpg","N.jpg","1","0","0","",""
"","feedback","","html-keyboard-response","275","293215","0.0-1.0-366.0-0.0","0","0","54299","","null","","","null","40","","","","","","","","","","","","","","","",""
"","time_out","","html-keyboard-response","276","295218","0.0-1.0-368.0-0.0","0","0","54299","","null","","","null","40","","","","","","","","","","","","","","","",""
"","ITI","","html-keyboard-response","277","296221","0.0-1.0-369.0","0","0","54299","","null","","","null","40","","","","","","","","","","","","","","","NaN",""
"","S1","","html-keyboard-response","278","296474","0.0-1.0-371.0","0","0","54299","","null","","","null","41","","","","","","","","","","","","","","","",""
"","ISI","","html-keyboard-response","279","297477","0.0-1.0-372.0","0","0","54299","","null","","","null","41","NaN","","","","","","","","","","","","","","",""
"","S2","","html-keyboard-response","280","297730","0.0-1.0-373.0","0","0","54299","","null","","","null","41","","NaN","","","","","","","","","","","","","",""
"","response","","html-keyboard-response","281","298407","0.0-1.0-374.0-0.0","0","0","54299","","675","","","75","41","","","1","41","training","adjacent","BA","2","1","R.jpg","P.jpg","1","0","0","",""
"","feedback","","html-keyboard-response","282","299410","0.0-1.0-375.0-0.0","0","0","54299","","null","","","null","41","","","","","","","","","","","","","","","",""
"","time_out","","html-keyboard-response","283","301413","0.0-1.0-377.0-0.0","0","0","54299","","null","","","null","41","","","","","","","","","","","","","","","",""
"","ITI","","html-keyboard-response","284","302415","0.0-1.0-378.0","0","0","54299","","null","","","null","41","","","","","","","","","","","","","","","NaN",""
"","S1","","html-keyboard-response","285","302668","0.0-1.0-380.0","0","0","54299","","null","","","null","42","","","","","","","","","","","","","","","",""
"","ISI","","html-keyboard-response","286","303671","0.0-1.0-381.0","0","0","54299","","null","","","null","42","NaN","","","","","","","","","","","","","","",""
"","S2","","html-keyboard-response","287","303925","0.0-1.0-382.0","0","0","54299","","null","","","null","42","","NaN","","","","","","","","","","","","","",""
"","response","","html-keyboard-response","288","304406","0.0-1.0-383.0-0.0","0","0","54299","","478","","","75","42","","","1","42","training","adjacent","GF","7","6","M.jpg","L.jpg","1","0","0","",""
"","feedback","","html-keyboard-response","289","305409","0.0-1.0-384.0-0.0","0","0","54299","","null","","","null","42","","","","","","","","","","","","","","","",""
"","time_out","","html-keyboard-response","290","307413","0.0-1.0-386.0-0.0","0","0","54299","","null","","","null","42","","","","","","","","","","","","","","","",""
"","ITI","","html-keyboard-response","291","308416","0.0-1.0-387.0","0","0","54299","","null","","","null","42","","","","","","","","","","","","","","","NaN",""
"","S1","","html-keyboard-response","292","308669","0.0-1.0-389.0","0","0","54299","","null","","","null","43","","","","","","","","","","","","","","","",""
"","ISI","","html-keyboard-response","293","309672","0.0-1.0-390.0","0","0","54299","","null","","","null","43","NaN","","","","","","","","","","","","","","",""
"","S2","","html-keyboard-response","294","309926","0.0-1.0-391.0","0","0","54299","","null","","","null","43","","NaN","","","","","","","","","","","","","",""
"","response","","html-keyboard-response","295","310519","0.0-1.0-392.0-0.0","0","0","54299","","592","","","68","43","","","1","43","training","adjacent","BA","2","1","R.jpg","P.jpg","0","0","1","",""
"","feedback","","html-keyboard-response","296","311523","0.0-1.0-393.0-0.0","0","0","54299","","null","","","null","43","","","","","","","","","","","","","","","",""
"","ITI","","html-keyboard-response","297","312526","0.0-1.0-396.0","0","0","54299","","null","","","null","43","","","","","","","","","","","","","","","NaN",""
"","S1","","html-keyboard-response","298","312778","0.0-1.0-398.0","0","0","54299","","null","","","null","44","","","","","","","","","","","","","","","",""
"","ISI","","html-keyboard-response","299","313781","0.0-1.0-399.0","0","0","54299","","null","","","null","44","NaN","","","","","","","","","","","","","","",""
"","S2","","html-keyboard-response","300","314035","0.0-1.0-400.0","0","0","54299","","null","","","null","44","","NaN","","","","","","","","","","","","","",""
"","response","","html-keyboard-response","301","314502","0.0-1.0-401.0-0.0","0","0","54299","","465","","","68","44","","","1","44","training","adjacent","DC","4","3","N.jpg","Q.jpg","0","0","1","",""
"","feedback","","html-keyboard-response","302","315505","0.0-1.0-402.0-0.0","0","0","54299","","null","","","null","44","","","","","","","","","","","","","","","",""
"","ITI","","html-keyboard-response","303","316508","0.0-1.0-405.0","0","0","54299","","null","","","null","44","","","","","","","","","","","","","","","NaN",""
"","S1","","html-keyboard-response","304","316762","0.0-1.0-407.0","0","0","54299","","null","","","null","45","","","","","","","","","","","","","","","",""
"","ISI","","html-keyboard-response","305","317765","0.0-1.0-408.0","0","0","54299","","null","","","null","45","NaN","","","","","","","","","","","","","","",""
"","S2","","html-keyboard-response","306","318018","0.0-1.0-409.0","0","0","54299","","null","","","null","45","","NaN","","","","","","","","","","","","","",""
"","response","","html-keyboard-response","307","318127","0.0-1.0-410.0-0.0","0","0","54299","","106","","","68","45","","","1","45","training","adjacent","GF","7","6","M.jpg","L.jpg","0","0","1","",""
"","feedback","","html-keyboard-response","308","319131","0.0-1.0-411.0-0.0","0","0","54299","","null","","","null","45","","","","","","","","","","","","","","","",""
"","ITI","","html-keyboard-response","309","320134","0.0-1.0-414.0","0","0","54299","","null","","","null","45","","","","","","","","","","","","","","","NaN",""
"","S1","","html-keyboard-response","310","320387","0.0-1.0-416.0","0","0","54299","","null","","","null","46","","","","","","","","","","","","","","","",""
"","ISI","","html-keyboard-response","311","321391","0.0-1.0-417.0","0","0","54299","","null","","","null","46","NaN","","","","","","","","","","","","","","",""
"","S2","","html-keyboard-response","312","321645","0.0-1.0-418.0","0","0","54299","","null","","","null","46","","NaN","","","","","","","","","","","","","",""
"","response","","html-keyboard-response","313","321691","0.0-1.0-419.0-0.0","0","0","54299","","45","","","68","46","","","1","46","training","adjacent","FG","6","7","L.jpg","M.jpg","0","1","0","",""
"","feedback","","html-keyboard-response","314","322695","0.0-1.0-420.0-0.0","0","0","54299","","null","","","null","46","","","","","","","","","","","","","","","",""
"","time_out","","html-keyboard-response","315","324698","0.0-1.0-422.0-0.0","0","0","54299","","null","","","null","46","","","","","","","","","","","","","","","",""
"","ITI","","html-keyboard-response","316","325701","0.0-1.0-423.0","0","0","54299","","null","","","null","46","","","","","","","","","","","","","","","NaN",""
"","S1","","html-keyboard-response","317","325954","0.0-1.0-425.0","0","0","54299","","null","","","null","47","","","","","","","","","","","","","","","",""
"","ISI","","html-keyboard-response","318","326957","0.0-1.0-426.0","0","0","54299","","null","","","null","47","NaN","","","","","","","","","","","","","","",""
"","S2","","html-keyboard-response","319","327212","0.0-1.0-427.0","0","0","54299","","null","","","null","47","","NaN","","","","","","","","","","","","","",""
"","response","","html-keyboard-response","320","327397","0.0-1.0-428.0-0.0","0","0","54299","","183","","","75","47","","","1","47","training","adjacent","FE","6","5","L.jpg","O.jpg","1","0","0","",""
"","feedback","","html-keyboard-response","321","328401","0.0-1.0-429.0-0.0","0","0","54299","","null","","","null","47","","","","","","","","","","","","","","","",""
"","time_out","","html-keyboard-response","322","330405","0.0-1.0-431.0-0.0","0","0","54299","","null","","","null","47","","","","","","","","","","","","","","","",""
"","ITI","","html-keyboard-response","323","331408","0.0-1.0-432.0","0","0","54299","","null","","","null","47","","","","","","","","","","","","","","","NaN",""
"","block_over","","html-keyboard-response","324","349944","0.0-1.0-433.0-0.0","0","0","54299","","18533","","","32","47","","","","","","","","","","","","","","","",""
"","S1","","html-keyboard-response","325","350197","0.0-1.0-434.0","0","0","54299","","null","","","null","48","","","","","","","","","","","","","","","",""
"","ISI","","html-keyboard-response","326","351213","0.0-1.0-435.0","0","0","54299","","null","","","null","48","NaN","","","","","","","","","","","","","","",""
"","S2","","html-keyboard-response","327","351466","0.0-1.0-436.0","0","0","54299","","null","","","null","48","","NaN","","","","","","","","","","","","","",""
"","response","","html-keyboard-response","328","352568","0.0-1.0-437.0-0.0","0","0","54299","","1099","","","75","48","","","2","48","training","adjacent","BC","2","3","R.jpg","Q.jpg","1","1","1","",""
"","feedback","","html-keyboard-response","329","353571","0.0-1.0-438.0-0.0","0","0","54299","","null","","","null","48","","","","","","","","","","","","","","","",""
"","ITI","","html-keyboard-response","330","354574","0.0-1.0-441.0","0","0","54299","","null","","","null","48","","","","","","","","","","","","","","","NaN",""
"","S1","","html-keyboard-response","331","354827","0.0-1.0-443.0","0","0","54299","","null","","","null","49","","","","","","","","","","","","","","","",""
"","ISI","","html-keyboard-response","332","355831","0.0-1.0-444.0","0","0","54299","","null","","","null","49","NaN","","","","","","","","","","","","","","",""
"","S2","","html-keyboard-response","333","356085","0.0-1.0-445.0","0","0","54299","","null","","","null","49","","NaN","","","","","","","","","","","","","",""
"","response","","html-keyboard-response","334","356360","0.0-1.0-446.0-0.0","0","0","54299","","273","","","68","49","","","2","49","training","adjacent","BA","2","1","R.jpg","P.jpg","0","0","1","",""
"","feedback","","html-keyboard-response","335","357363","0.0-1.0-447.0-0.0","0","0","54299","","null","","","null","49","","","","","","","","","","","","","","","",""
"","ITI","","html-keyboard-response","336","358365","0.0-1.0-450.0","0","0","54299","","null","","","null","49","","","","","","","","","","","","","","","NaN",""
"","S1","","html-keyboard-response","337","358618","0.0-1.0-452.0","0","0","54299","","null","","","null","50","","","","","","","","","","","","","","","",""
"","ISI","","html-keyboard-response","338","359621","0.0-1.0-453.0","0","0","54299","","null","","","null","50","NaN","","","","","","","","","","","","","","",""
"","S2","","html-keyboard-response","339","359875","0.0-1.0-454.0","0","0","54299","","null","","","null","50","","NaN","","","","","","","","","","","","","",""
"","response","","html-keyboard-response","340","360174","0.0-1.0-455.0-0.0","0","0","54299","","297","","","68","50","","","2","50","training","adjacent","DC","4","3","N.jpg","Q.jpg","0","0","1","",""
"","feedback","","html-keyboard-response","341","361177","0.0-1.0-456.0-0.0","0","0","54299","","null","","","null","50","","","","","","","","","","","","","","","",""
"","ITI","","html-keyboard-response","342","362181","0.0-1.0-459.0","0","0","54299","","null","","","null","50","","","","","","","","","","","","","","","NaN",""
"","S1","","html-keyboard-response","343","362434","0.0-1.0-461.0","0","0","54299","","null","","","null","51","","","","","","","","","","","","","","","",""
"","ISI","","html-keyboard-response","344","363437","0.0-1.0-462.0","0","0","54299","","null","","","null","51","NaN","","","","","","","","","","","","","","",""
"","S2","","html-keyboard-response","345","363691","0.0-1.0-463.0","0","0","54299","","null","","","null","51","","NaN","","","","","","","","","","","","","",""
"","response","","html-keyboard-response","346","363966","0.0-1.0-464.0-0.0","0","0","54299","","272","","","75","51","","","2","51","training","adjacent","ED","5","4","O.jpg","N.jpg","1","0","0","",""
"","feedback","","html-keyboard-response","347","364970","0.0-1.0-465.0-0.0","0","0","54299","","null","","","null","51","","","","","","","","","","","","","","","",""
"","time_out","","html-keyboard-response","348","366973","0.0-1.0-467.0-0.0","0","0","54299","","null","","","null","51","","","","","","","","","","","","","","","",""
"","ITI","","html-keyboard-response","349","367976","0.0-1.0-468.0","0","0","54299","","null","","","null","51","","","","","","","","","","","","","","","NaN",""
"","S1","","html-keyboard-response","350","368230","0.0-1.0-470.0","0","0","54299","","null","","","null","52","","","","","","","","","","","","","","","",""
"","ISI","","html-keyboard-response","351","369242","0.0-1.0-471.0","0","0","54299","","null","","","null","52","NaN","","","","","","","","","","","","","","",""
"","S2","","html-keyboard-response","352","369495","0.0-1.0-472.0","0","0","54299","","null","","","null","52","","NaN","","","","","","","","","","","","","",""
"","response","","html-keyboard-response","353","369643","0.0-1.0-473.0-0.0","0","0","54299","","145","","","75","52","","","2","52","training","adjacent","GF","7","6","M.jpg","L.jpg","1","0","0","",""
"","feedback","","html-keyboard-response","354","370646","0.0-1.0-474.0-0.0","0","0","54299","","null","","","null","52","","","","","","","","","","","","","","","",""
"","time_out","","html-keyboard-response","355","372649","0.0-1.0-476.0-0.0","0","0","54299","","null","","","null","52","","","","","","","","","","","","","","","",""
"","ITI","","html-keyboard-response","356","373652","0.0-1.0-477.0","0","0","54299","","null","","","null","52","","","","","","","","","","","","","","","NaN",""
"","S1","","html-keyboard-response","357","373905","0.0-1.0-479.0","0","0","54299","","null","","","null","53","","","","","","","","","","","","","","","",""
"","ISI","","html-keyboard-response","358","374908","0.0-1.0-480.0","0","0","54299","","null","","","null","53","NaN","","","","","","","","","","","","","","",""
"","S2","","html-keyboard-response","359","375161","0.0-1.0-481.0","0","0","54299","","null","","","null","53","","NaN","","","","","","","","","","","","","",""
"","response","","html-keyboard-response","360","375530","0.0-1.0-482.0-0.0","0","0","54299","","368","","","75","53","","","2","53","training","adjacent","EF","5","6","O.jpg","L.jpg","1","1","1","",""
"","feedback","","html-keyboard-response","361","376534","0.0-1.0-483.0-0.0","0","0","54299","","null","","","null","53","","","","","","","","","","","","","","","",""
"","ITI","","html-keyboard-response","362","377537","0.0-1.0-486.0","0","0","54299","","null","","","null","53","","","","","","","","","","","","","","","NaN",""
"","S1","","html-keyboard-response","363","377791","0.0-1.0-488.0","0","0","54299","","null","","","null","54","","","","","","","","","","","","","","","",""
"","ISI","","html-keyboard-response","364","378802","0.0-1.0-489.0","0","0","54299","","null","","","null","54","NaN","","","","","","","","","","","","","","",""
"","S2","","html-keyboard-response","365","379056","0.0-1.0-490.0","0","0","54299","","null","","","null","54","","NaN","","","","","","","","","","","","","",""
"","response","","html-keyboard-response","366","380627","0.0-1.0-491.0-0.0","0","0","54299","","1568","","","68","54","","","2","54","training","adjacent","FE","6","5","L.jpg","O.jpg","0","0","1","",""
"","feedback","","html-keyboard-response","367","381630","0.0-1.0-492.0-0.0","0","0","54299","","null","","","null","54","","","","","","","","","","","","","","","",""
"","ITI","","html-keyboard-response","368","382647","0.0-1.0-495.0","0","0","54299","","null","","","null","54","","","","","","","","","","","","","","","NaN",""
"","S1","","html-keyboard-response","369","382900","0.0-1.0-497.0","0","0","54299","","null","","","null","55","","","","","","","","","","","","","","","",""
"","ISI","","html-keyboard-response","370","383904","0.0-1.0-498.0","0","0","54299","","null","","","null","55","NaN","","","","","","","","","","","","","","",""
"","S2","","html-keyboard-response","371","384157","0.0-1.0-499.0","0","0","54299","","null","","","null","55","","NaN","","","","","","","","","","","","","",""
"","response","","html-keyboard-response","372","384435","0.0-1.0-500.0-0.0","0","0","54299","","275","","","68","55","","","2","55","training","adjacent","FG","6","7","L.jpg","M.jpg","0","1","0","",""
"","feedback","","html-keyboard-response","373","385438","0.0-1.0-501.0-0.0","0","0","54299","","null","","","null","55","","","","","","","","","","","","","","","",""
"","time_out","","html-keyboard-response","374","387441","0.0-1.0-503.0-0.0","0","0","54299","","null","","","null","55","","","","","","","","","","","","","","","",""
"","ITI","","html-keyboard-response","375","388444","0.0-1.0-504.0","0","0","54299","","null","","","null","55","","","","","","","","","","","","","","","NaN",""
"","S1","","html-keyboard-response","376","388697","0.0-1.0-506.0","0","0","54299","","null","","","null","56","","","","","","","","","","","","","","","",""
"","ISI","","html-keyboard-response","377","389700","0.0-1.0-507.0","0","0","54299","","null","","","null","56","NaN","","","","","","","","","","","","","","",""
"","S2","","html-keyboard-response","378","389953","0.0-1.0-508.0","0","0","54299","","null","","","null","56","","NaN","","","","","","","","","","","","","",""
"","response","","html-keyboard-response","379","390672","0.0-1.0-509.0-0.0","0","0","54299","","716","","","75","56","","","2","56","training","adjacent","AB","1","2","P.jpg","R.jpg","1","1","1","",""
"","feedback","","html-keyboard-response","380","391675","0.0-1.0-510.0-0.0","0","0","54299","","null","","","null","56","","","","","","","","","","","","","","","",""
"","ITI","","html-keyboard-response","381","392678","0.0-1.0-513.0","0","0","54299","","null","","","null","56","","","","","","","","","","","","","","","NaN",""
"","S1","","html-keyboard-response","382","392931","0.0-1.0-515.0","0","0","54299","","null","","","null","57","","","","","","","","","","","","","","","",""
"","ISI","","html-keyboard-response","383","393934","0.0-1.0-516.0","0","0","54299","","null","","","null","57","NaN","","","","","","","","","","","","","","",""
"","S2","","html-keyboard-response","384","394187","0.0-1.0-517.0","0","0","54299","","null","","","null","57","","NaN","","","","","","","","","","","","","",""
"","response","","html-keyboard-response","385","394612","0.0-1.0-518.0-0.0","0","0","54299","","422","","","68","57","","","2","57","training","adjacent","GF","7","6","M.jpg","L.jpg","0","0","1","",""
"","feedback","","html-keyboard-response","386","395615","0.0-1.0-519.0-0.0","0","0","54299","","null","","","null","57","","","","","","","","","","","","","","","",""
"","ITI","","html-keyboard-response","387","396618","0.0-1.0-522.0","0","0","54299","","null","","","null","57","","","","","","","","","","","","","","","NaN",""
"","S1","","html-keyboard-response","388","396871","0.0-1.0-524.0","0","0","54299","","null","","","null","58","","","","","","","","","","","","","","","",""
"","ISI","","html-keyboard-response","389","397874","0.0-1.0-525.0","0","0","54299","","null","","","null","58","NaN","","","","","","","","","","","","","","",""
"","S2","","html-keyboard-response","390","398128","0.0-1.0-526.0","0","0","54299","","null","","","null","58","","NaN","","","","","","","","","","","","","",""
"","response","","html-keyboard-response","391","398569","0.0-1.0-527.0-0.0","0","0","54299","","439","","","75","58","","","2","58","training","adjacent","ED","5","4","O.jpg","N.jpg","1","0","0","",""
"","feedback","","html-keyboard-response","392","399573","0.0-1.0-528.0-0.0","0","0","54299","","null","","","null","58","","","","","","","","","","","","","","","",""
"","time_out","","html-keyboard-response","393","401577","0.0-1.0-530.0-0.0","0","0","54299","","null","","","null","58","","","","","","","","","","","","","","","",""
"","ITI","","html-keyboard-response","394","402580","0.0-1.0-531.0","0","0","54299","","null","","","null","58","","","","","","","","","","","","","","","NaN",""
"","S1","","html-keyboard-response","395","402833","0.0-1.0-533.0","0","0","54299","","null","","","null","59","","","","","","","","","","","","","","","",""
"","ISI","","html-keyboard-response","396","403835","0.0-1.0-534.0","0","0","54299","","null","","","null","59","NaN","","","","","","","","","","","","","","",""
"","S2","","html-keyboard-response","397","404065","0.0-1.0-535.0","0","0","54299","","227","","","75","59","","k","2","59","training","adjacent","ED","5","4","O.jpg","N.jpg","1","0","0","",""
"","feedback","","html-keyboard-response","398","405068","0.0-1.0-537.0-0.0","0","0","54299","","null","","","null","59","","","","","","","","","","","","","","","",""
"","time_out","","html-keyboard-response","399","407071","0.0-1.0-539.0-0.0","0","0","54299","","null","","","null","59","","","","","","","","","","","","","","","",""
"","ITI","","html-keyboard-response","400","408074","0.0-1.0-540.0","0","0","54299","","null","","","null","59","","","","","","","","","","","","","","","NaN",""
"","S1","","html-keyboard-response","401","408327","0.0-1.0-542.0","0","0","54299","","null","","","null","60","","","","","","","","","","","","","","","",""
"","ISI","","html-keyboard-response","402","409330","0.0-1.0-543.0","0","0","54299","","null","","","null","60","NaN","","","","","","","","","","","","","","",""
"","S2","","html-keyboard-response","403","409583","0.0-1.0-544.0","0","0","54299","","null","","","null","60","","NaN","","","","","","","","","","","","","",""
"","response","","html-keyboard-response","404","409819","0.0-1.0-545.0-0.0","0","0","54299","","232","","","68","60","","","2","60","training","adjacent","ED","5","4","O.jpg","N.jpg","0","0","1","",""
"","feedback","","html-keyboard-response","405","410823","0.0-1.0-546.0-0.0","0","0","54299","","null","","","null","60","","","","","","","","","","","","","","","",""
"","ITI","","html-keyboard-response","406","411825","0.0-1.0-549.0","0","0","54299","","null","","","null","60","","","","","","","","","","","","","","","NaN",""
"","S1","","html-keyboard-response","407","412079","0.0-1.0-551.0","0","0","54299","","null","","","null","61","","","","","","","","","","","","","","","",""
"","ISI","","html-keyboard-response","408","413081","0.0-1.0-552.0","0","0","54299","","null","","","null","61","NaN","","","","","","","","","","","","","","",""
"","S2","","html-keyboard-response","409","413335","0.0-1.0-553.0","0","0","54299","","null","","","null","61","","NaN","","","","","","","","","","","","","",""
"","response","","html-keyboard-response","410","414870","0.0-1.0-554.0-0.0","0","0","54299","","1534","","","75","61","","","2","61","training","adjacent","AB","1","2","P.jpg","R.jpg","1","1","1","",""
"","feedback","","html-keyboard-response","411","415873","0.0-1.0-555.0-0.0","0","0","54299","","null","","","null","61","","","","","","","","","","","","","","","",""
"","ITI","","html-keyboard-response","412","416877","0.0-1.0-558.0","0","0","54299","","null","","","null","61","","","","","","","","","","","","","","","NaN",""
"","S1","","html-keyboard-response","413","417131","0.0-1.0-560.0","0","0","54299","","null","","","null","62","","","","","","","","","","","","","","","",""
"","ISI","","html-keyboard-response","414","418134","0.0-1.0-561.0","0","0","54299","","null","","","null","62","NaN","","","","","","","","","","","","","","",""
"","S2","","html-keyboard-response","415","418387","0.0-1.0-562.0","0","0","54299","","null","","","null","62","","NaN","","","","","","","","","","","","","",""
"","response","","html-keyboard-response","416","420140","0.0-1.0-563.0-0.0","0","0","54299","","null","","","null","62","","","2","62","training","adjacent","BA","2","1","R.jpg","P.jpg","NaN","0","0","",""
"","too_slow_prompt","","html-keyboard-response","417","421143","0.0-1.0-565.0-0.0","1","0","54299","","null","","","null","","","","","","","","","","","","","","","","",""
"","time_out","","html-keyboard-response","418","423146","0.0-1.0-566.0-0.0","0","0","54299","","null","","","null","62","","","","","","","","","","","","","","","",""
"","ITI","","html-keyboard-response","419","424149","0.0-1.0-567.0","0","0","54299","","null","","","null","62","","","","","","","","","","","","","","","NaN",""
"","S1","","html-keyboard-response","420","424402","0.0-1.0-569.0","0","0","54299","","null","","","null","63","","","","","","","","","","","","","","","",""
"","ISI","","html-keyboard-response","421","425406","0.0-1.0-570.0","0","0","54299","","null","","","null","63","NaN","","","","","","","","","","","","","","",""
"","S2","","html-keyboard-response","422","425659","0.0-1.0-571.0","0","0","54299","","null","","","null","63","","NaN","","","","","","","","","","","","","",""
"","response","","html-keyboard-response","423","425937","0.0-1.0-572.0-0.0","0","0","54299","","276","","","68","63","","","2","63","training","adjacent","FG","6","7","L.jpg","M.jpg","0","1","0","",""
"","feedback","","html-keyboard-response","424","426941","0.0-1.0-573.0-0.0","0","0","54299","","null","","","null","63","","","","","","","","","","","","","","","",""
"","time_out","","html-keyboard-response","425","428944","0.0-1.0-575.0-0.0","0","0","54299","","null","","","null","63","","","","","","","","","","","","","","","",""
"","ITI","","html-keyboard-response","426","429946","0.0-1.0-576.0","0","0","54299","","null","","","null","63","","","","","","","","","","","","","","","NaN",""
"","S1","","html-keyboard-response","427","430203","0.0-1.0-578.0","0","0","54299","","null","","","null","64","","","","","","","","","","","","","","","",""
"","ISI","","html-keyboard-response","428","431210","0.0-1.0-579.0","0","0","54299","","null","","","null","64","NaN","","","","","","","","","","","","","","",""
"","S2","","html-keyboard-response","429","431463","0.0-1.0-580.0","0","0","54299","","null","","","null","64","","NaN","","","","","","","","","","","","","",""
"","response","","html-keyboard-response","430","431479","0.0-1.0-581.0-0.0","0","0","54299","","14","","","75","64","","","2","64","training","adjacent","DC","4","3","N.jpg","Q.jpg","1","0","0","",""
"","feedback","","html-keyboard-response","431","432482","0.0-1.0-582.0-0.0","0","0","54299","","null","","","null","64","","","","","","","","","","","","","","","",""
"","time_out","","html-keyboard-response","432","434495","0.0-1.0-584.0-0.0","0","0","54299","","null","","","null","64","","","","","","","","","","","","","","","",""
"","ITI","","html-keyboard-response","433","435498","0.0-1.0-585.0","0","0","54299","","null","","","null","64","","","","","","","","","","","","","","","NaN",""
"","S1","","html-keyboard-response","434","435752","0.0-1.0-587.0","0","0","54299","","null","","","null","65","","","","","","","","","","","","","","","",""
"","ISI","","html-keyboard-response","435","436755","0.0-1.0-588.0","0","0","54299","","null","","","null","65","NaN","","","","","","","","","","","","","","",""
"","S2","","html-keyboard-response","436","437007","0.0-1.0-589.0","0","0","54299","","249","","","75","65","","k","2","65","training","adjacent","CB","3","2","Q.jpg","R.jpg","1","0","0","",""
"","feedback","","html-keyboard-response","437","438010","0.0-1.0-591.0-0.0","0","0","54299","","null","","","null","65","","","","","","","","","","","","","","","",""
"","time_out","","html-keyboard-response","438","440014","0.0-1.0-593.0-0.0","0","0","54299","","null","","","null","65","","","","","","","","","","","","","","","",""
"","ITI","","html-keyboard-response","439","441017","0.0-1.0-594.0","0","0","54299","","null","","","null","65","","","","","","","","","","","","","","","NaN",""
"","S1","","html-keyboard-response","440","441271","0.0-1.0-596.0","0","0","54299","","null","","","null","66","","","","","","","","","","","","","","","",""
"","ISI","","html-keyboard-response","441","442274","0.0-1.0-597.0","0","0","54299","","null","","","null","66","NaN","","","","","","","","","","","","","","",""
"","S2","","html-keyboard-response","442","442527","0.0-1.0-598.0","0","0","54299","","null","","","null","66","","NaN","","","","","","","","","","","","","",""
"","response","","html-keyboard-response","443","442622","0.0-1.0-599.0-0.0","0","0","54299","","93","","","68","66","","","2","66","training","adjacent","FE","6","5","L.jpg","O.jpg","0","0","1","",""
"","feedback","","html-keyboard-response","444","443627","0.0-1.0-600.0-0.0","0","0","54299","","null","","","null","66","","","","","","","","","","","","","","","",""
"","ITI","","html-keyboard-response","445","444631","0.0-1.0-603.0","0","0","54299","","null","","","null","66","","","","","","","","","","","","","","","NaN",""
"","S1","","html-keyboard-response","446","444885","0.0-1.0-605.0","0","0","54299","","null","","","null","67","","","","","","","","","","","","","","","",""
"","ISI","","html-keyboard-response","447","445887","0.0-1.0-606.0","0","0","54299","","null","","","null","67","NaN","","","","","","","","","","","","","","",""
"","S2","","html-keyboard-response","448","446093","0.0-1.0-607.0","0","0","54299","","203","","","68","67","","d","2","67","training","adjacent","GF","7","6","M.jpg","L.jpg","0","0","1","",""
"","feedback","","html-keyboard-response","449","447096","0.0-1.0-609.0-0.0","0","0","54299","","null","","","null","67","","","","","","","","","","","","","","","",""
"","ITI","","html-keyboard-response","450","448100","0.0-1.0-612.0","0","0","54299","","null","","","null","67","","","","","","","","","","","","","","","NaN",""
"","S1","","html-keyboard-response","451","448353","0.0-1.0-614.0","0","0","54299","","null","","","null","68","","","","","","","","","","","","","","","",""
"","ISI","","html-keyboard-response","452","449356","0.0-1.0-615.0","0","0","54299","","null","","","null","68","NaN","","","","","","","","","","","","","","",""
"","S2","","html-keyboard-response","453","449612","0.0-1.0-616.0","0","0","54299","","253","","","75","68","","k","2","68","training","adjacent","DE","4","5","N.jpg","O.jpg","1","1","1","",""
"","feedback","","html-keyboard-response","454","450616","0.0-1.0-618.0-0.0","0","0","54299","","null","","","null","68","","","","","","","","","","","","","","","",""
"","ITI","","html-keyboard-response","455","451618","0.0-1.0-621.0","0","0","54299","","null","","","null","68","","","","","","","","","","","","","","","NaN",""
"","S1","","html-keyboard-response","456","451871","0.0-1.0-623.0","0","0","54299","","null","","","null","69","","","","","","","","","","","","","","","",""
"","ISI","","html-keyboard-response","457","452874","0.0-1.0-624.0","0","0","54299","","null","","","null","69","NaN","","","","","","","","","","","","","","",""
"","S2","","html-keyboard-response","458","453127","0.0-1.0-625.0","0","0","54299","","null","","","null","69","","NaN","","","","","","","","","","","","","",""
"","response","","html-keyboard-response","459","453155","0.0-1.0-626.0-0.0","0","0","54299","","25","","","68","69","","","2","69","training","adjacent","CD","3","4","Q.jpg","N.jpg","0","1","0","",""
"","feedback","","html-keyboard-response","460","454158","0.0-1.0-627.0-0.0","0","0","54299","","null","","","null","69","","","","","","","","","","","","","","","",""
"","time_out","","html-keyboard-response","461","456161","0.0-1.0-629.0-0.0","0","0","54299","","null","","","null","69","","","","","","","","","","","","","","","",""
"","ITI","","html-keyboard-response","462","457164","0.0-1.0-630.0","0","0","54299","","null","","","null","69","","","","","","","","","","","","","","","NaN",""
"","S1","","html-keyboard-response","463","457417","0.0-1.0-632.0","0","0","54299","","null","","","null","70","","","","","","","","","","","","","","","",""
"","ISI","","html-keyboard-response","464","458432","0.0-1.0-633.0","0","0","54299","","null","","","null","70","NaN","","","","","","","","","","","","","","",""
"","S2","","html-keyboard-response","465","458686","0.0-1.0-634.0","0","0","54299","","null","","","null","70","","NaN","","","","","","","","","","","","","",""
"","response","","html-keyboard-response","466","458890","0.0-1.0-635.0-0.0","0","0","54299","","202","","","68","70","","","2","70","training","adjacent","CB","3","2","Q.jpg","R.jpg","0","0","1","",""
"","feedback","","html-keyboard-response","467","459894","0.0-1.0-636.0-0.0","0","0","54299","","null","","","null","70","","","","","","","","","","","","","","","",""
"","ITI","","html-keyboard-response","468","460897","0.0-1.0-639.0","0","0","54299","","null","","","null","70","","","","","","","","","","","","","","","NaN",""
"","S1","","html-keyboard-response","469","461150","0.0-1.0-641.0","0","0","54299","","null","","","null","71","","","","","","","","","","","","","","","",""
"","ISI","","html-keyboard-response","470","462153","0.0-1.0-642.0","0","0","54299","","null","","","null","71","NaN","","","","","","","","","","","","","","",""
"","S2","","html-keyboard-response","471","462405","0.0-1.0-643.0","0","0","54299","","null","","","null","71","","NaN","","","","","","","","","","","","","",""
"","response","","html-keyboard-response","472","462813","0.0-1.0-644.0-0.0","0","0","54299","","405","","","75","71","","","2","71","training","adjacent","BA","2","1","R.jpg","P.jpg","1","0","0","",""
"","feedback","","html-keyboard-response","473","463816","0.0-1.0-645.0-0.0","0","0","54299","","null","","","null","71","","","","","","","","","","","","","","","",""
"","time_out","","html-keyboard-response","474","465820","0.0-1.0-647.0-0.0","0","0","54299","","null","","","null","71","","","","","","","","","","","","","","","",""
"","ITI","","html-keyboard-response","475","466823","0.0-1.0-648.0","0","0","54299","","null","","","null","71","","","","","","","","","","","","","","","NaN",""
"","S1","","html-keyboard-response","476","467076","0.0-1.0-650.0","0","0","54299","","null","","","null","72","","","","","","","","","","","","","","","",""
"","ISI","","html-keyboard-response","477","468078","0.0-1.0-651.0","0","0","54299","","null","","","null","72","NaN","","","","","","","","","","","","","","",""
"","S2","","html-keyboard-response","478","468332","0.0-1.0-652.0","0","0","54299","","null","","","null","72","","NaN","","","","","","","","","","","","","",""
"","response","","html-keyboard-response","479","468577","0.0-1.0-653.0-0.0","0","0","54299","","244","","","68","72","","","2","72","training","adjacent","BC","2","3","R.jpg","Q.jpg","0","1","0","",""
"","feedback","","html-keyboard-response","480","469582","0.0-1.0-654.0-0.0","0","0","54299","","null","","","null","72","","","","","","","","","","","","","","","",""
"","time_out","","html-keyboard-response","481","471585","0.0-1.0-656.0-0.0","0","0","54299","","null","","","null","72","","","","","","","","","","","","","","","",""
"","ITI","","html-keyboard-response","482","472588","0.0-1.0-657.0","0","0","54299","","null","","","null","72","","","","","","","","","","","","","","","NaN",""
"","S1","","html-keyboard-response","483","472842","0.0-1.0-659.0","0","0","54299","","null","","","null","73","","","","","","","","","","","","","","","",""
"","ISI","","html-keyboard-response","484","473844","0.0-1.0-660.0","0","0","54299","","null","","","null","73","NaN","","","","","","","","","","","","","","",""
"","S2","","html-keyboard-response","485","474097","0.0-1.0-661.0","0","0","54299","","null","","","null","73","","NaN","","","","","","","","","","","","","",""
"","response","","html-keyboard-response","486","474131","0.0-1.0-662.0-0.0","0","0","54299","","31","","","75","73","","","2","73","training","adjacent","BC","2","3","R.jpg","Q.jpg","1","1","1","",""
"","feedback","","html-keyboard-response","487","475134","0.0-1.0-663.0-0.0","0","0","54299","","null","","","null","73","","","","","","","","","","","","","","","",""
"","ITI","","html-keyboard-response","488","476137","0.0-1.0-666.0","0","0","54299","","null","","","null","73","","","","","","","","","","","","","","","NaN",""
"","S1","","html-keyboard-response","489","476390","0.0-1.0-668.0","0","0","54299","","null","","","null","74","","","","","","","","","","","","","","","",""
"","ISI","","html-keyboard-response","490","477393","0.0-1.0-669.0","0","0","54299","","null","","","null","74","NaN","","","","","","","","","","","","","","",""
"","S2","","html-keyboard-response","491","477647","0.0-1.0-670.0","0","0","54299","","null","","","null","74","","NaN","","","","","","","","","","","","","",""
"","response","","html-keyboard-response","492","477651","0.0-1.0-671.0-0.0","0","0","54299","","2","","","75","74","","","2","74","training","adjacent","DE","4","5","N.jpg","O.jpg","1","1","1","",""
"","feedback","","html-keyboard-response","493","478654","0.0-1.0-672.0-0.0","0","0","54299","","null","","","null","74","","","","","","","","","","","","","","","",""
"","ITI","","html-keyboard-response","494","479658","0.0-1.0-675.0","0","0","54299","","null","","","null","74","","","","","","","","","","","","","","","NaN",""
"","S1","","html-keyboard-response","495","479911","0.0-1.0-677.0","0","0","54299","","null","","","null","75","","","","","","","","","","","","","","","",""
"","ISI","","html-keyboard-response","496","480914","0.0-1.0-678.0","0","0","54299","","null","","","null","75","NaN","","","","","","","","","","","","","","",""
"","S2","","html-keyboard-response","497","481168","0.0-1.0-679.0","0","0","54299","","null","","","null","75","","NaN","","","","","","","","","","","","","",""
"","response","","html-keyboard-response","498","481432","0.0-1.0-680.0-0.0","0","0","54299","","261","","","68","75","","","2","75","training","adjacent","CB","3","2","Q.jpg","R.jpg","0","0","1","",""
"","feedback","","html-keyboard-response","499","482435","0.0-1.0-681.0-0.0","0","0","54299","","null","","","null","75","","","","","","","","","","","","","","","",""
"","ITI","","html-keyboard-response","500","483438","0.0-1.0-684.0","0","0","54299","","null","","","null","75","","","","","","","","","","","","","","","NaN",""
"","S1","","html-keyboard-response","501","483691","0.0-1.0-686.0","0","0","54299","","null","","","null","76","","","","","","","","","","","","","","","",""
"","ISI","","html-keyboard-response","502","484694","0.0-1.0-687.0","0","0","54299","","null","","","null","76","NaN","","","","","","","","","","","","","","",""
"","S2","","html-keyboard-response","503","484948","0.0-1.0-688.0","0","0","54299","","null","","","null","76","","NaN","","","","","","","","","","","","","",""
"","response","","html-keyboard-response","504","485447","0.0-1.0-689.0-0.0","0","0","54299","","498","","","75","76","","","2","76","training","adjacent","BC","2","3","R.jpg","Q.jpg","1","1","1","",""
"","feedback","","html-keyboard-response","505","486451","0.0-1.0-690.0-0.0","0","0","54299","","null","","","null","76","","","","","","","","","","","","","","","",""
"","ITI","","html-keyboard-response","506","487464","0.0-1.0-693.0","0","0","54299","","null","","","null","76","","","","","","","","","","","","","","","NaN",""
"","S1","","html-keyboard-response","507","487717","0.0-1.0-695.0","0","0","54299","","null","","","null","77","","","","","","","","","","","","","","","",""
"","ISI","","html-keyboard-response","508","488720","0.0-1.0-696.0","0","0","54299","","null","","","null","77","NaN","","","","","","","","","","","","","","",""
"","S2","","html-keyboard-response","509","488973","0.0-1.0-697.0","0","0","54299","","null","","","null","77","","NaN","","","","","","","","","","","","","",""
"","response","","html-keyboard-response","510","489221","0.0-1.0-698.0-0.0","0","0","54299","","246","","","68","77","","","2","77","training","adjacent","FG","6","7","L.jpg","M.jpg","0","1","0","",""
"","feedback","","html-keyboard-response","511","490226","0.0-1.0-699.0-0.0","0","0","54299","","null","","","null","77","","","","","","","","","","","","","","","",""
"","time_out","","html-keyboard-response","512","492243","0.0-1.0-701.0-0.0","0","0","54299","","null","","","null","77","","","","","","","","","","","","","","","",""
"","ITI","","html-keyboard-response","513","493246","0.0-1.0-702.0","0","0","54299","","null","","","null","77","","","","","","","","","","","","","","","NaN",""
"","S1","","html-keyboard-response","514","493512","0.0-1.0-704.0","0","0","54299","","null","","","null","78","","","","","","","","","","","","","","","",""
"","ISI","","html-keyboard-response","515","494515","0.0-1.0-705.0","0","0","54299","","null","","","null","78","NaN","","","","","","","","","","","","","","",""
"","S2","","html-keyboard-response","516","494765","0.0-1.0-706.0","0","0","54299","","249","","","68","78","","d","2","78","training","adjacent","EF","5","6","O.jpg","L.jpg","0","1","0","",""
"","feedback","","html-keyboard-response","517","495770","0.0-1.0-708.0-0.0","0","0","54299","","null","","","null","78","","","","","","","","","","","","","","","",""
"","time_out","","html-keyboard-response","518","497774","0.0-1.0-710.0-0.0","0","0","54299","","null","","","null","78","","","","","","","","","","","","","","","",""
"","ITI","","html-keyboard-response","519","498778","0.0-1.0-711.0","0","0","54299","","null","","","null","78","","","","","","","","","","","","","","","NaN",""
"","S1","","html-keyboard-response","520","499032","0.0-1.0-713.0","0","0","54299","","null","","","null","79","","","","","","","","","","","","","","","",""
"","ISI","","html-keyboard-response","521","500034","0.0-1.0-714.0","0","0","54299","","null","","","null","79","NaN","","","","","","","","","","","","","","",""
"","S2","","html-keyboard-response","522","500287","0.0-1.0-715.0","0","0","54299","","null","","","null","79","","NaN","","","","","","","","","","","","","",""
"","response","","html-keyboard-response","523","500370","0.0-1.0-716.0-0.0","0","0","54299","","81","","","75","79","","","2","79","training","adjacent","EF","5","6","O.jpg","L.jpg","1","1","1","",""
"","feedback","","html-keyboard-response","524","501375","0.0-1.0-717.0-0.0","0","0","54299","","null","","","null","79","","","","","","","","","","","","","","","",""
"","ITI","","html-keyboard-response","525","502378","0.0-1.0-720.0","0","0","54299","","null","","","null","79","","","","","","","","","","","","","","","NaN",""
"","S1","","html-keyboard-response","526","502632","0.0-1.0-722.0","0","0","54299","","null","","","null","80","","","","","","","","","","","","","","","",""
"","ISI","","html-keyboard-response","527","503635","0.0-1.0-723.0","0","0","54299","","null","","","null","80","NaN","","","","","","","","","","","","","","",""
"","S2","","html-keyboard-response","528","503888","0.0-1.0-724.0","0","0","54299","","null","","","null","80","","NaN","","","","","","","","","","","","","",""
"","response","","html-keyboard-response","529","503979","0.0-1.0-725.0-0.0","0","0","54299","","88","","","75","80","","","2","80","training","adjacent","CB","3","2","Q.jpg","R.jpg","1","0","0","",""
"","feedback","","html-keyboard-response","530","504990","0.0-1.0-726.0-0.0","0","0","54299","","null","","","null","80","","","","","","","","","","","","","","","",""
"","time_out","","html-keyboard-response","531","506994","0.0-1.0-728.0-0.0","0","0","54299","","null","","","null","80","","","","","","","","","","","","","","","",""
"","ITI","","html-keyboard-response","532","507996","0.0-1.0-729.0","0","0","54299","","null","","","null","80","","","","","","","","","","","","","","","NaN",""
"","S1","","html-keyboard-response","533","508262","0.0-1.0-731.0","0","0","54299","","null","","","null","81","","","","","","","","","","","","","","","",""
"","ISI","","html-keyboard-response","534","509265","0.0-1.0-732.0","0","0","54299","","null","","","null","81","NaN","","","","","","","","","","","","","","",""
"","S2","","html-keyboard-response","535","509519","0.0-1.0-733.0","0","0","54299","","null","","","null","81","","NaN","","","","","","","","","","","","","",""
"","response","","html-keyboard-response","536","509579","0.0-1.0-734.0-0.0","0","0","54299","","58","","","68","81","","","2","81","training","adjacent","GF","7","6","M.jpg","L.jpg","0","0","1","",""
"","feedback","","html-keyboard-response","537","510582","0.0-1.0-735.0-0.0","0","0","54299","","null","","","null","81","","","","","","","","","","","","","","","",""
"","ITI","","html-keyboard-response","538","511585","0.0-1.0-738.0","0","0","54299","","null","","","null","81","","","","","","","","","","","","","","","NaN",""
"","S1","","html-keyboard-response","539","511839","0.0-1.0-740.0","0","0","54299","","null","","","null","82","","","","","","","","","","","","","","","",""
"","ISI","","html-keyboard-response","540","512842","0.0-1.0-741.0","0","0","54299","","null","","","null","82","NaN","","","","","","","","","","","","","","",""
"","S2","","html-keyboard-response","541","513096","0.0-1.0-742.0","0","0","54299","","null","","","null","82","","NaN","","","","","","","","","","","","","",""
"","response","","html-keyboard-response","542","513105","0.0-1.0-743.0-0.0","0","0","54299","","6","","","75","82","","","2","82","training","adjacent","EF","5","6","O.jpg","L.jpg","1","1","1","",""
"","feedback","","html-keyboard-response","543","514110","0.0-1.0-744.0-0.0","0","0","54299","","null","","","null","82","","","","","","","","","","","","","","","",""
"","ITI","","html-keyboard-response","544","515114","0.0-1.0-747.0","0","0","54299","","null","","","null","82","","","","","","","","","","","","","","","NaN",""
"","S1","","html-keyboard-response","545","515367","0.0-1.0-749.0","0","0","54299","","null","","","null","83","","","","","","","","","","","","","","","",""
"","ISI","","html-keyboard-response","546","516370","0.0-1.0-750.0","0","0","54299","","null","","","null","83","NaN","","","","","","","","","","","","","","",""
"","S2","","html-keyboard-response","547","516572","0.0-1.0-751.0","0","0","54299","","200","","","75","83","","k","2","83","training","adjacent","CD","3","4","Q.jpg","N.jpg","1","1","1","",""
"","feedback","","html-keyboard-response","548","517575","0.0-1.0-753.0-0.0","0","0","54299","","null","","","null","83","","","","","","","","","","","","","","","",""
"","ITI","","html-keyboard-response","549","518578","0.0-1.0-756.0","0","0","54299","","null","","","null","83","","","","","","","","","","","","","","","NaN",""
"","S1","","html-keyboard-response","550","518831","0.0-1.0-758.0","0","0","54299","","null","","","null","84","","","","","","","","","","","","","","","",""
"","ISI","","html-keyboard-response","551","519835","0.0-1.0-759.0","0","0","54299","","null","","","null","84","NaN","","","","","","","","","","","","","","",""
"","S2","","html-keyboard-response","552","520068","0.0-1.0-760.0","0","0","54299","","230","","","75","84","","k","2","84","training","adjacent","BA","2","1","R.jpg","P.jpg","1","0","0","",""
"","feedback","","html-keyboard-response","553","521071","0.0-1.0-762.0-0.0","0","0","54299","","null","","","null","84","","","","","","","","","","","","","","","",""
"","time_out","","html-keyboard-response","554","523075","0.0-1.0-764.0-0.0","0","0","54299","","null","","","null","84","","","","","","","","","","","","","","","",""
"","ITI","","html-keyboard-response","555","524077","0.0-1.0-765.0","0","0","54299","","null","","","null","84","","","","","","","","","","","","","","","NaN",""
"","S1","","html-keyboard-response","556","524330","0.0-1.0-767.0","0","0","54299","","null","","","null","85","","","","","","","","","","","","","","","",""
"","ISI","","html-keyboard-response","557","525333","0.0-1.0-768.0","0","0","54299","","null","","","null","85","NaN","","","","","","","","","","","","","","",""
"","S2","","html-keyboard-response","558","525586","0.0-1.0-769.0","0","0","54299","","null","","","null","85","","NaN","","","","","","","","","","","","","",""
"","response","","html-keyboard-response","559","525597","0.0-1.0-770.0-0.0","0","0","54299","","8","","","68","85","","","2","85","training","adjacent","DE","4","5","N.jpg","O.jpg","0","1","0","",""
"","feedback","","html-keyboard-response","560","526601","0.0-1.0-771.0-0.0","0","0","54299","","null","","","null","85","","","","","","","","","","","","","","","",""
"","time_out","","html-keyboard-response","561","528605","0.0-1.0-773.0-0.0","0","0","54299","","null","","","null","85","","","","","","","","","","","","","","","",""
"","ITI","","html-keyboard-response","562","529608","0.0-1.0-774.0","0","0","54299","","null","","","null","85","","","","","","","","","","","","","","","NaN",""
"","S1","","html-keyboard-response","563","529862","0.0-1.0-776.0","0","0","54299","","null","","","null","86","","","","","","","","","","","","","","","",""
"","ISI","","html-keyboard-response","564","530866","0.0-1.0-777.0","0","0","54299","","null","","","null","86","NaN","","","","","","","","","","","","","","",""
"","S2","","html-keyboard-response","565","531120","0.0-1.0-778.0","0","0","54299","","null","","","null","86","","NaN","","","","","","","","","","","","","",""
"","response","","html-keyboard-response","566","531129","0.0-1.0-779.0-0.0","0","0","54299","","6","","","68","86","","","2","86","training","adjacent","AB","1","2","P.jpg","R.jpg","0","1","0","",""
"","feedback","","html-keyboard-response","567","532133","0.0-1.0-780.0-0.0","0","0","54299","","null","","","null","86","","","","","","","","","","","","","","","",""
"","time_out","","html-keyboard-response","568","534136","0.0-1.0-782.0-0.0","0","0","54299","","null","","","null","86","","","","","","","","","","","","","","","",""
"","ITI","","html-keyboard-response","569","535140","0.0-1.0-783.0","0","0","54299","","null","","","null","86","","","","","","","","","","","","","","","NaN",""
"","S1","","html-keyboard-response","570","535393","0.0-1.0-785.0","0","0","54299","","null","","","null","87","","","","","","","","","","","","","","","",""
"","ISI","","html-keyboard-response","571","536396","0.0-1.0-786.0","0","0","54299","","null","","","null","87","NaN","","","","","","","","","","","","","","",""
"","S2","","html-keyboard-response","572","536650","0.0-1.0-787.0","0","0","54299","","null","","","null","87","","NaN","","","","","","","","","","","","","",""
"","response","","html-keyboard-response","573","536950","0.0-1.0-788.0-0.0","0","0","54299","","297","","","75","87","","","2","87","training","adjacent","FG","6","7","L.jpg","M.jpg","1","1","1","",""
"","feedback","","html-keyboard-response","574","537955","0.0-1.0-789.0-0.0","0","0","54299","","null","","","null","87","","","","","","","","","","","","","","","",""
"","ITI","","html-keyboard-response","575","538958","0.0-1.0-792.0","0","0","54299","","null","","","null","87","","","","","","","","","","","","","","","NaN",""
"","S1","","html-keyboard-response","576","539212","0.0-1.0-794.0","0","0","54299","","null","","","null","88","","","","","","","","","","","","","","","",""
"","ISI","","html-keyboard-response","577","540214","0.0-1.0-795.0","0","0","54299","","null","","","null","88","NaN","","","","","","","","","","","","","","",""
