"success","ttype","start_time","trial_type","trial_index","time_elapsed","internal_node_id","warning","missed_checkup","PID","view_history","rt","responses","repeat_instructions","key_press","index","keypress_isi","keypress_S2","block","trial_num","phase","group_type","pair_type","S1_stim","S2_stim","S1_img","S2_img","S1_chosen","S1_higher","accuracy","keypress_iti","total_bonus_tally"
"true","full_screen","d04062023hr1839","fullscreen","0","19680","0.0-0.0","0","0","77322","","","","","","","","","","","","","","","","","","","","","",""
"","instructions","","instructions","1","91306","0.0-1.0-0.0-0.0","0","0","77322","[{""page_index"":0,""viewing_time"":5165},{""page_index"":1,""viewing_time"":35256},{""page_index"":2,""viewing_time"":27359},{""page_index"":3,""viewing_time"":3843}]","71623","","","","","","","","","","","","","","","","","","","",""
"","comprehension_check","","survey-multi-choice","2","110987","0.0-1.0-0.0-1.0","0","0","77322","","19676","{""Q0"":""True"",""Q1"":""D"",""Q2"":""Once the second image appears and while the screen 'MAKE A CHOICE' is shown"",""Q3"":""Green mark"",""Q4"":""either D or K""}","0","","","","","","","","","","","","","","","","","",""
"","start_exp","","html-keyboard-response","3","113246","0.0-1.0-1.0","0","0","77322","","2257","","","32","","","","","","","","","","","","","","","","",""
"","S1","","html-keyboard-response","4","113399","0.0-1.0-2.0","0","0","77322","","null","","","null","0","","","","","","","","","","","","","","","",""
"","ISI","","html-keyboard-response","5","115402","0.0-1.0-3.0","0","0","77322","","null","","","null","0","NaN","","","","","","","","","","","","","","",""
"","S2","","html-keyboard-response","6","115556","0.0-1.0-4.0","0","0","77322","","null","","","null","0","","NaN","","","","","","","","","","","","","",""
"","response","","html-keyboard-response","7","117257","0.0-1.0-5.0-0.0","0","0","77322","","1698","","","68","0","","","1","0","training","adjacent","GF","7","6","N.jpg","P.jpg","1","0","0","",""
"","feedback","","html-keyboard-response","8","118261","0.0-1.0-6.0-0.0","0","0","77322","","null","","","null","0","","","","","","","","","","","","","","","",""
"","time_out","","html-keyboard-response","9","120265","0.0-1.0-8.0-0.0","0","0","77322","","null","","","null","0","","","","","","","","","","","","","","","",""
"","ITI","","html-keyboard-response","10","121268","0.0-1.0-9.0","0","0","77322","","null","","","null","0","","","","","","","","","","","","","","","NaN",""
"","S1","","html-keyboard-response","11","121420","0.0-1.0-11.0","0","0","77322","","null","","","null","1","","","","","","","","","","","","","","","",""
"","ISI","","html-keyboard-response","12","123423","0.0-1.0-12.0","0","0","77322","","null","","","null","1","NaN","","","","","","","","","","","","","","",""
"","S2","","html-keyboard-response","13","123578","0.0-1.0-13.0","0","0","77322","","null","","","null","1","","NaN","","","","","","","","","","","","","",""
"","response","","html-keyboard-response","14","124727","0.0-1.0-14.0-0.0","0","0","77322","","1147","","","75","1","","","1","1","training","adjacent","FG","6","7","P.jpg","N.jpg","0","1","0","",""
"","feedback","","html-keyboard-response","15","125729","0.0-1.0-15.0-0.0","0","0","77322","","null","","","null","1","","","","","","","","","","","","","","","",""
"","time_out","","html-keyboard-response","16","127730","0.0-1.0-17.0-0.0","0","0","77322","","null","","","null","1","","","","","","","","","","","","","","","",""
"","ITI","","html-keyboard-response","17","128734","0.0-1.0-18.0","0","0","77322","","null","","","null","1","","","","","","","","","","","","","","","NaN",""
"","S1","","html-keyboard-response","18","128888","0.0-1.0-20.0","0","0","77322","","null","","","null","2","","","","","","","","","","","","","","","",""
"","ISI","","html-keyboard-response","19","130890","0.0-1.0-21.0","0","0","77322","","null","","","null","2","NaN","","","","","","","","","","","","","","",""
"","S2","","html-keyboard-response","20","131042","0.0-1.0-22.0","0","0","77322","","null","","","null","2","","NaN","","","","","","","","","","","","","",""
"","response","","html-keyboard-response","21","132706","0.0-1.0-23.0-0.0","0","0","77322","","1663","","","68","2","","","1","2","training","adjacent","DE","4","5","Q.jpg","L.jpg","1","1","1","",""
"","feedback","","html-keyboard-response","22","133710","0.0-1.0-24.0-0.0","0","0","77322","","null","","","null","2","","","","","","","","","","","","","","","",""
"","ITI","","html-keyboard-response","23","134713","0.0-1.0-27.0","0","0","77322","","null","","","null","2","","","","","","","","","","","","","","","NaN",""
"","S1","","html-keyboard-response","24","134864","0.0-1.0-29.0","0","0","77322","","null","","","null","3","","","","","","","","","","","","","","","",""
"","ISI","","html-keyboard-response","25","136867","0.0-1.0-30.0","0","0","77322","","null","","","null","3","NaN","","","","","","","","","","","","","","",""
"","S2","","html-keyboard-response","26","137020","0.0-1.0-31.0","0","0","77322","","null","","","null","3","","NaN","","","","","","","","","","","","","",""
"","response","","html-keyboard-response","27","138235","0.0-1.0-32.0-0.0","0","0","77322","","1213","","","75","3","","","1","3","training","adjacent","EF","5","6","L.jpg","P.jpg","0","1","0","",""
"","feedback","","html-keyboard-response","28","139238","0.0-1.0-33.0-0.0","0","0","77322","","null","","","null","3","","","","","","","","","","","","","","","",""
"","time_out","","html-keyboard-response","29","141240","0.0-1.0-35.0-0.0","0","0","77322","","null","","","null","3","","","","","","","","","","","","","","","",""
"","ITI","","html-keyboard-response","30","142242","0.0-1.0-36.0","0","0","77322","","null","","","null","3","","","","","","","","","","","","","","","NaN",""
"","S1","","html-keyboard-response","31","142395","0.0-1.0-38.0","0","0","77322","","null","","","null","4","","","","","","","","","","","","","","","",""
"","ISI","","html-keyboard-response","32","144398","0.0-1.0-39.0","0","0","77322","","null","","","null","4","NaN","","","","","","","","","","","","","","",""
"","S2","","html-keyboard-response","33","144553","0.0-1.0-40.0","0","0","77322","","null","","","null","4","","NaN","","","","","","","","","","","","","",""
"","response","","html-keyboard-response","34","145671","0.0-1.0-41.0-0.0","0","0","77322","","1116","","","68","4","","","1","4","training","adjacent","DC","4","3","Q.jpg","O.jpg","1","0","0","",""
"","feedback","","html-keyboard-response","35","146673","0.0-1.0-42.0-0.0","0","0","77322","","null","","","null","4","","","","","","","","","","","","","","","",""
"","time_out","","html-keyboard-response","36","148675","0.0-1.0-44.0-0.0","0","0","77322","","null","","","null","4","","","","","","","","","","","","","","","",""
"","ITI","","html-keyboard-response","37","149677","0.0-1.0-45.0","0","0","77322","","null","","","null","4","","","","","","","","","","","","","","","NaN",""
"","S1","","html-keyboard-response","38","149829","0.0-1.0-47.0","0","0","77322","","null","","","null","5","","","","","","","","","","","","","","","",""
"","ISI","","html-keyboard-response","39","151830","0.0-1.0-48.0","0","0","77322","","null","","","null","5","NaN","","","","","","","","","","","","","","",""
"","S2","","html-keyboard-response","40","151984","0.0-1.0-49.0","0","0","77322","","null","","","null","5","","NaN","","","","","","","","","","","","","",""
"","response","","html-keyboard-response","41","152786","0.0-1.0-50.0-0.0","0","0","77322","","798","","","75","5","","","1","5","training","adjacent","FG","6","7","P.jpg","N.jpg","0","1","0","",""
"","feedback","","html-keyboard-response","42","153788","0.0-1.0-51.0-0.0","0","0","77322","","null","","","null","5","","","","","","","","","","","","","","","",""
"","time_out","","html-keyboard-response","43","155790","0.0-1.0-53.0-0.0","0","0","77322","","null","","","null","5","","","","","","","","","","","","","","","",""
"","ITI","","html-keyboard-response","44","156793","0.0-1.0-54.0","0","0","77322","","null","","","null","5","","","","","","","","","","","","","","","NaN",""
"","S1","","html-keyboard-response","45","156948","0.0-1.0-56.0","0","0","77322","","null","","","null","6","","","","","","","","","","","","","","","",""
"","ISI","","html-keyboard-response","46","158950","0.0-1.0-57.0","0","0","77322","","null","","","null","6","NaN","","","","","","","","","","","","","","",""
"","S2","","html-keyboard-response","47","159103","0.0-1.0-58.0","0","0","77322","","null","","","null","6","","NaN","","","","","","","","","","","","","",""
"","response","","html-keyboard-response","48","160057","0.0-1.0-59.0-0.0","0","0","77322","","953","","","75","6","","","1","6","training","adjacent","ED","5","4","L.jpg","Q.jpg","0","0","1","",""
"","feedback","","html-keyboard-response","49","161061","0.0-1.0-60.0-0.0","0","0","77322","","null","","","null","6","","","","","","","","","","","","","","","",""
"","ITI","","html-keyboard-response","50","162063","0.0-1.0-63.0","0","0","77322","","null","","","null","6","","","","","","","","","","","","","","","NaN",""
"","S1","","html-keyboard-response","51","162215","0.0-1.0-65.0","0","0","77322","","null","","","null","7","","","","","","","","","","","","","","","",""
"","ISI","","html-keyboard-response","52","164218","0.0-1.0-66.0","0","0","77322","","null","","","null","7","NaN","","","","","","","","","","","","","","",""
"","S2","","html-keyboard-response","53","164370","0.0-1.0-67.0","0","0","77322","","null","","","null","7","","NaN","","","","","","","","","","","","","",""
"","response","","html-keyboard-response","54","165941","0.0-1.0-68.0-0.0","0","0","77322","","1567","","","68","7","","","1","7","training","adjacent","GF","7","6","N.jpg","P.jpg","1","0","0","",""
"","feedback","","html-keyboard-response","55","166945","0.0-1.0-69.0-0.0","0","0","77322","","null","","","null","7","","","","","","","","","","","","","","","",""
"","time_out","","html-keyboard-response","56","168947","0.0-1.0-71.0-0.0","0","0","77322","","null","","","null","7","","","","","","","","","","","","","","","",""
"","ITI","","html-keyboard-response","57","169949","0.0-1.0-72.0","0","0","77322","","null","","","null","7","","","","","","","","","","","","","","","NaN",""
"","S1","","html-keyboard-response","58","170102","0.0-1.0-74.0","0","0","77322","","null","","","null","8","","","","","","","","","","","","","","","",""
"","ISI","","html-keyboard-response","59","172104","0.0-1.0-75.0","0","0","77322","","null","","","null","8","NaN","","","","","","","","","","","","","","",""
"","S2","","html-keyboard-response","60","172259","0.0-1.0-76.0","0","0","77322","","null","","","null","8","","NaN","","","","","","","","","","","","","",""
"","response","","html-keyboard-response","61","173177","0.0-1.0-77.0-0.0","0","0","77322","","916","","","75","8","","","1","8","training","adjacent","ED","5","4","L.jpg","Q.jpg","0","0","1","",""
"","feedback","","html-keyboard-response","62","174180","0.0-1.0-78.0-0.0","0","0","77322","","null","","","null","8","","","","","","","","","","","","","","","",""
"","ITI","","html-keyboard-response","63","175184","0.0-1.0-81.0","0","0","77322","","null","","","null","8","","","","","","","","","","","","","","","NaN",""
"","S1","","html-keyboard-response","64","175337","0.0-1.0-83.0","0","0","77322","","null","","","null","9","","","","","","","","","","","","","","","",""
"","ISI","","html-keyboard-response","65","177340","0.0-1.0-84.0","0","0","77322","","null","","","null","9","NaN","","","","","","","","","","","","","","",""
"","S2","","html-keyboard-response","66","177495","0.0-1.0-85.0","0","0","77322","","null","","","null","9","","NaN","","","","","","","","","","","","","",""
"","response","","html-keyboard-response","67","177772","0.0-1.0-86.0-0.0","0","0","77322","","274","","","75","9","","","1","9","training","adjacent","FE","6","5","P.jpg","L.jpg","0","0","1","",""
"","feedback","","html-keyboard-response","68","178775","0.0-1.0-87.0-0.0","0","0","77322","","null","","","null","9","","","","","","","","","","","","","","","",""
"","ITI","","html-keyboard-response","69","179779","0.0-1.0-90.0","0","0","77322","","null","","","null","9","","","","","","","","","","","","","","","NaN",""
"","S1","","html-keyboard-response","70","179934","0.0-1.0-92.0","0","0","77322","","null","","","null","10","","","","","","","","","","","","","","","",""
"","ISI","","html-keyboard-response","71","181938","0.0-1.0-93.0","0","0","77322","","null","","","null","10","NaN","","","","","","","","","","","","","","",""
"","S2","","html-keyboard-response","72","182091","0.0-1.0-94.0","0","0","77322","","null","","","null","10","","NaN","","","","","","","","","","","","","",""
"","response","","html-keyboard-response","73","183001","0.0-1.0-95.0-0.0","0","0","77322","","909","","","68","10","","","1","10","training","adjacent","BA","2","1","R.jpg","M.jpg","1","0","0","",""
"","feedback","","html-keyboard-response","74","184003","0.0-1.0-96.0-0.0","0","0","77322","","null","","","null","10","","","","","","","","","","","","","","","",""
"","time_out","","html-keyboard-response","75","186005","0.0-1.0-98.0-0.0","0","0","77322","","null","","","null","10","","","","","","","","","","","","","","","",""
"","ITI","","html-keyboard-response","76","187009","0.0-1.0-99.0","0","0","77322","","null","","","null","10","","","","","","","","","","","","","","","NaN",""
"","S1","","html-keyboard-response","77","187164","0.0-1.0-101.0","0","0","77322","","null","","","null","11","","","","","","","","","","","","","","","",""
"","ISI","","html-keyboard-response","78","189166","0.0-1.0-102.0","0","0","77322","","null","","","null","11","NaN","","","","","","","","","","","","","","",""
"","S2","","html-keyboard-response","79","189321","0.0-1.0-103.0","0","0","77322","","null","","","null","11","","NaN","","","","","","","","","","","","","",""
"","response","","html-keyboard-response","80","190056","0.0-1.0-104.0-0.0","0","0","77322","","733","","","75","11","","","1","11","training","adjacent","CD","3","4","O.jpg","Q.jpg","0","1","0","",""
"","feedback","","html-keyboard-response","81","191061","0.0-1.0-105.0-0.0","0","0","77322","","null","","","null","11","","","","","","","","","","","","","","","",""
"","time_out","","html-keyboard-response","82","193064","0.0-1.0-107.0-0.0","0","0","77322","","null","","","null","11","","","","","","","","","","","","","","","",""
"","ITI","","html-keyboard-response","83","194068","0.0-1.0-108.0","0","0","77322","","null","","","null","11","","","","","","","","","","","","","","","NaN",""
"","S1","","html-keyboard-response","84","194220","0.0-1.0-110.0","0","0","77322","","null","","","null","12","","","","","","","","","","","","","","","",""
"","ISI","","html-keyboard-response","85","196223","0.0-1.0-111.0","0","0","77322","","null","","","null","12","NaN","","","","","","","","","","","","","","",""
"","S2","","html-keyboard-response","86","196376","0.0-1.0-112.0","0","0","77322","","null","","","null","12","","NaN","","","","","","","","","","","","","",""
"","response","","html-keyboard-response","87","197372","0.0-1.0-113.0-0.0","0","0","77322","","993","","","75","12","","","1","12","training","adjacent","AB","1","2","M.jpg","R.jpg","0","1","0","",""
"","feedback","","html-keyboard-response","88","198376","0.0-1.0-114.0-0.0","0","0","77322","","null","","","null","12","","","","","","","","","","","","","","","",""
"","time_out","","html-keyboard-response","89","200379","0.0-1.0-116.0-0.0","0","0","77322","","null","","","null","12","","","","","","","","","","","","","","","",""
"","ITI","","html-keyboard-response","90","201383","0.0-1.0-117.0","0","0","77322","","null","","","null","12","","","","","","","","","","","","","","","NaN",""
"","S1","","html-keyboard-response","91","201537","0.0-1.0-119.0","0","0","77322","","null","","","null","13","","","","","","","","","","","","","","","",""
"","ISI","","html-keyboard-response","92","203540","0.0-1.0-120.0","0","0","77322","","null","","","null","13","NaN","","","","","","","","","","","","","","",""
"","S2","","html-keyboard-response","93","203695","0.0-1.0-121.0","0","0","77322","","null","","","null","13","","NaN","","","","","","","","","","","","","",""
"","response","","html-keyboard-response","94","203997","0.0-1.0-122.0-0.0","0","0","77322","","300","","","68","13","","","1","13","training","adjacent","BA","2","1","R.jpg","M.jpg","1","0","0","",""
"","feedback","","html-keyboard-response","95","205000","0.0-1.0-123.0-0.0","0","0","77322","","null","","","null","13","","","","","","","","","","","","","","","",""
"","time_out","","html-keyboard-response","96","207001","0.0-1.0-125.0-0.0","0","0","77322","","null","","","null","13","","","","","","","","","","","","","","","",""
"","ITI","","html-keyboard-response","97","208002","0.0-1.0-126.0","0","0","77322","","null","","","null","13","","","","","","","","","","","","","","","NaN",""
"","S1","","html-keyboard-response","98","208155","0.0-1.0-128.0","0","0","77322","","null","","","null","14","","","","","","","","","","","","","","","",""
"","ISI","","html-keyboard-response","99","210157","0.0-1.0-129.0","0","0","77322","","null","","","null","14","NaN","","","","","","","","","","","","","","",""
"","S2","","html-keyboard-response","100","210309","0.0-1.0-130.0","0","0","77322","","null","","","null","14","","NaN","","","","","","","","","","","","","",""
"","response","","html-keyboard-response","101","211110","0.0-1.0-131.0-0.0","0","0","77322","","800","","","75","14","","","1","14","training","adjacent","ED","5","4","L.jpg","Q.jpg","0","0","1","",""
"","feedback","","html-keyboard-response","102","212113","0.0-1.0-132.0-0.0","0","0","77322","","null","","","null","14","","","","","","","","","","","","","","","",""
"","ITI","","html-keyboard-response","103","213114","0.0-1.0-135.0","0","0","77322","","null","","","null","14","","","","","","","","","","","","","","","NaN",""
"","S1","","html-keyboard-response","104","213266","0.0-1.0-137.0","0","0","77322","","null","","","null","15","","","","","","","","","","","","","","","",""
"","ISI","","html-keyboard-response","105","215270","0.0-1.0-138.0","0","0","77322","","null","","","null","15","NaN","","","","","","","","","","","","","","",""
"","S2","","html-keyboard-response","106","215423","0.0-1.0-139.0","0","0","77322","","null","","","null","15","","NaN","","","","","","","","","","","","","",""
"","response","","html-keyboard-response","107","216242","0.0-1.0-140.0-0.0","0","0","77322","","818","","","68","15","","","1","15","training","adjacent","AB","1","2","M.jpg","R.jpg","1","1","1","",""
"","feedback","","html-keyboard-response","108","217245","0.0-1.0-141.0-0.0","0","0","77322","","null","","","null","15","","","","","","","","","","","","","","","",""
"","ITI","","html-keyboard-response","109","218248","0.0-1.0-144.0","0","0","77322","","null","","","null","15","","","","","","","","","","","","","","","NaN",""
"","S1","","html-keyboard-response","110","218402","0.0-1.0-146.0","0","0","77322","","null","","","null","16","","","","","","","","","","","","","","","",""
"","ISI","","html-keyboard-response","111","220406","0.0-1.0-147.0","0","0","77322","","null","","","null","16","NaN","","","","","","","","","","","","","","",""
"","S2","","html-keyboard-response","112","220560","0.0-1.0-148.0","0","0","77322","","null","","","null","16","","NaN","","","","","","","","","","","","","",""
"","response","","html-keyboard-response","113","222177","0.0-1.0-149.0-0.0","0","0","77322","","1616","","","75","16","","","1","16","training","adjacent","CB","3","2","O.jpg","R.jpg","0","0","1","",""
"","feedback","","html-keyboard-response","114","223179","0.0-1.0-150.0-0.0","0","0","77322","","null","","","null","16","","","","","","","","","","","","","","","",""
"","ITI","","html-keyboard-response","115","224182","0.0-1.0-153.0","0","0","77322","","null","","","null","16","","","","","","","","","","","","","","","NaN",""
"","S1","","html-keyboard-response","116","224334","0.0-1.0-155.0","0","0","77322","","null","","","null","17","","","","","","","","","","","","","","","",""
"","ISI","","html-keyboard-response","117","226336","0.0-1.0-156.0","0","0","77322","","null","","","null","17","NaN","","","","","","","","","","","","","","",""
"","S2","","html-keyboard-response","118","226491","0.0-1.0-157.0","0","0","77322","","null","","","null","17","","NaN","","","","","","","","","","","","","",""
"","response","","html-keyboard-response","119","227356","0.0-1.0-158.0-0.0","0","0","77322","","862","","","68","17","","","1","17","training","adjacent","DE","4","5","Q.jpg","L.jpg","1","1","1","",""
"","feedback","","html-keyboard-response","120","228360","0.0-1.0-159.0-0.0","0","0","77322","","null","","","null","17","","","","","","","","","","","","","","","",""
"","ITI","","html-keyboard-response","121","229362","0.0-1.0-162.0","0","0","77322","","null","","","null","17","","","","","","","","","","","","","","","NaN",""
"","S1","","html-keyboard-response","122","229515","0.0-1.0-164.0","0","0","77322","","null","","","null","18","","","","","","","","","","","","","","","",""
"","ISI","","html-keyboard-response","123","231519","0.0-1.0-165.0","0","0","77322","","null","","","null","18","NaN","","","","","","","","","","","","","","",""
"","S2","","html-keyboard-response","124","231673","0.0-1.0-166.0","0","0","77322","","null","","","null","18","","NaN","","","","","","","","","","","","","",""
"","response","","html-keyboard-response","125","232346","0.0-1.0-167.0-0.0","0","0","77322","","671","","","75","18","","","1","18","training","adjacent","FG","6","7","P.jpg","N.jpg","0","1","0","",""
"","feedback","","html-keyboard-response","126","233349","0.0-1.0-168.0-0.0","0","0","77322","","null","","","null","18","","","","","","","","","","","","","","","",""
"","time_out","","html-keyboard-response","127","235354","0.0-1.0-170.0-0.0","0","0","77322","","null","","","null","18","","","","","","","","","","","","","","","",""
"","ITI","","html-keyboard-response","128","236359","0.0-1.0-171.0","0","0","77322","","null","","","null","18","","","","","","","","","","","","","","","NaN",""
"","S1","","html-keyboard-response","129","236513","0.0-1.0-173.0","0","0","77322","","null","","","null","19","","","","","","","","","","","","","","","",""
"","ISI","","html-keyboard-response","130","238516","0.0-1.0-174.0","0","0","77322","","null","","","null","19","NaN","","","","","","","","","","","","","","",""
"","S2","","html-keyboard-response","131","238670","0.0-1.0-175.0","0","0","77322","","null","","","null","19","","NaN","","","","","","","","","","","","","",""
"","response","","html-keyboard-response","132","238889","0.0-1.0-176.0-0.0","0","0","77322","","217","","","75","19","","","1","19","training","adjacent","CD","3","4","O.jpg","Q.jpg","0","1","0","",""
"","feedback","","html-keyboard-response","133","239892","0.0-1.0-177.0-0.0","0","0","77322","","null","","","null","19","","","","","","","","","","","","","","","",""
"","time_out","","html-keyboard-response","134","241894","0.0-1.0-179.0-0.0","0","0","77322","","null","","","null","19","","","","","","","","","","","","","","","",""
"","ITI","","html-keyboard-response","135","242896","0.0-1.0-180.0","0","0","77322","","null","","","null","19","","","","","","","","","","","","","","","NaN",""
"","S1","","html-keyboard-response","136","243048","0.0-1.0-182.0","0","0","77322","","null","","","null","20","","","","","","","","","","","","","","","",""
"","ISI","","html-keyboard-response","137","245052","0.0-1.0-183.0","0","0","77322","","261","","","68","20","d","","","","","","","","","","","","","","",""
"","S2","","html-keyboard-response","138","245207","0.0-1.0-184.0","0","0","77322","","null","","","null","20","","NaN","","","","","","","","","","","","","",""
"","response","","html-keyboard-response","139","245717","0.0-1.0-185.0-0.0","0","0","77322","","509","","","68","20","","","1","20","training","adjacent","CD","3","4","O.jpg","Q.jpg","1","1","1","",""
"","feedback","","html-keyboard-response","140","246720","0.0-1.0-186.0-0.0","0","0","77322","","null","","","null","20","","","","","","","","","","","","","","","",""
"","ITI","","html-keyboard-response","141","247725","0.0-1.0-189.0","0","0","77322","","null","","","null","20","","","","","","","","","","","","","","","NaN",""
"","S1","","html-keyboard-response","142","247878","0.0-1.0-191.0","0","0","77322","","null","","","null","21","","","","","","","","","","","","","","","",""
"","ISI","","html-keyboard-response","143","249880","0.0-1.0-192.0","0","0","77322","","null","","","null","21","NaN","","","","","","","","","","","","","","",""
"","S2","","html-keyboard-response","144","250033","0.0-1.0-193.0","0","0","77322","","null","","","null","21","","NaN","","","","","","","","","","","","","",""
"","response","","html-keyboard-response","145","250933","0.0-1.0-194.0-0.0","0","0","77322","","899","","","75","21","","","1","21","training","adjacent","GF","7","6","N.jpg","P.jpg","0","0","1","",""
"","feedback","","html-keyboard-response","146","251936","0.0-1.0-195.0-0.0","0","0","77322","","null","","","null","21","","","","","","","","","","","","","","","",""
"","ITI","","html-keyboard-response","147","252938","0.0-1.0-198.0","0","0","77322","","null","","","null","21","","","","","","","","","","","","","","","NaN",""
"","S1","","html-keyboard-response","148","253092","0.0-1.0-200.0","0","0","77322","","null","","","null","22","","","","","","","","","","","","","","","",""
"","ISI","","html-keyboard-response","149","255094","0.0-1.0-201.0","0","0","77322","","null","","","null","22","NaN","","","","","","","","","","","","","","",""
"","S2","","html-keyboard-response","150","255246","0.0-1.0-202.0","0","0","77322","","null","","","null","22","","NaN","","","","","","","","","","","","","",""
"","response","","html-keyboard-response","151","256181","0.0-1.0-203.0-0.0","0","0","77322","","933","","","68","22","","","1","22","training","adjacent","CB","3","2","O.jpg","R.jpg","1","0","0","",""
"","feedback","","html-keyboard-response","152","257182","0.0-1.0-204.0-0.0","0","0","77322","","null","","","null","22","","","","","","","","","","","","","","","",""
"","time_out","","html-keyboard-response","153","259186","0.0-1.0-206.0-0.0","0","0","77322","","null","","","null","22","","","","","","","","","","","","","","","",""
"","ITI","","html-keyboard-response","154","260188","0.0-1.0-207.0","0","0","77322","","null","","","null","22","","","","","","","","","","","","","","","NaN",""
"","S1","","html-keyboard-response","155","260341","0.0-1.0-209.0","0","0","77322","","null","","","null","23","","","","","","","","","","","","","","","",""
"","ISI","","html-keyboard-response","156","262343","0.0-1.0-210.0","0","0","77322","","null","","","null","23","NaN","","","","","","","","","","","","","","",""
"","S2","","html-keyboard-response","157","262495","0.0-1.0-211.0","0","0","77322","","null","","","null","23","","NaN","","","","","","","","","","","","","",""
"","response","","html-keyboard-response","158","262774","0.0-1.0-212.0-0.0","0","0","77322","","278","","","75","23","","","1","23","training","adjacent","DC","4","3","Q.jpg","O.jpg","0","0","1","",""
"","feedback","","html-keyboard-response","159","263776","0.0-1.0-213.0-0.0","0","0","77322","","null","","","null","23","","","","","","","","","","","","","","","",""
"","ITI","","html-keyboard-response","160","264778","0.0-1.0-216.0","0","0","77322","","null","","","null","23","","","","","","","","","","","","","","","NaN",""
"","S1","","html-keyboard-response","161","264931","0.0-1.0-218.0","0","0","77322","","null","","","null","24","","","","","","","","","","","","","","","",""
"","ISI","","html-keyboard-response","162","266934","0.0-1.0-219.0","0","0","77322","","null","","","null","24","NaN","","","","","","","","","","","","","","",""
"","S2","","html-keyboard-response","163","267086","0.0-1.0-220.0","0","0","77322","","null","","","null","24","","NaN","","","","","","","","","","","","","",""
"","response","","html-keyboard-response","164","267408","0.0-1.0-221.0-0.0","0","0","77322","","319","","","75","24","","","1","24","training","adjacent","FG","6","7","P.jpg","N.jpg","0","1","0","",""
"","feedback","","html-keyboard-response","165","268413","0.0-1.0-222.0-0.0","0","0","77322","","null","","","null","24","","","","","","","","","","","","","","","",""
"","time_out","","html-keyboard-response","166","270417","0.0-1.0-224.0-0.0","0","0","77322","","null","","","null","24","","","","","","","","","","","","","","","",""
"","ITI","","html-keyboard-response","167","271422","0.0-1.0-225.0","0","0","77322","","null","","","null","24","","","","","","","","","","","","","","","NaN",""
"","S1","","html-keyboard-response","168","271575","0.0-1.0-227.0","0","0","77322","","null","","","null","25","","","","","","","","","","","","","","","",""
"","ISI","","html-keyboard-response","169","273577","0.0-1.0-228.0","0","0","77322","","null","","","null","25","NaN","","","","","","","","","","","","","","",""
"","S2","","html-keyboard-response","170","273729","0.0-1.0-229.0","0","0","77322","","null","","","null","25","","NaN","","","","","","","","","","","","","",""
"","response","","html-keyboard-response","171","273928","0.0-1.0-230.0-0.0","0","0","77322","","198","","","68","25","","","1","25","training","adjacent","BA","2","1","R.jpg","M.jpg","1","0","0","",""
"","feedback","","html-keyboard-response","172","274932","0.0-1.0-231.0-0.0","0","0","77322","","null","","","null","25","","","","","","","","","","","","","","","",""
"","time_out","","html-keyboard-response","173","276936","0.0-1.0-233.0-0.0","0","0","77322","","null","","","null","25","","","","","","","","","","","","","","","",""
"","ITI","","html-keyboard-response","174","277939","0.0-1.0-234.0","0","0","77322","","null","","","null","25","","","","","","","","","","","","","","","NaN",""
"","S1","","html-keyboard-response","175","278093","0.0-1.0-236.0","0","0","77322","","null","","","null","26","","","","","","","","","","","","","","","",""
"","ISI","","html-keyboard-response","176","280097","0.0-1.0-237.0","0","0","77322","","null","","","null","26","NaN","","","","","","","","","","","","","","",""
"","S2","","html-keyboard-response","177","280252","0.0-1.0-238.0","0","0","77322","","null","","","null","26","","NaN","","","","","","","","","","","","","",""
"","response","","html-keyboard-response","178","280696","0.0-1.0-239.0-0.0","0","0","77322","","443","","","75","26","","","1","26","training","adjacent","ED","5","4","L.jpg","Q.jpg","0","0","1","",""
"","feedback","","html-keyboard-response","179","281699","0.0-1.0-240.0-0.0","0","0","77322","","null","","","null","26","","","","","","","","","","","","","","","",""
"","ITI","","html-keyboard-response","180","282703","0.0-1.0-243.0","0","0","77322","","null","","","null","26","","","","","","","","","","","","","","","NaN",""
"","S1","","html-keyboard-response","181","282856","0.0-1.0-245.0","0","0","77322","","null","","","null","27","","","","","","","","","","","","","","","",""
"","ISI","","html-keyboard-response","182","284859","0.0-1.0-246.0","0","0","77322","","null","","","null","27","NaN","","","","","","","","","","","","","","",""
"","S2","","html-keyboard-response","183","285013","0.0-1.0-247.0","0","0","77322","","null","","","null","27","","NaN","","","","","","","","","","","","","",""
"","response","","html-keyboard-response","184","285675","0.0-1.0-248.0-0.0","0","0","77322","","660","","","75","27","","","1","27","training","adjacent","BC","2","3","R.jpg","O.jpg","0","1","0","",""
"","feedback","","html-keyboard-response","185","286681","0.0-1.0-249.0-0.0","0","0","77322","","null","","","null","27","","","","","","","","","","","","","","","",""
"","time_out","","html-keyboard-response","186","288684","0.0-1.0-251.0-0.0","0","0","77322","","null","","","null","27","","","","","","","","","","","","","","","",""
"","ITI","","html-keyboard-response","187","289687","0.0-1.0-252.0","0","0","77322","","null","","","null","27","","","","","","","","","","","","","","","NaN",""
"","S1","","html-keyboard-response","188","289841","0.0-1.0-254.0","0","0","77322","","null","","","null","28","","","","","","","","","","","","","","","",""
"","ISI","","html-keyboard-response","189","291844","0.0-1.0-255.0","0","0","77322","","null","","","null","28","NaN","","","","","","","","","","","","","","",""
"","S2","","html-keyboard-response","190","291999","0.0-1.0-256.0","0","0","77322","","null","","","null","28","","NaN","","","","","","","","","","","","","",""
"","response","","html-keyboard-response","191","292884","0.0-1.0-257.0-0.0","0","0","77322","","882","","","68","28","","","1","28","training","adjacent","FE","6","5","P.jpg","L.jpg","1","0","0","",""
"","feedback","","html-keyboard-response","192","293889","0.0-1.0-258.0-0.0","0","0","77322","","null","","","null","28","","","","","","","","","","","","","","","",""
"","time_out","","html-keyboard-response","193","295892","0.0-1.0-260.0-0.0","0","0","77322","","null","","","null","28","","","","","","","","","","","","","","","",""
"","ITI","","html-keyboard-response","194","296894","0.0-1.0-261.0","0","0","77322","","null","","","null","28","","","","","","","","","","","","","","","NaN",""
"","S1","","html-keyboard-response","195","297047","0.0-1.0-263.0","0","0","77322","","null","","","null","29","","","","","","","","","","","","","","","",""
"","ISI","","html-keyboard-response","196","299051","0.0-1.0-264.0","0","0","77322","","null","","","null","29","NaN","","","","","","","","","","","","","","",""
"","S2","","html-keyboard-response","197","299207","0.0-1.0-265.0","0","0","77322","","null","","","null","29","","NaN","","","","","","","","","","","","","",""
"","response","","html-keyboard-response","198","299469","0.0-1.0-266.0-0.0","0","0","77322","","260","","","75","29","","","1","29","training","adjacent","GF","7","6","N.jpg","P.jpg","0","0","1","",""
"","feedback","","html-keyboard-response","199","300473","0.0-1.0-267.0-0.0","0","0","77322","","null","","","null","29","","","","","","","","","","","","","","","",""
"","ITI","","html-keyboard-response","200","301475","0.0-1.0-270.0","0","0","77322","","null","","","null","29","","","","","","","","","","","","","","","NaN",""
"","S1","","html-keyboard-response","201","301627","0.0-1.0-272.0","0","0","77322","","null","","","null","30","","","","","","","","","","","","","","","",""
"","ISI","","html-keyboard-response","202","303630","0.0-1.0-273.0","0","0","77322","","null","","","null","30","NaN","","","","","","","","","","","","","","",""
"","S2","","html-keyboard-response","203","303783","0.0-1.0-274.0","0","0","77322","","null","","","null","30","","NaN","","","","","","","","","","","","","",""
"","response","","html-keyboard-response","204","304613","0.0-1.0-275.0-0.0","0","0","77322","","828","","","75","30","","","1","30","training","adjacent","BA","2","1","R.jpg","M.jpg","0","0","1","",""
"","feedback","","html-keyboard-response","205","305617","0.0-1.0-276.0-0.0","0","0","77322","","null","","","null","30","","","","","","","","","","","","","","","",""
"","ITI","","html-keyboard-response","206","306620","0.0-1.0-279.0","0","0","77322","","null","","","null","30","","","","","","","","","","","","","","","NaN",""
"","S1","","html-keyboard-response","207","306774","0.0-1.0-281.0","0","0","77322","","null","","","null","31","","","","","","","","","","","","","","","",""
"","ISI","","html-keyboard-response","208","308776","0.0-1.0-282.0","0","0","77322","","null","","","null","31","NaN","","","","","","","","","","","","","","",""
"","S2","","html-keyboard-response","209","308930","0.0-1.0-283.0","0","0","77322","","null","","","null","31","","NaN","","","","","","","","","","","","","",""
"","response","","html-keyboard-response","210","309752","0.0-1.0-284.0-0.0","0","0","77322","","818","","","75","31","","","1","31","training","adjacent","CB","3","2","O.jpg","R.jpg","0","0","1","",""
"","feedback","","html-keyboard-response","211","310755","0.0-1.0-285.0-0.0","0","0","77322","","null","","","null","31","","","","","","","","","","","","","","","",""
"","ITI","","html-keyboard-response","212","311758","0.0-1.0-288.0","0","0","77322","","null","","","null","31","","","","","","","","","","","","","","","NaN",""
"","S1","","html-keyboard-response","213","311912","0.0-1.0-290.0","0","0","77322","","null","","","null","32","","","","","","","","","","","","","","","",""
"","ISI","","html-keyboard-response","214","313914","0.0-1.0-291.0","0","0","77322","","null","","","null","32","NaN","","","","","","","","","","","","","","",""
"","S2","","html-keyboard-response","215","314067","0.0-1.0-292.0","0","0","77322","","null","","","null","32","","NaN","","","","","","","","","","","","","",""
"","response","","html-keyboard-response","216","314825","0.0-1.0-293.0-0.0","0","0","77322","","755","","","68","32","","","1","32","training","adjacent","EF","5","6","L.jpg","P.jpg","1","1","1","",""
"","feedback","","html-keyboard-response","217","315829","0.0-1.0-294.0-0.0","0","0","77322","","null","","","null","32","","","","","","","","","","","","","","","",""
"","ITI","","html-keyboard-response","218","316832","0.0-1.0-297.0","0","0","77322","","null","","","null","32","","","","","","","","","","","","","","","NaN",""
"","S1","","html-keyboard-response","219","316984","0.0-1.0-299.0","0","0","77322","","null","","","null","33","","","","","","","","","","","","","","","",""
"","ISI","","html-keyboard-response","220","318986","0.0-1.0-300.0","0","0","77322","","null","","","null","33","NaN","","","","","","","","","","","","","","",""
"","S2","","html-keyboard-response","221","319140","0.0-1.0-301.0","0","0","77322","","null","","","null","33","","NaN","","","","","","","","","","","","","",""
"","response","","html-keyboard-response","222","320048","0.0-1.0-302.0-0.0","0","0","77322","","905","","","75","33","","","1","33","training","adjacent","DE","4","5","Q.jpg","L.jpg","0","1","0","",""
"","feedback","","html-keyboard-response","223","321053","0.0-1.0-303.0-0.0","0","0","77322","","null","","","null","33","","","","","","","","","","","","","","","",""
"","time_out","","html-keyboard-response","224","323057","0.0-1.0-305.0-0.0","0","0","77322","","null","","","null","33","","","","","","","","","","","","","","","",""
"","ITI","","html-keyboard-response","225","324060","0.0-1.0-306.0","0","0","77322","","null","","","null","33","","","","","","","","","","","","","","","NaN",""
"","S1","","html-keyboard-response","226","324213","0.0-1.0-308.0","0","0","77322","","null","","","null","34","","","","","","","","","","","","","","","",""
"","ISI","","html-keyboard-response","227","326217","0.0-1.0-309.0","0","0","77322","","null","","","null","34","NaN","","","","","","","","","","","","","","",""
"","S2","","html-keyboard-response","228","326371","0.0-1.0-310.0","0","0","77322","","null","","","null","34","","NaN","","","","","","","","","","","","","",""
"","response","","html-keyboard-response","229","327296","0.0-1.0-311.0-0.0","0","0","77322","","922","","","68","34","","","1","34","training","adjacent","BC","2","3","R.jpg","O.jpg","1","1","1","",""
"","feedback","","html-keyboard-response","230","328301","0.0-1.0-312.0-0.0","0","0","77322","","null","","","null","34","","","","","","","","","","","","","","","",""
"","ITI","","html-keyboard-response","231","329305","0.0-1.0-315.0","0","0","77322","","null","","","null","34","","","","","","","","","","","","","","","NaN",""
"","S1","","html-keyboard-response","232","329459","0.0-1.0-317.0","0","0","77322","","null","","","null","35","","","","","","","","","","","","","","","",""
"","ISI","","html-keyboard-response","233","331462","0.0-1.0-318.0","0","0","77322","","null","","","null","35","NaN","","","","","","","","","","","","","","",""
"","S2","","html-keyboard-response","234","331616","0.0-1.0-319.0","0","0","77322","","null","","","null","35","","NaN","","","","","","","","","","","","","",""
"","response","","html-keyboard-response","235","332059","0.0-1.0-320.0-0.0","0","0","77322","","440","","","75","35","","","1","35","training","adjacent","DC","4","3","Q.jpg","O.jpg","0","0","1","",""
"","feedback","","html-keyboard-response","236","333064","0.0-1.0-321.0-0.0","0","0","77322","","null","","","null","35","","","","","","","","","","","","","","","",""
"","ITI","","html-keyboard-response","237","334067","0.0-1.0-324.0","0","0","77322","","null","","","null","35","","","","","","","","","","","","","","","NaN",""
"","S1","","html-keyboard-response","238","334221","0.0-1.0-326.0","0","0","77322","","null","","","null","36","","","","","","","","","","","","","","","",""
"","ISI","","html-keyboard-response","239","336224","0.0-1.0-327.0","0","0","77322","","null","","","null","36","NaN","","","","","","","","","","","","","","",""
"","S2","","html-keyboard-response","240","336377","0.0-1.0-328.0","0","0","77322","","null","","","null","36","","NaN","","","","","","","","","","","","","",""
"","response","","html-keyboard-response","241","336682","0.0-1.0-329.0-0.0","0","0","77322","","302","","","68","36","","","1","36","training","adjacent","EF","5","6","L.jpg","P.jpg","1","1","1","",""
"","feedback","","html-keyboard-response","242","337687","0.0-1.0-330.0-0.0","0","0","77322","","null","","","null","36","","","","","","","","","","","","","","","",""
"","ITI","","html-keyboard-response","243","338690","0.0-1.0-333.0","0","0","77322","","null","","","null","36","","","","","","","","","","","","","","","NaN",""
"","S1","","html-keyboard-response","244","338843","0.0-1.0-335.0","0","0","77322","","null","","","null","37","","","","","","","","","","","","","","","",""
"","ISI","","html-keyboard-response","245","340844","0.0-1.0-336.0","0","0","77322","","null","","","null","37","NaN","","","","","","","","","","","","","","",""
"","S2","","html-keyboard-response","246","340997","0.0-1.0-337.0","0","0","77322","","null","","","null","37","","NaN","","","","","","","","","","","","","",""
"","response","","html-keyboard-response","247","341402","0.0-1.0-338.0-0.0","0","0","77322","","402","","","75","37","","","1","37","training","adjacent","CB","3","2","O.jpg","R.jpg","0","0","1","",""
"","feedback","","html-keyboard-response","248","342407","0.0-1.0-339.0-0.0","0","0","77322","","null","","","null","37","","","","","","","","","","","","","","","",""
"","ITI","","html-keyboard-response","249","343411","0.0-1.0-342.0","0","0","77322","","null","","","null","37","","","","","","","","","","","","","","","NaN",""
"","S1","","html-keyboard-response","250","343564","0.0-1.0-344.0","0","0","77322","","null","","","null","38","","","","","","","","","","","","","","","",""
"","ISI","","html-keyboard-response","251","345567","0.0-1.0-345.0","0","0","77322","","null","","","null","38","NaN","","","","","","","","","","","","","","",""
"","S2","","html-keyboard-response","252","345720","0.0-1.0-346.0","0","0","77322","","null","","","null","38","","NaN","","","","","","","","","","","","","",""
"","response","","html-keyboard-response","253","346042","0.0-1.0-347.0-0.0","0","0","77322","","319","","","68","38","","","1","38","training","adjacent","BC","2","3","R.jpg","O.jpg","1","1","1","",""
"","feedback","","html-keyboard-response","254","347046","0.0-1.0-348.0-0.0","0","0","77322","","null","","","null","38","","","","","","","","","","","","","","","",""
"","ITI","","html-keyboard-response","255","348051","0.0-1.0-351.0","0","0","77322","","null","","","null","38","","","","","","","","","","","","","","","NaN",""
"","S1","","html-keyboard-response","256","348203","0.0-1.0-353.0","0","0","77322","","null","","","null","39","","","","","","","","","","","","","","","",""
"","ISI","","html-keyboard-response","257","350206","0.0-1.0-354.0","0","0","77322","","null","","","null","39","NaN","","","","","","","","","","","","","","",""
"","S2","","html-keyboard-response","258","350359","0.0-1.0-355.0","0","0","77322","","null","","","null","39","","NaN","","","","","","","","","","","","","",""
"","response","","html-keyboard-response","259","350682","0.0-1.0-356.0-0.0","0","0","77322","","320","","","75","39","","","1","39","training","adjacent","DE","4","5","Q.jpg","L.jpg","0","1","0","",""
"","feedback","","html-keyboard-response","260","351687","0.0-1.0-357.0-0.0","0","0","77322","","null","","","null","39","","","","","","","","","","","","","","","",""
"","time_out","","html-keyboard-response","261","353691","0.0-1.0-359.0-0.0","0","0","77322","","null","","","null","39","","","","","","","","","","","","","","","",""
"","ITI","","html-keyboard-response","262","354696","0.0-1.0-360.0","0","0","77322","","null","","","null","39","","","","","","","","","","","","","","","NaN",""
"","S1","","html-keyboard-response","263","354851","0.0-1.0-362.0","0","0","77322","","null","","","null","40","","","","","","","","","","","","","","","",""
"","ISI","","html-keyboard-response","264","356853","0.0-1.0-363.0","0","0","77322","","null","","","null","40","NaN","","","","","","","","","","","","","","",""
"","S2","","html-keyboard-response","265","357005","0.0-1.0-364.0","0","0","77322","","null","","","null","40","","NaN","","","","","","","","","","","","","",""
"","response","","html-keyboard-response","266","357163","0.0-1.0-365.0-0.0","0","0","77322","","157","","","68","40","","","1","40","training","adjacent","FE","6","5","P.jpg","L.jpg","1","0","0","",""
"","feedback","","html-keyboard-response","267","358166","0.0-1.0-366.0-0.0","0","0","77322","","null","","","null","40","","","","","","","","","","","","","","","",""
"","time_out","","html-keyboard-response","268","360168","0.0-1.0-368.0-0.0","0","0","77322","","null","","","null","40","","","","","","","","","","","","","","","",""
"","ITI","","html-keyboard-response","269","361172","0.0-1.0-369.0","0","0","77322","","null","","","null","40","","","","","","","","","","","","","","","NaN",""
"","S1","","html-keyboard-response","270","361327","0.0-1.0-371.0","0","0","77322","","null","","","null","41","","","","","","","","","","","","","","","",""
"","ISI","","html-keyboard-response","271","363331","0.0-1.0-372.0","0","0","77322","","null","","","null","41","NaN","","","","","","","","","","","","","","",""
"","S2","","html-keyboard-response","272","363486","0.0-1.0-373.0","0","0","77322","","null","","","null","41","","NaN","","","","","","","","","","","","","",""
"","response","","html-keyboard-response","273","363766","0.0-1.0-374.0-0.0","0","0","77322","","277","","","75","41","","","1","41","training","adjacent","AB","1","2","M.jpg","R.jpg","0","1","0","",""
"","feedback","","html-keyboard-response","274","364771","0.0-1.0-375.0-0.0","0","0","77322","","null","","","null","41","","","","","","","","","","","","","","","",""
"","time_out","","html-keyboard-response","275","366775","0.0-1.0-377.0-0.0","0","0","77322","","null","","","null","41","","","","","","","","","","","","","","","",""
"","ITI","","html-keyboard-response","276","367778","0.0-1.0-378.0","0","0","77322","","null","","","null","41","","","","","","","","","","","","","","","NaN",""
"","S1","","html-keyboard-response","277","367932","0.0-1.0-380.0","0","0","77322","","null","","","null","42","","","","","","","","","","","","","","","",""
"","ISI","","html-keyboard-response","278","369936","0.0-1.0-381.0","0","0","77322","","null","","","null","42","NaN","","","","","","","","","","","","","","",""
"","S2","","html-keyboard-response","279","370090","0.0-1.0-382.0","0","0","77322","","null","","","null","42","","NaN","","","","","","","","","","","","","",""
"","response","","html-keyboard-response","280","370400","0.0-1.0-383.0-0.0","0","0","77322","","309","","","68","42","","","1","42","training","adjacent","AB","1","2","M.jpg","R.jpg","1","1","1","",""
"","feedback","","html-keyboard-response","281","371404","0.0-1.0-384.0-0.0","0","0","77322","","null","","","null","42","","","","","","","","","","","","","","","",""
"","ITI","","html-keyboard-response","282","372408","0.0-1.0-387.0","0","0","77322","","null","","","null","42","","","","","","","","","","","","","","","NaN",""
"","S1","","html-keyboard-response","283","372561","0.0-1.0-389.0","0","0","77322","","null","","","null","43","","","","","","","","","","","","","","","",""
"","ISI","","html-keyboard-response","284","374564","0.0-1.0-390.0","0","0","77322","","null","","","null","43","NaN","","","","","","","","","","","","","","",""
"","S2","","html-keyboard-response","285","374718","0.0-1.0-391.0","0","0","77322","","null","","","null","43","","NaN","","","","","","","","","","","","","",""
"","response","","html-keyboard-response","286","375304","0.0-1.0-392.0-0.0","0","0","77322","","584","","","75","43","","","1","43","training","adjacent","BC","2","3","R.jpg","O.jpg","0","1","0","",""
"","feedback","","html-keyboard-response","287","376307","0.0-1.0-393.0-0.0","0","0","77322","","null","","","null","43","","","","","","","","","","","","","","","",""
"","time_out","","html-keyboard-response","288","378310","0.0-1.0-395.0-0.0","0","0","77322","","null","","","null","43","","","","","","","","","","","","","","","",""
"","ITI","","html-keyboard-response","289","379312","0.0-1.0-396.0","0","0","77322","","null","","","null","43","","","","","","","","","","","","","","","NaN",""
"","S1","","html-keyboard-response","290","379466","0.0-1.0-398.0","0","0","77322","","null","","","null","44","","","","","","","","","","","","","","","",""
"","ISI","","html-keyboard-response","291","381468","0.0-1.0-399.0","0","0","77322","","237","","","68","44","d","","","","","","","","","","","","","","",""
"","S2","","html-keyboard-response","292","381623","0.0-1.0-400.0","0","0","77322","","null","","","null","44","","NaN","","","","","","","","","","","","","",""
"","response","","html-keyboard-response","293","381775","0.0-1.0-401.0-0.0","0","0","77322","","150","","","68","44","","","1","44","training","adjacent","CD","3","4","O.jpg","Q.jpg","1","1","1","",""
"","feedback","","html-keyboard-response","294","382778","0.0-1.0-402.0-0.0","0","0","77322","","null","","","null","44","","","","","","","","","","","","","","","",""
"","ITI","","html-keyboard-response","295","383783","0.0-1.0-405.0","0","0","77322","","null","","","null","44","","","","","","","","","","","","","","","NaN",""
"","S1","","html-keyboard-response","296","383936","0.0-1.0-407.0","0","0","77322","","null","","","null","45","","","","","","","","","","","","","","","",""
"","ISI","","html-keyboard-response","297","385939","0.0-1.0-408.0","0","0","77322","","null","","","null","45","NaN","","","","","","","","","","","","","","",""
"","S2","","html-keyboard-response","298","386094","0.0-1.0-409.0","0","0","77322","","null","","","null","45","","NaN","","","","","","","","","","","","","",""
"","response","","html-keyboard-response","299","386388","0.0-1.0-410.0-0.0","0","0","77322","","292","","","75","45","","","1","45","training","adjacent","EF","5","6","L.jpg","P.jpg","0","1","0","",""
"","feedback","","html-keyboard-response","300","387391","0.0-1.0-411.0-0.0","0","0","77322","","null","","","null","45","","","","","","","","","","","","","","","",""
"","time_out","","html-keyboard-response","301","389393","0.0-1.0-413.0-0.0","0","0","77322","","null","","","null","45","","","","","","","","","","","","","","","",""
"","ITI","","html-keyboard-response","302","390396","0.0-1.0-414.0","0","0","77322","","null","","","null","45","","","","","","","","","","","","","","","NaN",""
"","S1","","html-keyboard-response","303","390549","0.0-1.0-416.0","0","0","77322","","null","","","null","46","","","","","","","","","","","","","","","",""
"","ISI","","html-keyboard-response","304","392552","0.0-1.0-417.0","0","0","77322","","null","","","null","46","NaN","","","","","","","","","","","","","","",""
"","S2","","html-keyboard-response","305","392705","0.0-1.0-418.0","0","0","77322","","null","","","null","46","","NaN","","","","","","","","","","","","","",""
"","response","","html-keyboard-response","306","393703","0.0-1.0-419.0-0.0","0","0","77322","","996","","","68","46","","","1","46","training","adjacent","DC","4","3","Q.jpg","O.jpg","1","0","0","",""
"","feedback","","html-keyboard-response","307","394703","0.0-1.0-420.0-0.0","0","0","77322","","null","","","null","46","","","","","","","","","","","","","","","",""
"","time_out","","html-keyboard-response","308","396705","0.0-1.0-422.0-0.0","0","0","77322","","null","","","null","46","","","","","","","","","","","","","","","",""
"","ITI","","html-keyboard-response","309","397708","0.0-1.0-423.0","0","0","77322","","null","","","null","46","","","","","","","","","","","","","","","NaN",""
"","S1","","html-keyboard-response","310","397861","0.0-1.0-425.0","0","0","77322","","null","","","null","47","","","","","","","","","","","","","","","",""
"","ISI","","html-keyboard-response","311","399864","0.0-1.0-426.0","0","0","77322","","null","","","null","47","NaN","","","","","","","","","","","","","","",""
"","S2","","html-keyboard-response","312","400017","0.0-1.0-427.0","0","0","77322","","null","","","null","47","","NaN","","","","","","","","","","","","","",""
"","response","","html-keyboard-response","313","400433","0.0-1.0-428.0-0.0","0","0","77322","","413","","","75","47","","","1","47","training","adjacent","FE","6","5","P.jpg","L.jpg","0","0","1","",""
"","feedback","","html-keyboard-response","314","401438","0.0-1.0-429.0-0.0","0","0","77322","","null","","","null","47","","","","","","","","","","","","","","","",""
"","ITI","","html-keyboard-response","315","402442","0.0-1.0-432.0","0","0","77322","","null","","","null","47","","","","","","","","","","","","","","","NaN",""
"","block_over","","html-keyboard-response","316","406749","0.0-1.0-433.0-0.0","0","0","77322","","4306","","","32","47","","","","","","","","","","","","","","","",""
"","S1","","html-keyboard-response","317","406901","0.0-1.0-434.0","0","0","77322","","null","","","null","48","","","","","","","","","","","","","","","",""
"","ISI","","html-keyboard-response","318","408904","0.0-1.0-435.0","0","0","77322","","null","","","null","48","NaN","","","","","","","","","","","","","","",""
"","S2","","html-keyboard-response","319","409059","0.0-1.0-436.0","0","0","77322","","null","","","null","48","","NaN","","","","","","","","","","","","","",""
"","response","","html-keyboard-response","320","409574","0.0-1.0-437.0-0.0","0","0","77322","","513","","","75","48","","","2","48","training","adjacent","FE","6","5","P.jpg","L.jpg","0","0","1","",""
"","feedback","","html-keyboard-response","321","410577","0.0-1.0-438.0-0.0","0","0","77322","","null","","","null","48","","","","","","","","","","","","","","","",""
"","ITI","","html-keyboard-response","322","411580","0.0-1.0-441.0","0","0","77322","","null","","","null","48","","","","","","","","","","","","","","","NaN",""
"","S1","","html-keyboard-response","323","411734","0.0-1.0-443.0","0","0","77322","","null","","","null","49","","","","","","","","","","","","","","","",""
"","ISI","","html-keyboard-response","324","413737","0.0-1.0-444.0","0","0","77322","","null","","","null","49","NaN","","","","","","","","","","","","","","",""
"","S2","","html-keyboard-response","325","413892","0.0-1.0-445.0","0","0","77322","","null","","","null","49","","NaN","","","","","","","","","","","","","",""
"","response","","html-keyboard-response","326","414064","0.0-1.0-446.0-0.0","0","0","77322","","169","","","75","49","","","2","49","training","adjacent","FE","6","5","P.jpg","L.jpg","0","0","1","",""
"","feedback","","html-keyboard-response","327","415068","0.0-1.0-447.0-0.0","0","0","77322","","null","","","null","49","","","","","","","","","","","","","","","",""
"","ITI","","html-keyboard-response","328","416073","0.0-1.0-450.0","0","0","77322","","null","","","null","49","","","","","","","","","","","","","","","NaN",""
"","S1","","html-keyboard-response","329","416228","0.0-1.0-452.0","0","0","77322","","null","","","null","50","","","","","","","","","","","","","","","",""
"","ISI","","html-keyboard-response","330","418232","0.0-1.0-453.0","0","0","77322","","null","","","null","50","NaN","","","","","","","","","","","","","","",""
"","S2","","html-keyboard-response","331","418387","0.0-1.0-454.0","0","0","77322","","null","","","null","50","","NaN","","","","","","","","","","","","","",""
"","response","","html-keyboard-response","332","418820","0.0-1.0-455.0-0.0","0","0","77322","","430","","","68","50","","","2","50","training","adjacent","AB","1","2","M.jpg","R.jpg","1","1","1","",""
"","feedback","","html-keyboard-response","333","419826","0.0-1.0-456.0-0.0","0","0","77322","","null","","","null","50","","","","","","","","","","","","","","","",""
"","ITI","","html-keyboard-response","334","420832","0.0-1.0-459.0","0","0","77322","","null","","","null","50","","","","","","","","","","","","","","","NaN",""
"","S1","","html-keyboard-response","335","420986","0.0-1.0-461.0","0","0","77322","","null","","","null","51","","","","","","","","","","","","","","","",""
"","ISI","","html-keyboard-response","336","422989","0.0-1.0-462.0","0","0","77322","","null","","","null","51","NaN","","","","","","","","","","","","","","",""
"","S2","","html-keyboard-response","337","423143","0.0-1.0-463.0","0","0","77322","","null","","","null","51","","NaN","","","","","","","","","","","","","",""
"","response","","html-keyboard-response","338","423425","0.0-1.0-464.0-0.0","0","0","77322","","281","","","75","51","","","2","51","training","adjacent","ED","5","4","L.jpg","Q.jpg","0","0","1","",""
"","feedback","","html-keyboard-response","339","424428","0.0-1.0-465.0-0.0","0","0","77322","","null","","","null","51","","","","","","","","","","","","","","","",""
"","ITI","","html-keyboard-response","340","425433","0.0-1.0-468.0","0","0","77322","","null","","","null","51","","","","","","","","","","","","","","","NaN",""
"","S1","","html-keyboard-response","341","425587","0.0-1.0-470.0","0","0","77322","","null","","","null","52","","","","","","","","","","","","","","","",""
"","ISI","","html-keyboard-response","342","427589","0.0-1.0-471.0","0","0","77322","","null","","","null","52","NaN","","","","","","","","","","","","","","",""
"","S2","","html-keyboard-response","343","427742","0.0-1.0-472.0","0","0","77322","","null","","","null","52","","NaN","","","","","","","","","","","","","",""
"","response","","html-keyboard-response","344","428084","0.0-1.0-473.0-0.0","0","0","77322","","340","","","68","52","","","2","52","training","adjacent","BA","2","1","R.jpg","M.jpg","1","0","0","",""
"","feedback","","html-keyboard-response","345","429089","0.0-1.0-474.0-0.0","0","0","77322","","null","","","null","52","","","","","","","","","","","","","","","",""
"","time_out","","html-keyboard-response","346","431094","0.0-1.0-476.0-0.0","0","0","77322","","null","","","null","52","","","","","","","","","","","","","","","",""
"","ITI","","html-keyboard-response","347","432098","0.0-1.0-477.0","0","0","77322","","null","","","null","52","","","","","","","","","","","","","","","NaN",""
"","S1","","html-keyboard-response","348","432253","0.0-1.0-479.0","0","0","77322","","null","","","null","53","","","","","","","","","","","","","","","",""
"","ISI","","html-keyboard-response","349","434257","0.0-1.0-480.0","0","0","77322","","null","","","null","53","NaN","","","","","","","","","","","","","","",""
"","S2","","html-keyboard-response","350","434412","0.0-1.0-481.0","0","0","77322","","null","","","null","53","","NaN","","","","","","","","","","","","","",""
"","response","","html-keyboard-response","351","434597","0.0-1.0-482.0-0.0","0","0","77322","","182","","","75","53","","","2","53","training","adjacent","EF","5","6","L.jpg","P.jpg","0","1","0","",""
"","feedback","","html-keyboard-response","352","435601","0.0-1.0-483.0-0.0","0","0","77322","","null","","","null","53","","","","","","","","","","","","","","","",""
"","time_out","","html-keyboard-response","353","437604","0.0-1.0-485.0-0.0","0","0","77322","","null","","","null","53","","","","","","","","","","","","","","","",""
"","ITI","","html-keyboard-response","354","438607","0.0-1.0-486.0","0","0","77322","","null","","","null","53","","","","","","","","","","","","","","","NaN",""
"","S1","","html-keyboard-response","355","438762","0.0-1.0-488.0","0","0","77322","","null","","","null","54","","","","","","","","","","","","","","","",""
"","ISI","","html-keyboard-response","356","440765","0.0-1.0-489.0","0","0","77322","","null","","","null","54","NaN","","","","","","","","","","","","","","",""
"","S2","","html-keyboard-response","357","440921","0.0-1.0-490.0","0","0","77322","","null","","","null","54","","NaN","","","","","","","","","","","","","",""
"","response","","html-keyboard-response","358","441229","0.0-1.0-491.0-0.0","0","0","77322","","304","","","68","54","","","2","54","training","adjacent","AB","1","2","M.jpg","R.jpg","1","1","1","",""
"","feedback","","html-keyboard-response","359","442235","0.0-1.0-492.0-0.0","0","0","77322","","null","","","null","54","","","","","","","","","","","","","","","",""
"","ITI","","html-keyboard-response","360","443239","0.0-1.0-495.0","0","0","77322","","null","","","null","54","","","","","","","","","","","","","","","NaN",""
"","S1","","html-keyboard-response","361","443394","0.0-1.0-497.0","0","0","77322","","null","","","null","55","","","","","","","","","","","","","","","",""
"","ISI","","html-keyboard-response","362","445398","0.0-1.0-498.0","0","0","77322","","null","","","null","55","NaN","","","","","","","","","","","","","","",""
"","S2","","html-keyboard-response","363","445552","0.0-1.0-499.0","0","0","77322","","null","","","null","55","","NaN","","","","","","","","","","","","","",""
"","response","","html-keyboard-response","364","445942","0.0-1.0-500.0-0.0","0","0","77322","","389","","","75","55","","","2","55","training","adjacent","DC","4","3","Q.jpg","O.jpg","0","0","1","",""
"","feedback","","html-keyboard-response","365","446946","0.0-1.0-501.0-0.0","0","0","77322","","null","","","null","55","","","","","","","","","","","","","","","",""
"","ITI","","html-keyboard-response","366","447950","0.0-1.0-504.0","0","0","77322","","null","","","null","55","","","","","","","","","","","","","","","NaN",""
"","S1","","html-keyboard-response","367","448104","0.0-1.0-506.0","0","0","77322","","null","","","null","56","","","","","","","","","","","","","","","",""
"","ISI","","html-keyboard-response","368","450108","0.0-1.0-507.0","0","0","77322","","null","","","null","56","NaN","","","","","","","","","","","","","","",""
"","S2","","html-keyboard-response","369","450263","0.0-1.0-508.0","0","0","77322","","null","","","null","56","","NaN","","","","","","","","","","","","","",""
"","response","","html-keyboard-response","370","450456","0.0-1.0-509.0-0.0","0","0","77322","","190","","","75","56","","","2","56","training","adjacent","DC","4","3","Q.jpg","O.jpg","0","0","1","",""
"","feedback","","html-keyboard-response","371","451461","0.0-1.0-510.0-0.0","0","0","77322","","null","","","null","56","","","","","","","","","","","","","","","",""
"","ITI","","html-keyboard-response","372","452466","0.0-1.0-513.0","0","0","77322","","null","","","null","56","","","","","","","","","","","","","","","NaN",""
"","S1","","html-keyboard-response","373","452621","0.0-1.0-515.0","0","0","77322","","null","","","null","57","","","","","","","","","","","","","","","",""
"","ISI","","html-keyboard-response","374","454625","0.0-1.0-516.0","0","0","77322","","null","","","null","57","NaN","","","","","","","","","","","","","","",""
"","S2","","html-keyboard-response","375","454778","0.0-1.0-517.0","0","0","77322","","null","","","null","57","","NaN","","","","","","","","","","","","","",""
"","response","","html-keyboard-response","376","455279","0.0-1.0-518.0-0.0","0","0","77322","","497","","","68","57","","","2","57","training","adjacent","CB","3","2","O.jpg","R.jpg","1","0","0","",""
"","feedback","","html-keyboard-response","377","456284","0.0-1.0-519.0-0.0","0","0","77322","","null","","","null","57","","","","","","","","","","","","","","","",""
"","time_out","","html-keyboard-response","378","458287","0.0-1.0-521.0-0.0","0","0","77322","","null","","","null","57","","","","","","","","","","","","","","","",""
"","ITI","","html-keyboard-response","379","459291","0.0-1.0-522.0","0","0","77322","","null","","","null","57","","","","","","","","","","","","","","","NaN",""
"","S1","","html-keyboard-response","380","459446","0.0-1.0-524.0","0","0","77322","","null","","","null","58","","","","","","","","","","","","","","","",""
"","ISI","","html-keyboard-response","381","461450","0.0-1.0-525.0","0","0","77322","","null","","","null","58","NaN","","","","","","","","","","","","","","",""
"","S2","","html-keyboard-response","382","461603","0.0-1.0-526.0","0","0","77322","","null","","","null","58","","NaN","","","","","","","","","","","","","",""
"","response","","html-keyboard-response","383","461882","0.0-1.0-527.0-0.0","0","0","77322","","275","","","75","58","","","2","58","training","adjacent","BC","2","3","R.jpg","O.jpg","0","1","0","",""
"","feedback","","html-keyboard-response","384","462887","0.0-1.0-528.0-0.0","0","0","77322","","null","","","null","58","","","","","","","","","","","","","","","",""
"","time_out","","html-keyboard-response","385","464891","0.0-1.0-530.0-0.0","0","0","77322","","null","","","null","58","","","","","","","","","","","","","","","",""
"","ITI","","html-keyboard-response","386","465894","0.0-1.0-531.0","0","0","77322","","null","","","null","58","","","","","","","","","","","","","","","NaN",""
"","S1","","html-keyboard-response","387","466047","0.0-1.0-533.0","0","0","77322","","null","","","null","59","","","","","","","","","","","","","","","",""
"","ISI","","html-keyboard-response","388","468050","0.0-1.0-534.0","0","0","77322","","254","","","68","59","d","","","","","","","","","","","","","","",""
"","S2","","html-keyboard-response","389","468205","0.0-1.0-535.0","0","0","77322","","null","","","null","59","","NaN","","","","","","","","","","","","","",""
"","response","","html-keyboard-response","390","468568","0.0-1.0-536.0-0.0","0","0","77322","","362","","","68","59","","","2","59","training","adjacent","BC","2","3","R.jpg","O.jpg","1","1","1","",""
"","feedback","","html-keyboard-response","391","469571","0.0-1.0-537.0-0.0","0","0","77322","","null","","","null","59","","","","","","","","","","","","","","","",""
"","ITI","","html-keyboard-response","392","470573","0.0-1.0-540.0","0","0","77322","","null","","","null","59","","","","","","","","","","","","","","","NaN",""
"","S1","","html-keyboard-response","393","470726","0.0-1.0-542.0","0","0","77322","","null","","","null","60","","","","","","","","","","","","","","","",""
"","ISI","","html-keyboard-response","394","472728","0.0-1.0-543.0","0","0","77322","","null","","","null","60","NaN","","","","","","","","","","","","","","",""
"","S2","","html-keyboard-response","395","472880","0.0-1.0-544.0","0","0","77322","","null","","","null","60","","NaN","","","","","","","","","","","","","",""
"","response","","html-keyboard-response","396","473159","0.0-1.0-545.0-0.0","0","0","77322","","277","","","68","60","","","2","60","training","adjacent","BA","2","1","R.jpg","M.jpg","1","0","0","",""
"","feedback","","html-keyboard-response","397","474164","0.0-1.0-546.0-0.0","0","0","77322","","null","","","null","60","","","","","","","","","","","","","","","",""
"","time_out","","html-keyboard-response","398","476166","0.0-1.0-548.0-0.0","0","0","77322","","null","","","null","60","","","","","","","","","","","","","","","",""
"","ITI","","html-keyboard-response","399","477170","0.0-1.0-549.0","0","0","77322","","null","","","null","60","","","","","","","","","","","","","","","NaN",""
"","S1","","html-keyboard-response","400","477324","0.0-1.0-551.0","0","0","77322","","null","","","null","61","","","","","","","","","","","","","","","",""
"","ISI","","html-keyboard-response","401","479329","0.0-1.0-552.0","0","0","77322","","null","","","null","61","NaN","","","","","","","","","","","","","","",""
"","S2","","html-keyboard-response","402","479484","0.0-1.0-553.0","0","0","77322","","null","","","null","61","","NaN","","","","","","","","","","","","","",""
"","response","","html-keyboard-response","403","479939","0.0-1.0-554.0-0.0","0","0","77322","","452","","","75","61","","","2","61","training","adjacent","BC","2","3","R.jpg","O.jpg","0","1","0","",""
"","feedback","","html-keyboard-response","404","480944","0.0-1.0-555.0-0.0","0","0","77322","","null","","","null","61","","","","","","","","","","","","","","","",""
"","time_out","","html-keyboard-response","405","482948","0.0-1.0-557.0-0.0","0","0","77322","","null","","","null","61","","","","","","","","","","","","","","","",""
"","ITI","","html-keyboard-response","406","483952","0.0-1.0-558.0","0","0","77322","","null","","","null","61","","","","","","","","","","","","","","","NaN",""
"","S1","","html-keyboard-response","407","484106","0.0-1.0-560.0","0","0","77322","","null","","","null","62","","","","","","","","","","","","","","","",""
"","ISI","","html-keyboard-response","408","486110","0.0-1.0-561.0","0","0","77322","","null","","","null","62","NaN","","","","","","","","","","","","","","",""
"","S2","","html-keyboard-response","409","486265","0.0-1.0-562.0","0","0","77322","","null","","","null","62","","NaN","","","","","","","","","","","","","",""
"","response","","html-keyboard-response","410","486595","0.0-1.0-563.0-0.0","0","0","77322","","327","","","75","62","","","2","62","training","adjacent","GF","7","6","N.jpg","P.jpg","0","0","1","",""
"","feedback","","html-keyboard-response","411","487600","0.0-1.0-564.0-0.0","0","0","77322","","null","","","null","62","","","","","","","","","","","","","","","",""
"","ITI","","html-keyboard-response","412","488605","0.0-1.0-567.0","0","0","77322","","null","","","null","62","","","","","","","","","","","","","","","NaN",""
"","S1","","html-keyboard-response","413","488759","0.0-1.0-569.0","0","0","77322","","null","","","null","63","","","","","","","","","","","","","","","",""
"","ISI","","html-keyboard-response","414","490764","0.0-1.0-570.0","0","0","77322","","null","","","null","63","NaN","","","","","","","","","","","","","","",""
"","S2","","html-keyboard-response","415","490919","0.0-1.0-571.0","0","0","77322","","null","","","null","63","","NaN","","","","","","","","","","","","","",""
"","response","","html-keyboard-response","416","491194","0.0-1.0-572.0-0.0","0","0","77322","","272","","","75","63","","","2","63","training","adjacent","DC","4","3","Q.jpg","O.jpg","0","0","1","",""
"","feedback","","html-keyboard-response","417","492199","0.0-1.0-573.0-0.0","0","0","77322","","null","","","null","63","","","","","","","","","","","","","","","",""
"","ITI","","html-keyboard-response","418","493203","0.0-1.0-576.0","0","0","77322","","null","","","null","63","","","","","","","","","","","","","","","NaN",""
"","S1","","html-keyboard-response","419","493357","0.0-1.0-578.0","0","0","77322","","null","","","null","64","","","","","","","","","","","","","","","",""
"","ISI","","html-keyboard-response","420","495360","0.0-1.0-579.0","0","0","77322","","null","","","null","64","NaN","","","","","","","","","","","","","","",""
"","S2","","html-keyboard-response","421","495512","0.0-1.0-580.0","0","0","77322","","null","","","null","64","","NaN","","","","","","","","","","","","","",""
"","response","","html-keyboard-response","422","495946","0.0-1.0-581.0-0.0","0","0","77322","","432","","","68","64","","","2","64","training","adjacent","CD","3","4","O.jpg","Q.jpg","1","1","1","",""
"","feedback","","html-keyboard-response","423","496950","0.0-1.0-582.0-0.0","0","0","77322","","null","","","null","64","","","","","","","","","","","","","","","",""
"","ITI","","html-keyboard-response","424","497954","0.0-1.0-585.0","0","0","77322","","null","","","null","64","","","","","","","","","","","","","","","NaN",""
"","S1","","html-keyboard-response","425","498109","0.0-1.0-587.0","0","0","77322","","null","","","null","65","","","","","","","","","","","","","","","",""
"","ISI","","html-keyboard-response","426","500111","0.0-1.0-588.0","0","0","77322","","null","","","null","65","NaN","","","","","","","","","","","","","","",""
"","S2","","html-keyboard-response","427","500265","0.0-1.0-589.0","0","0","77322","","null","","","null","65","","NaN","","","","","","","","","","","","","",""
"","response","","html-keyboard-response","428","500746","0.0-1.0-590.0-0.0","0","0","77322","","479","","","68","65","","","2","65","training","adjacent","CD","3","4","O.jpg","Q.jpg","1","1","1","",""
"","feedback","","html-keyboard-response","429","501751","0.0-1.0-591.0-0.0","0","0","77322","","null","","","null","65","","","","","","","","","","","","","","","",""
"","ITI","","html-keyboard-response","430","502756","0.0-1.0-594.0","0","0","77322","","null","","","null","65","","","","","","","","","","","","","","","NaN",""
"","S1","","html-keyboard-response","431","502909","0.0-1.0-596.0","0","0","77322","","null","","","null","66","","","","","","","","","","","","","","","",""
"","ISI","","html-keyboard-response","432","504912","0.0-1.0-597.0","0","0","77322","","null","","","null","66","NaN","","","","","","","","","","","","","","",""
"","S2","","html-keyboard-response","433","505067","0.0-1.0-598.0","0","0","77322","","null","","","null","66","","NaN","","","","","","","","","","","","","",""
"","response","","html-keyboard-response","434","505631","0.0-1.0-599.0-0.0","0","0","77322","","561","","","68","66","","","2","66","training","adjacent","EF","5","6","L.jpg","P.jpg","1","1","1","",""
"","feedback","","html-keyboard-response","435","506636","0.0-1.0-600.0-0.0","0","0","77322","","null","","","null","66","","","","","","","","","","","","","","","",""
"","ITI","","html-keyboard-response","436","507641","0.0-1.0-603.0","0","0","77322","","null","","","null","66","","","","","","","","","","","","","","","NaN",""
"","S1","","html-keyboard-response","437","507795","0.0-1.0-605.0","0","0","77322","","null","","","null","67","","","","","","","","","","","","","","","",""
"","ISI","","html-keyboard-response","438","509798","0.0-1.0-606.0","0","0","77322","","null","","","null","67","NaN","","","","","","","","","","","","","","",""
"","S2","","html-keyboard-response","439","509953","0.0-1.0-607.0","0","0","77322","","null","","","null","67","","NaN","","","","","","","","","","","","","",""
"","response","","html-keyboard-response","440","510327","0.0-1.0-608.0-0.0","0","0","77322","","372","","","68","67","","","2","67","training","adjacent","CD","3","4","O.jpg","Q.jpg","1","1","1","",""
"","feedback","","html-keyboard-response","441","511332","0.0-1.0-609.0-0.0","0","0","77322","","null","","","null","67","","","","","","","","","","","","","","","",""
"","ITI","","html-keyboard-response","442","512338","0.0-1.0-612.0","0","0","77322","","null","","","null","67","","","","","","","","","","","","","","","NaN",""
"","S1","","html-keyboard-response","443","512493","0.0-1.0-614.0","0","0","77322","","null","","","null","68","","","","","","","","","","","","","","","",""
"","ISI","","html-keyboard-response","444","514495","0.0-1.0-615.0","0","0","77322","","null","","","null","68","NaN","","","","","","","","","","","","","","",""
"","S2","","html-keyboard-response","445","514648","0.0-1.0-616.0","0","0","77322","","null","","","null","68","","NaN","","","","","","","","","","","","","",""
"","response","","html-keyboard-response","446","515131","0.0-1.0-617.0-0.0","0","0","77322","","481","","","68","68","","","2","68","training","adjacent","BA","2","1","R.jpg","M.jpg","1","0","0","",""
"","feedback","","html-keyboard-response","447","516135","0.0-1.0-618.0-0.0","0","0","77322","","null","","","null","68","","","","","","","","","","","","","","","",""
"","time_out","","html-keyboard-response","448","518138","0.0-1.0-620.0-0.0","0","0","77322","","null","","","null","68","","","","","","","","","","","","","","","",""
"","ITI","","html-keyboard-response","449","519140","0.0-1.0-621.0","0","0","77322","","null","","","null","68","","","","","","","","","","","","","","","NaN",""
"","S1","","html-keyboard-response","450","519293","0.0-1.0-623.0","0","0","77322","","null","","","null","69","","","","","","","","","","","","","","","",""
"","ISI","","html-keyboard-response","451","521297","0.0-1.0-624.0","0","0","77322","","null","","","null","69","NaN","","","","","","","","","","","","","","",""
"","S2","","html-keyboard-response","452","521452","0.0-1.0-625.0","0","0","77322","","null","","","null","69","","NaN","","","","","","","","","","","","","",""
"","response","","html-keyboard-response","453","521876","0.0-1.0-626.0-0.0","0","0","77322","","422","","","68","69","","","2","69","training","adjacent","FE","6","5","P.jpg","L.jpg","1","0","0","",""
"","feedback","","html-keyboard-response","454","522879","0.0-1.0-627.0-0.0","0","0","77322","","null","","","null","69","","","","","","","","","","","","","","","",""
"","time_out","","html-keyboard-response","455","524883","0.0-1.0-629.0-0.0","0","0","77322","","null","","","null","69","","","","","","","","","","","","","","","",""
"","ITI","","html-keyboard-response","456","525886","0.0-1.0-630.0","0","0","77322","","null","","","null","69","","","","","","","","","","","","","","","NaN",""
"","S1","","html-keyboard-response","457","526039","0.0-1.0-632.0","0","0","77322","","null","","","null","70","","","","","","","","","","","","","","","",""
"","ISI","","html-keyboard-response","458","528042","0.0-1.0-633.0","0","0","77322","","null","","","null","70","NaN","","","","","","","","","","","","","","",""
"","S2","","html-keyboard-response","459","528196","0.0-1.0-634.0","0","0","77322","","null","","","null","70","","NaN","","","","","","","","","","","","","",""
"","response","","html-keyboard-response","460","529136","0.0-1.0-635.0-0.0","0","0","77322","","938","","","68","70","","","2","70","training","adjacent","ED","5","4","L.jpg","Q.jpg","1","0","0","",""
"","feedback","","html-keyboard-response","461","530140","0.0-1.0-636.0-0.0","0","0","77322","","null","","","null","70","","","","","","","","","","","","","","","",""
"","time_out","","html-keyboard-response","462","532143","0.0-1.0-638.0-0.0","0","0","77322","","null","","","null","70","","","","","","","","","","","","","","","",""
"","ITI","","html-keyboard-response","463","533145","0.0-1.0-639.0","0","0","77322","","null","","","null","70","","","","","","","","","","","","","","","NaN",""
"","S1","","html-keyboard-response","464","533298","0.0-1.0-641.0","0","0","77322","","null","","","null","71","","","","","","","","","","","","","","","",""
"","ISI","","html-keyboard-response","465","535300","0.0-1.0-642.0","0","0","77322","","null","","","null","71","NaN","","","","","","","","","","","","","","",""
"","S2","","html-keyboard-response","466","535452","0.0-1.0-643.0","0","0","77322","","null","","","null","71","","NaN","","","","","","","","","","","","","",""
"","response","","html-keyboard-response","467","535898","0.0-1.0-644.0-0.0","0","0","77322","","443","","","75","71","","","2","71","training","adjacent","FG","6","7","P.jpg","N.jpg","0","1","0","",""
"","feedback","","html-keyboard-response","468","536902","0.0-1.0-645.0-0.0","0","0","77322","","null","","","null","71","","","","","","","","","","","","","","","",""
"","time_out","","html-keyboard-response","469","538904","0.0-1.0-647.0-0.0","0","0","77322","","null","","","null","71","","","","","","","","","","","","","","","",""
"","ITI","","html-keyboard-response","470","539908","0.0-1.0-648.0","0","0","77322","","null","","","null","71","","","","","","","","","","","","","","","NaN",""
"","S1","","html-keyboard-response","471","540061","0.0-1.0-650.0","0","0","77322","","null","","","null","72","","","","","","","","","","","","","","","",""
"","ISI","","html-keyboard-response","472","542062","0.0-1.0-651.0","0","0","77322","","null","","","null","72","NaN","","","","","","","","","","","","","","",""
"","S2","","html-keyboard-response","473","542214","0.0-1.0-652.0","0","0","77322","","null","","","null","72","","NaN","","","","","","","","","","","","","",""
"","response","","html-keyboard-response","474","542575","0.0-1.0-653.0-0.0","0","0","77322","","359","","","75","72","","","2","72","training","adjacent","DE","4","5","Q.jpg","L.jpg","0","1","0","",""
"","feedback","","html-keyboard-response","475","543579","0.0-1.0-654.0-0.0","0","0","77322","","null","","","null","72","","","","","","","","","","","","","","","",""
"","time_out","","html-keyboard-response","476","545582","0.0-1.0-656.0-0.0","0","0","77322","","null","","","null","72","","","","","","","","","","","","","","","",""
"","ITI","","html-keyboard-response","477","546584","0.0-1.0-657.0","0","0","77322","","null","","","null","72","","","","","","","","","","","","","","","NaN",""
"","S1","","html-keyboard-response","478","546737","0.0-1.0-659.0","0","0","77322","","null","","","null","73","","","","","","","","","","","","","","","",""
"","ISI","","html-keyboard-response","479","548739","0.0-1.0-660.0","0","0","77322","","null","","","null","73","NaN","","","","","","","","","","","","","","",""
"","S2","","html-keyboard-response","480","548893","0.0-1.0-661.0","0","0","77322","","null","","","null","73","","NaN","","","","","","","","","","","","","",""
"","response","","html-keyboard-response","481","549111","0.0-1.0-662.0-0.0","0","0","77322","","217","","","68","73","","","2","73","training","adjacent","BC","2","3","R.jpg","O.jpg","1","1","1","",""
"","feedback","","html-keyboard-response","482","550114","0.0-1.0-663.0-0.0","0","0","77322","","null","","","null","73","","","","","","","","","","","","","","","",""
"","ITI","","html-keyboard-response","483","551117","0.0-1.0-666.0","0","0","77322","","null","","","null","73","","","","","","","","","","","","","","","NaN",""
"","S1","","html-keyboard-response","484","551271","0.0-1.0-668.0","0","0","77322","","null","","","null","74","","","","","","","","","","","","","","","",""
"","ISI","","html-keyboard-response","485","553273","0.0-1.0-669.0","0","0","77322","","null","","","null","74","NaN","","","","","","","","","","","","","","",""
"","S2","","html-keyboard-response","486","553427","0.0-1.0-670.0","0","0","77322","","null","","","null","74","","NaN","","","","","","","","","","","","","",""
"","response","","html-keyboard-response","487","553999","0.0-1.0-671.0-0.0","0","0","77322","","571","","","68","74","","","2","74","training","adjacent","GF","7","6","N.jpg","P.jpg","1","0","0","",""
"","feedback","","html-keyboard-response","488","555001","0.0-1.0-672.0-0.0","0","0","77322","","null","","","null","74","","","","","","","","","","","","","","","",""
"","time_out","","html-keyboard-response","489","557005","0.0-1.0-674.0-0.0","0","0","77322","","null","","","null","74","","","","","","","","","","","","","","","",""
"","ITI","","html-keyboard-response","490","558008","0.0-1.0-675.0","0","0","77322","","null","","","null","74","","","","","","","","","","","","","","","NaN",""
"","S1","","html-keyboard-response","491","558164","0.0-1.0-677.0","0","0","77322","","null","","","null","75","","","","","","","","","","","","","","","",""
"","ISI","","html-keyboard-response","492","560167","0.0-1.0-678.0","0","0","77322","","null","","","null","75","NaN","","","","","","","","","","","","","","",""
"","S2","","html-keyboard-response","493","560320","0.0-1.0-679.0","0","0","77322","","null","","","null","75","","NaN","","","","","","","","","","","","","",""
"","response","","html-keyboard-response","494","560613","0.0-1.0-680.0-0.0","0","0","77322","","290","","","75","75","","","2","75","training","adjacent","DE","4","5","Q.jpg","L.jpg","0","1","0","",""
"","feedback","","html-keyboard-response","495","561619","0.0-1.0-681.0-0.0","0","0","77322","","null","","","null","75","","","","","","","","","","","","","","","",""
"","time_out","","html-keyboard-response","496","563622","0.0-1.0-683.0-0.0","0","0","77322","","null","","","null","75","","","","","","","","","","","","","","","",""
"","ITI","","html-keyboard-response","497","564627","0.0-1.0-684.0","0","0","77322","","null","","","null","75","","","","","","","","","","","","","","","NaN",""
"","S1","","html-keyboard-response","498","564781","0.0-1.0-686.0","0","0","77322","","null","","","null","76","","","","","","","","","","","","","","","",""
"","ISI","","html-keyboard-response","499","566785","0.0-1.0-687.0","0","0","77322","","null","","","null","76","NaN","","","","","","","","","","","","","","",""
"","S2","","html-keyboard-response","500","566940","0.0-1.0-688.0","0","0","77322","","null","","","null","76","","NaN","","","","","","","","","","","","","",""
"","response","","html-keyboard-response","501","567451","0.0-1.0-689.0-0.0","0","0","77322","","509","","","68","76","","","2","76","training","adjacent","EF","5","6","L.jpg","P.jpg","1","1","1","",""
"","feedback","","html-keyboard-response","502","568454","0.0-1.0-690.0-0.0","0","0","77322","","null","","","null","76","","","","","","","","","","","","","","","",""
"","ITI","","html-keyboard-response","503","569456","0.0-1.0-693.0","0","0","77322","","null","","","null","76","","","","","","","","","","","","","","","NaN",""
"","S1","","html-keyboard-response","504","569610","0.0-1.0-695.0","0","0","77322","","null","","","null","77","","","","","","","","","","","","","","","",""
"","ISI","","html-keyboard-response","505","571614","0.0-1.0-696.0","0","0","77322","","null","","","null","77","NaN","","","","","","","","","","","","","","",""
"","S2","","html-keyboard-response","506","571769","0.0-1.0-697.0","0","0","77322","","null","","","null","77","","NaN","","","","","","","","","","","","","",""
"","response","","html-keyboard-response","507","572195","0.0-1.0-698.0-0.0","0","0","77322","","424","","","75","77","","","2","77","training","adjacent","CB","3","2","O.jpg","R.jpg","0","0","1","",""
"","feedback","","html-keyboard-response","508","573199","0.0-1.0-699.0-0.0","0","0","77322","","null","","","null","77","","","","","","","","","","","","","","","",""
"","ITI","","html-keyboard-response","509","574204","0.0-1.0-702.0","0","0","77322","","null","","","null","77","","","","","","","","","","","","","","","NaN",""
"","S1","","html-keyboard-response","510","574359","0.0-1.0-704.0","0","0","77322","","null","","","null","78","","","","","","","","","","","","","","","",""
"","ISI","","html-keyboard-response","511","576363","0.0-1.0-705.0","0","0","77322","","null","","","null","78","NaN","","","","","","","","","","","","","","",""
"","S2","","html-keyboard-response","512","576518","0.0-1.0-706.0","0","0","77322","","null","","","null","78","","NaN","","","","","","","","","","","","","",""
"","response","","html-keyboard-response","513","576733","0.0-1.0-707.0-0.0","0","0","77322","","211","","","68","78","","","2","78","training","adjacent","DE","4","5","Q.jpg","L.jpg","1","1","1","",""
"","feedback","","html-keyboard-response","514","577739","0.0-1.0-708.0-0.0","0","0","77322","","null","","","null","78","","","","","","","","","","","","","","","",""
"","ITI","","html-keyboard-response","515","578743","0.0-1.0-711.0","0","0","77322","","null","","","null","78","","","","","","","","","","","","","","","NaN",""
"","S1","","html-keyboard-response","516","578898","0.0-1.0-713.0","0","0","77322","","null","","","null","79","","","","","","","","","","","","","","","",""
"","ISI","","html-keyboard-response","517","580903","0.0-1.0-714.0","0","0","77322","","null","","","null","79","NaN","","","","","","","","","","","","","","",""
"","S2","","html-keyboard-response","518","581059","0.0-1.0-715.0","0","0","77322","","null","","","null","79","","NaN","","","","","","","","","","","","","",""
"","response","","html-keyboard-response","519","581484","0.0-1.0-716.0-0.0","0","0","77322","","423","","","68","79","","","2","79","training","adjacent","CD","3","4","O.jpg","Q.jpg","1","1","1","",""
"","feedback","","html-keyboard-response","520","582487","0.0-1.0-717.0-0.0","0","0","77322","","null","","","null","79","","","","","","","","","","","","","","","",""
"","ITI","","html-keyboard-response","521","583492","0.0-1.0-720.0","0","0","77322","","null","","","null","79","","","","","","","","","","","","","","","NaN",""
"","S1","","html-keyboard-response","522","583646","0.0-1.0-722.0","0","0","77322","","null","","","null","80","","","","","","","","","","","","","","","",""
"","ISI","","html-keyboard-response","523","585650","0.0-1.0-723.0","0","0","77322","","null","","","null","80","NaN","","","","","","","","","","","","","","",""
"","S2","","html-keyboard-response","524","585805","0.0-1.0-724.0","0","0","77322","","null","","","null","80","","NaN","","","","","","","","","","","","","",""
"","response","","html-keyboard-response","525","586148","0.0-1.0-725.0-0.0","0","0","77322","","340","","","68","80","","","2","80","training","adjacent","FE","6","5","P.jpg","L.jpg","1","0","0","",""
"","feedback","","html-keyboard-response","526","587151","0.0-1.0-726.0-0.0","0","0","77322","","null","","","null","80","","","","","","","","","","","","","","","",""
"","time_out","","html-keyboard-response","527","589155","0.0-1.0-728.0-0.0","0","0","77322","","null","","","null","80","","","","","","","","","","","","","","","",""
"","ITI","","html-keyboard-response","528","590158","0.0-1.0-729.0","0","0","77322","","null","","","null","80","","","","","","","","","","","","","","","NaN",""
"","S1","","html-keyboard-response","529","590312","0.0-1.0-731.0","0","0","77322","","null","","","null","81","","","","","","","","","","","","","","","",""
"","ISI","","html-keyboard-response","530","592316","0.0-1.0-732.0","0","0","77322","","null","","","null","81","NaN","","","","","","","","","","","","","","",""
"","S2","","html-keyboard-response","531","592471","0.0-1.0-733.0","0","0","77322","","null","","","null","81","","NaN","","","","","","","","","","","","","",""
"","response","","html-keyboard-response","532","592862","0.0-1.0-734.0-0.0","0","0","77322","","389","","","75","81","","","2","81","training","adjacent","AB","1","2","M.jpg","R.jpg","0","1","0","",""
"","feedback","","html-keyboard-response","533","593866","0.0-1.0-735.0-0.0","0","0","77322","","null","","","null","81","","","","","","","","","","","","","","","",""
"","time_out","","html-keyboard-response","534","595871","0.0-1.0-737.0-0.0","0","0","77322","","null","","","null","81","","","","","","","","","","","","","","","",""
"","ITI","","html-keyboard-response","535","596874","0.0-1.0-738.0","0","0","77322","","null","","","null","81","","","","","","","","","","","","","","","NaN",""
"","S1","","html-keyboard-response","536","597030","0.0-1.0-740.0","0","0","77322","","null","","","null","82","","","","","","","","","","","","","","","",""
"","ISI","","html-keyboard-response","537","599032","0.0-1.0-741.0","0","0","77322","","null","","","null","82","NaN","","","","","","","","","","","","","","",""
"","S2","","html-keyboard-response","538","599186","0.0-1.0-742.0","0","0","77322","","null","","","null","82","","NaN","","","","","","","","","","","","","",""
"","response","","html-keyboard-response","539","599559","0.0-1.0-743.0-0.0","0","0","77322","","371","","","68","82","","","2","82","training","adjacent","DC","4","3","Q.jpg","O.jpg","1","0","0","",""
"","feedback","","html-keyboard-response","540","600561","0.0-1.0-744.0-0.0","0","0","77322","","null","","","null","82","","","","","","","","","","","","","","","",""
"","time_out","","html-keyboard-response","541","602566","0.0-1.0-746.0-0.0","0","0","77322","","null","","","null","82","","","","","","","","","","","","","","","",""
"","ITI","","html-keyboard-response","542","603570","0.0-1.0-747.0","0","0","77322","","null","","","null","82","","","","","","","","","","","","","","","NaN",""
"","S1","","html-keyboard-response","543","603723","0.0-1.0-749.0","0","0","77322","","null","","","null","83","","","","","","","","","","","","","","","",""
"","ISI","","html-keyboard-response","544","605725","0.0-1.0-750.0","0","0","77322","","null","","","null","83","NaN","","","","","","","","","","","","","","",""
"","S2","","html-keyboard-response","545","605879","0.0-1.0-751.0","0","0","77322","","null","","","null","83","","NaN","","","","","","","","","","","","","",""
"","response","","html-keyboard-response","546","606230","0.0-1.0-752.0-0.0","0","0","77322","","349","","","68","83","","","2","83","training","adjacent","DE","4","5","Q.jpg","L.jpg","1","1","1","",""
"","feedback","","html-keyboard-response","547","607232","0.0-1.0-753.0-0.0","0","0","77322","","null","","","null","83","","","","","","","","","","","","","","","",""
"","ITI","","html-keyboard-response","548","608235","0.0-1.0-756.0","0","0","77322","","null","","","null","83","","","","","","","","","","","","","","","NaN",""
"","S1","","html-keyboard-response","549","608390","0.0-1.0-758.0","0","0","77322","","null","","","null","84","","","","","","","","","","","","","","","",""
"","ISI","","html-keyboard-response","550","610394","0.0-1.0-759.0","0","0","77322","","null","","","null","84","NaN","","","","","","","","","","","","","","",""
"","S2","","html-keyboard-response","551","610547","0.0-1.0-760.0","0","0","77322","","null","","","null","84","","NaN","","","","","","","","","","","","","",""
"","response","","html-keyboard-response","552","611226","0.0-1.0-761.0-0.0","0","0","77322","","677","","","68","84","","","2","84","training","adjacent","FG","6","7","P.jpg","N.jpg","1","1","1","",""
"","feedback","","html-keyboard-response","553","612230","0.0-1.0-762.0-0.0","0","0","77322","","null","","","null","84","","","","","","","","","","","","","","","",""
"","ITI","","html-keyboard-response","554","613234","0.0-1.0-765.0","0","0","77322","","null","","","null","84","","","","","","","","","","","","","","","NaN",""
"","S1","","html-keyboard-response","555","613388","0.0-1.0-767.0","0","0","77322","","null","","","null","85","","","","","","","","","","","","","","","",""
"","ISI","","html-keyboard-response","556","615392","0.0-1.0-768.0","0","0","77322","","null","","","null","85","NaN","","","","","","","","","","","","","","",""
"","S2","","html-keyboard-response","557","615543","0.0-1.0-769.0","0","0","77322","","null","","","null","85","","NaN","","","","","","","","","","","","","",""
"","response","","html-keyboard-response","558","616111","0.0-1.0-770.0-0.0","0","0","77322","","566","","","68","85","","","2","85","training","adjacent","FG","6","7","P.jpg","N.jpg","1","1","1","",""
"","feedback","","html-keyboard-response","559","617113","0.0-1.0-771.0-0.0","0","0","77322","","null","","","null","85","","","","","","","","","","","","","","","",""
"","ITI","","html-keyboard-response","560","618115","0.0-1.0-774.0","0","0","77322","","null","","","null","85","","","","","","","","","","","","","","","NaN",""
"","S1","","html-keyboard-response","561","618268","0.0-1.0-776.0","0","0","77322","","null","","","null","86","","","","","","","","","","","","","","","",""
"","ISI","","html-keyboard-response","562","620272","0.0-1.0-777.0","0","0","77322","","null","","","null","86","NaN","","","","","","","","","","","","","","",""
"","S2","","html-keyboard-response","563","620427","0.0-1.0-778.0","0","0","77322","","null","","","null","86","","NaN","","","","","","","","","","","","","",""
"","response","","html-keyboard-response","564","620905","0.0-1.0-779.0-0.0","0","0","77322","","475","","","75","86","","","2","86","training","adjacent","GF","7","6","N.jpg","P.jpg","0","0","1","",""
"","feedback","","html-keyboard-response","565","621911","0.0-1.0-780.0-0.0","0","0","77322","","null","","","null","86","","","","","","","","","","","","","","","",""
"","ITI","","html-keyboard-response","566","622916","0.0-1.0-783.0","0","0","77322","","null","","","null","86","","","","","","","","","","","","","","","NaN",""
"","S1","","html-keyboard-response","567","623070","0.0-1.0-785.0","0","0","77322","","null","","","null","87","","","","","","","","","","","","","","","",""
"","ISI","","html-keyboard-response","568","625074","0.0-1.0-786.0","0","0","77322","","null","","","null","87","NaN","","","","","","","","","","","","","","",""
"","S2","","html-keyboard-response","569","625227","0.0-1.0-787.0","0","0","77322","","null","","","null","87","","NaN","","","","","","","","","","","","","",""
"","response","","html-keyboard-response","570","625530","0.0-1.0-788.0-0.0","0","0","77322","","301","","","68","87","","","2","87","training","adjacent","GF","7","6","N.jpg","P.jpg","1","0","0","",""
"","feedback","","html-keyboard-response","571","626534","0.0-1.0-789.0-0.0","0","0","77322","","null","","","null","87","","","","","","","","","","","","","","","",""
"","time_out","","html-keyboard-response","572","628538","0.0-1.0-791.0-0.0","0","0","77322","","null","","","null","87","","","","","","","","","","","","","","","",""
"","ITI","","html-keyboard-response","573","629540","0.0-1.0-792.0","0","0","77322","","null","","","null","87","","","","","","","","","","","","","","","NaN",""
"","S1","","html-keyboard-response","574","629694","0.0-1.0-794.0","0","0","77322","","null","","","null","88","","","","","","","","","","","","","","","",""
"","ISI","","html-keyboard-response","575","631698","0.0-1.0-795.0","0","0","77322","","null","","","null","88","NaN","","","","","","","","","","","","","","",""
"","S2","","html-keyboard-response","576","631853","0.0-1.0-796.0","0","0","77322","","null","","","null","88","","NaN","","","","","","","","","","","","","",""
"","response","","html-keyboard-response","577","632206","0.0-1.0-797.0-0.0","0","0","77322","","350","","","75","88","","","2","88","training","adjacent","ED","5","4","L.jpg","Q.jpg","0","0","1","",""
"","feedback","","html-keyboard-response","578","633212","0.0-1.0-798.0-0.0","0","0","77322","","null","","","null","88","","","","","","","","","","","","","","","",""
"","ITI","","html-keyboard-response","579","634216","0.0-1.0-801.0","0","0","77322","","null","","","null","88","","","","","","","","","","","","","","","NaN",""
"","S1","","html-keyboard-response","580","634369","0.0-1.0-803.0","0","0","77322","","null","","","null","89","","","","","","","","","","","","","","","",""
"","ISI","","html-keyboard-response","581","636371","0.0-1.0-804.0","0","0","77322","","null","","","null","89","NaN","","","","","","","","","","","","","","",""
"","S2","","html-keyboard-response","582","636524","0.0-1.0-805.0","0","0","77322","","null","","","null","89","","NaN","","","","","","","","","","","","","",""
