"success","ttype","start_time","trial_type","trial_index","time_elapsed","internal_node_id","warning","missed_checkup","PID","view_history","rt","responses","repeat_instructions","key_press","index","keypress_isi","keypress_S2","block","trial_num","phase","group_type","pair_type","S1_stim","S2_stim","S1_img","S2_img","S1_chosen","S1_higher","accuracy","keypress_iti","total_bonus_tally"
"true","full_screen","d04142023hr1433","fullscreen","0","32374","0.0-0.0","0","0","35180","","","","","","","","","","","","","","","","","","","","","",""
"","instructions","","instructions","1","335691","0.0-1.0-0.0-0.0","0","0","35180","[{""page_index"":0,""viewing_time"":14891},{""page_index"":1,""viewing_time"":244236},{""page_index"":2,""viewing_time"":41712},{""page_index"":3,""viewing_time"":2476}]","303315","","","","","","","","","","","","","","","","","","","",""
"","comprehension_check","","survey-multi-choice","2","379203","0.0-1.0-0.0-1.0","0","0","35180","","43508","{""Q0"":""True"",""Q1"":""D"",""Q2"":""Once the second image appears and while the screen 'MAKE A CHOICE' is shown"",""Q3"":""Green mark"",""Q4"":""either D or K""}","0","","","","","","","","","","","","","","","","","",""
"","start_exp","","html-keyboard-response","3","381959","0.0-1.0-1.0","0","0","35180","","2753","","","32","","","","","","","","","","","","","","","","",""
"","S1","","html-keyboard-response","4","382223","0.0-1.0-2.0","0","0","35180","","null","","","null","0","","","","","","","","","","","","","","","",""
"","ISI","","html-keyboard-response","5","383233","0.0-1.0-3.0","0","0","35180","","null","","","null","0","NaN","","","","","","","","","","","","","","",""
"","S2","","html-keyboard-response","6","383489","0.0-1.0-4.0","0","0","35180","","null","","","null","0","","NaN","","","","","","","","","","","","","",""
"","response","","html-keyboard-response","7","384351","0.0-1.0-5.0-0.0","0","0","35180","","857","","","75","0","","","1","0","training","adjacent","ED","5","4","L.jpg","P.jpg","0","0","1","",""
"","feedback","","html-keyboard-response","8","385361","0.0-1.0-6.0-0.0","0","0","35180","","null","","","null","0","","","","","","","","","","","","","","","",""
"","ITI","","html-keyboard-response","9","386373","0.0-1.0-9.0","0","0","35180","","null","","","null","0","","","","","","","","","","","","","","","NaN",""
"","S1","","html-keyboard-response","10","386632","0.0-1.0-11.0","0","0","35180","","null","","","null","1","","","","","","","","","","","","","","","",""
"","ISI","","html-keyboard-response","11","387636","0.0-1.0-12.0","0","0","35180","","null","","","null","1","NaN","","","","","","","","","","","","","","",""
"","S2","","html-keyboard-response","12","387894","0.0-1.0-13.0","0","0","35180","","null","","","null","1","","NaN","","","","","","","","","","","","","",""
"","response","","html-keyboard-response","13","388546","0.0-1.0-14.0-0.0","0","0","35180","","649","","","68","1","","","1","1","training","adjacent","FG","6","7","N.jpg","O.jpg","1","1","1","",""
"","feedback","","html-keyboard-response","14","389549","0.0-1.0-15.0-0.0","0","0","35180","","null","","","null","1","","","","","","","","","","","","","","","",""
"","ITI","","html-keyboard-response","15","390562","0.0-1.0-18.0","0","0","35180","","null","","","null","1","","","","","","","","","","","","","","","NaN",""
"","S1","","html-keyboard-response","16","390820","0.0-1.0-20.0","0","0","35180","","null","","","null","2","","","","","","","","","","","","","","","",""
"","ISI","","html-keyboard-response","17","391833","0.0-1.0-21.0","0","0","35180","","null","","","null","2","NaN","","","","","","","","","","","","","","",""
"","S2","","html-keyboard-response","18","392091","0.0-1.0-22.0","0","0","35180","","null","","","null","2","","NaN","","","","","","","","","","","","","",""
"","response","","html-keyboard-response","19","393320","0.0-1.0-23.0-0.0","0","0","35180","","1225","","","75","2","","","1","2","training","adjacent","EF","5","6","L.jpg","N.jpg","0","1","0","",""
"","feedback","","html-keyboard-response","20","394330","0.0-1.0-24.0-0.0","0","0","35180","","null","","","null","2","","","","","","","","","","","","","","","",""
"","time_out","","html-keyboard-response","21","396336","0.0-1.0-26.0-0.0","0","0","35180","","null","","","null","2","","","","","","","","","","","","","","","",""
"","ITI","","html-keyboard-response","22","397356","0.0-1.0-27.0","0","0","35180","","null","","","null","2","","","","","","","","","","","","","","","NaN",""
"","S1","","html-keyboard-response","23","397613","0.0-1.0-29.0","0","0","35180","","null","","","null","3","","","","","","","","","","","","","","","",""
"","ISI","","html-keyboard-response","24","398622","0.0-1.0-30.0","0","0","35180","","null","","","null","3","NaN","","","","","","","","","","","","","","",""
"","S2","","html-keyboard-response","25","398884","0.0-1.0-31.0","0","0","35180","","null","","","null","3","","NaN","","","","","","","","","","","","","",""
"","response","","html-keyboard-response","26","399825","0.0-1.0-32.0-0.0","0","0","35180","","939","","","68","3","","","1","3","training","adjacent","FG","6","7","N.jpg","O.jpg","1","1","1","",""
"","feedback","","html-keyboard-response","27","400833","0.0-1.0-33.0-0.0","0","0","35180","","null","","","null","3","","","","","","","","","","","","","","","",""
"","ITI","","html-keyboard-response","28","401844","0.0-1.0-36.0","0","0","35180","","null","","","null","3","","","","","","","","","","","","","","","NaN",""
"","S1","","html-keyboard-response","29","402104","0.0-1.0-38.0","0","0","35180","","null","","","null","4","","","","","","","","","","","","","","","",""
"","ISI","","html-keyboard-response","30","403111","0.0-1.0-39.0","0","0","35180","","null","","","null","4","NaN","","","","","","","","","","","","","","",""
"","S2","","html-keyboard-response","31","403371","0.0-1.0-40.0","0","0","35180","","null","","","null","4","","NaN","","","","","","","","","","","","","",""
"","response","","html-keyboard-response","32","404557","0.0-1.0-41.0-0.0","0","0","35180","","1182","","","75","4","","","1","4","training","adjacent","DE","4","5","P.jpg","L.jpg","0","1","0","",""
"","feedback","","html-keyboard-response","33","405567","0.0-1.0-42.0-0.0","0","0","35180","","null","","","null","4","","","","","","","","","","","","","","","",""
"","time_out","","html-keyboard-response","34","407581","0.0-1.0-44.0-0.0","0","0","35180","","null","","","null","4","","","","","","","","","","","","","","","",""
"","ITI","","html-keyboard-response","35","408592","0.0-1.0-45.0","0","0","35180","","null","","","null","4","","","","","","","","","","","","","","","NaN",""
"","S1","","html-keyboard-response","36","408851","0.0-1.0-47.0","0","0","35180","","null","","","null","5","","","","","","","","","","","","","","","",""
"","ISI","","html-keyboard-response","37","409858","0.0-1.0-48.0","0","0","35180","","null","","","null","5","NaN","","","","","","","","","","","","","","",""
"","S2","","html-keyboard-response","38","410120","0.0-1.0-49.0","0","0","35180","","null","","","null","5","","NaN","","","","","","","","","","","","","",""
"","response","","html-keyboard-response","39","411250","0.0-1.0-50.0-0.0","0","0","35180","","1126","","","68","5","","","1","5","training","adjacent","GF","7","6","O.jpg","N.jpg","1","0","0","",""
"","feedback","","html-keyboard-response","40","412254","0.0-1.0-51.0-0.0","0","0","35180","","null","","","null","5","","","","","","","","","","","","","","","",""
"","time_out","","html-keyboard-response","41","414268","0.0-1.0-53.0-0.0","0","0","35180","","null","","","null","5","","","","","","","","","","","","","","","",""
"","ITI","","html-keyboard-response","42","415271","0.0-1.0-54.0","0","0","35180","","null","","","null","5","","","","","","","","","","","","","","","NaN",""
"","S1","","html-keyboard-response","43","415525","0.0-1.0-56.0","0","0","35180","","null","","","null","6","","","","","","","","","","","","","","","",""
"","ISI","","html-keyboard-response","44","416534","0.0-1.0-57.0","0","0","35180","","null","","","null","6","NaN","","","","","","","","","","","","","","",""
"","S2","","html-keyboard-response","45","416792","0.0-1.0-58.0","0","0","35180","","null","","","null","6","","NaN","","","","","","","","","","","","","",""
"","response","","html-keyboard-response","46","417689","0.0-1.0-59.0-0.0","0","0","35180","","894","","","75","6","","","1","6","training","adjacent","DE","4","5","P.jpg","L.jpg","0","1","0","",""
"","feedback","","html-keyboard-response","47","418694","0.0-1.0-60.0-0.0","0","0","35180","","null","","","null","6","","","","","","","","","","","","","","","",""
"","time_out","","html-keyboard-response","48","420701","0.0-1.0-62.0-0.0","0","0","35180","","null","","","null","6","","","","","","","","","","","","","","","",""
"","ITI","","html-keyboard-response","49","421706","0.0-1.0-63.0","0","0","35180","","null","","","null","6","","","","","","","","","","","","","","","NaN",""
"","S1","","html-keyboard-response","50","421961","0.0-1.0-65.0","0","0","35180","","null","","","null","7","","","","","","","","","","","","","","","",""
"","ISI","","html-keyboard-response","51","422970","0.0-1.0-66.0","0","0","35180","","null","","","null","7","NaN","","","","","","","","","","","","","","",""
"","S2","","html-keyboard-response","52","423233","0.0-1.0-67.0","0","0","35180","","null","","","null","7","","NaN","","","","","","","","","","","","","",""
"","response","","html-keyboard-response","53","424029","0.0-1.0-68.0-0.0","0","0","35180","","793","","","68","7","","","1","7","training","adjacent","EF","5","6","L.jpg","N.jpg","1","1","1","",""
"","feedback","","html-keyboard-response","54","425040","0.0-1.0-69.0-0.0","0","0","35180","","null","","","null","7","","","","","","","","","","","","","","","",""
"","ITI","","html-keyboard-response","55","426051","0.0-1.0-72.0","0","0","35180","","null","","","null","7","","","","","","","","","","","","","","","NaN",""
"","S1","","html-keyboard-response","56","426311","0.0-1.0-74.0","0","0","35180","","null","","","null","8","","","","","","","","","","","","","","","",""
"","ISI","","html-keyboard-response","57","427318","0.0-1.0-75.0","0","0","35180","","null","","","null","8","NaN","","","","","","","","","","","","","","",""
"","S2","","html-keyboard-response","58","427572","0.0-1.0-76.0","0","0","35180","","null","","","null","8","","NaN","","","","","","","","","","","","","",""
"","response","","html-keyboard-response","59","428436","0.0-1.0-77.0-0.0","0","0","35180","","860","","","68","8","","","1","8","training","adjacent","DC","4","3","P.jpg","Q.jpg","1","0","0","",""
"","feedback","","html-keyboard-response","60","429440","0.0-1.0-78.0-0.0","0","0","35180","","null","","","null","8","","","","","","","","","","","","","","","",""
"","time_out","","html-keyboard-response","61","431454","0.0-1.0-80.0-0.0","0","0","35180","","null","","","null","8","","","","","","","","","","","","","","","",""
"","ITI","","html-keyboard-response","62","432462","0.0-1.0-81.0","0","0","35180","","null","","","null","8","","","","","","","","","","","","","","","NaN",""
"","S1","","html-keyboard-response","63","432720","0.0-1.0-83.0","0","0","35180","","null","","","null","9","","","","","","","","","","","","","","","",""
"","ISI","","html-keyboard-response","64","433729","0.0-1.0-84.0","0","0","35180","","null","","","null","9","NaN","","","","","","","","","","","","","","",""
"","S2","","html-keyboard-response","65","433983","0.0-1.0-85.0","0","0","35180","","null","","","null","9","","NaN","","","","","","","","","","","","","",""
"","response","","html-keyboard-response","66","434861","0.0-1.0-86.0-0.0","0","0","35180","","874","","","75","9","","","1","9","training","adjacent","CB","3","2","Q.jpg","R.jpg","0","0","1","",""
"","feedback","","html-keyboard-response","67","435881","0.0-1.0-87.0-0.0","0","0","35180","","null","","","null","9","","","","","","","","","","","","","","","",""
"","ITI","","html-keyboard-response","68","436891","0.0-1.0-90.0","0","0","35180","","null","","","null","9","","","","","","","","","","","","","","","NaN",""
"","S1","","html-keyboard-response","69","437150","0.0-1.0-92.0","0","0","35180","","null","","","null","10","","","","","","","","","","","","","","","",""
"","ISI","","html-keyboard-response","70","438162","0.0-1.0-93.0","0","0","35180","","null","","","null","10","NaN","","","","","","","","","","","","","","",""
"","S2","","html-keyboard-response","71","438420","0.0-1.0-94.0","0","0","35180","","null","","","null","10","","NaN","","","","","","","","","","","","","",""
"","response","","html-keyboard-response","72","439320","0.0-1.0-95.0-0.0","0","0","35180","","896","","","68","10","","","1","10","training","adjacent","BA","2","1","R.jpg","M.jpg","1","0","0","",""
"","feedback","","html-keyboard-response","73","440333","0.0-1.0-96.0-0.0","0","0","35180","","null","","","null","10","","","","","","","","","","","","","","","",""
"","time_out","","html-keyboard-response","74","442344","0.0-1.0-98.0-0.0","0","0","35180","","null","","","null","10","","","","","","","","","","","","","","","",""
"","ITI","","html-keyboard-response","75","443351","0.0-1.0-99.0","0","0","35180","","null","","","null","10","","","","","","","","","","","","","","","NaN",""
"","S1","","html-keyboard-response","76","443611","0.0-1.0-101.0","0","0","35180","","null","","","null","11","","","","","","","","","","","","","","","",""
"","ISI","","html-keyboard-response","77","444622","0.0-1.0-102.0","0","0","35180","","null","","","null","11","NaN","","","","","","","","","","","","","","",""
"","S2","","html-keyboard-response","78","444880","0.0-1.0-103.0","0","0","35180","","null","","","null","11","","NaN","","","","","","","","","","","","","",""
"","response","","html-keyboard-response","79","445643","0.0-1.0-104.0-0.0","0","0","35180","","760","","","68","11","","","1","11","training","adjacent","DC","4","3","P.jpg","Q.jpg","1","0","0","",""
"","feedback","","html-keyboard-response","80","446650","0.0-1.0-105.0-0.0","0","0","35180","","null","","","null","11","","","","","","","","","","","","","","","",""
"","time_out","","html-keyboard-response","81","448659","0.0-1.0-107.0-0.0","0","0","35180","","null","","","null","11","","","","","","","","","","","","","","","",""
"","ITI","","html-keyboard-response","82","449671","0.0-1.0-108.0","0","0","35180","","null","","","null","11","","","","","","","","","","","","","","","NaN",""
"","S1","","html-keyboard-response","83","449925","0.0-1.0-110.0","0","0","35180","","null","","","null","12","","","","","","","","","","","","","","","",""
"","ISI","","html-keyboard-response","84","450932","0.0-1.0-111.0","0","0","35180","","null","","","null","12","NaN","","","","","","","","","","","","","","",""
"","S2","","html-keyboard-response","85","451196","0.0-1.0-112.0","0","0","35180","","null","","","null","12","","NaN","","","","","","","","","","","","","",""
"","response","","html-keyboard-response","86","452285","0.0-1.0-113.0-0.0","0","0","35180","","1085","","","75","12","","","1","12","training","adjacent","AB","1","2","M.jpg","R.jpg","0","1","0","",""
"","feedback","","html-keyboard-response","87","453293","0.0-1.0-114.0-0.0","0","0","35180","","null","","","null","12","","","","","","","","","","","","","","","",""
"","time_out","","html-keyboard-response","88","455306","0.0-1.0-116.0-0.0","0","0","35180","","null","","","null","12","","","","","","","","","","","","","","","",""
"","ITI","","html-keyboard-response","89","456311","0.0-1.0-117.0","0","0","35180","","null","","","null","12","","","","","","","","","","","","","","","NaN",""
"","S1","","html-keyboard-response","90","456568","0.0-1.0-119.0","0","0","35180","","null","","","null","13","","","","","","","","","","","","","","","",""
"","ISI","","html-keyboard-response","91","457573","0.0-1.0-120.0","0","0","35180","","null","","","null","13","NaN","","","","","","","","","","","","","","",""
"","S2","","html-keyboard-response","92","457835","0.0-1.0-121.0","0","0","35180","","null","","","null","13","","NaN","","","","","","","","","","","","","",""
"","response","","html-keyboard-response","93","458625","0.0-1.0-122.0-0.0","0","0","35180","","786","","","75","13","","","1","13","training","adjacent","DE","4","5","P.jpg","L.jpg","0","1","0","",""
"","feedback","","html-keyboard-response","94","459634","0.0-1.0-123.0-0.0","0","0","35180","","null","","","null","13","","","","","","","","","","","","","","","",""
"","time_out","","html-keyboard-response","95","461638","0.0-1.0-125.0-0.0","0","0","35180","","null","","","null","13","","","","","","","","","","","","","","","",""
"","ITI","","html-keyboard-response","96","462644","0.0-1.0-126.0","0","0","35180","","null","","","null","13","","","","","","","","","","","","","","","NaN",""
"","S1","","html-keyboard-response","97","462901","0.0-1.0-128.0","0","0","35180","","null","","","null","14","","","","","","","","","","","","","","","",""
"","ISI","","html-keyboard-response","98","463913","0.0-1.0-129.0","0","0","35180","","null","","","null","14","NaN","","","","","","","","","","","","","","",""
"","S2","","html-keyboard-response","99","464168","0.0-1.0-130.0","0","0","35180","","null","","","null","14","","NaN","","","","","","","","","","","","","",""
"","response","","html-keyboard-response","100","465599","0.0-1.0-131.0-0.0","0","0","35180","","1428","","","68","14","","","1","14","training","adjacent","FG","6","7","N.jpg","O.jpg","1","1","1","",""
"","feedback","","html-keyboard-response","101","466604","0.0-1.0-132.0-0.0","0","0","35180","","null","","","null","14","","","","","","","","","","","","","","","",""
"","ITI","","html-keyboard-response","102","467608","0.0-1.0-135.0","0","0","35180","","null","","","null","14","","","","","","","","","","","","","","","NaN",""
"","S1","","html-keyboard-response","103","467864","0.0-1.0-137.0","0","0","35180","","null","","","null","15","","","","","","","","","","","","","","","",""
"","ISI","","html-keyboard-response","104","468873","0.0-1.0-138.0","0","0","35180","","null","","","null","15","NaN","","","","","","","","","","","","","","",""
"","S2","","html-keyboard-response","105","469128","0.0-1.0-139.0","0","0","35180","","null","","","null","15","","NaN","","","","","","","","","","","","","",""
"","response","","html-keyboard-response","106","470251","0.0-1.0-140.0-0.0","0","0","35180","","1120","","","75","15","","","1","15","training","adjacent","BC","2","3","R.jpg","Q.jpg","0","1","0","",""
"","feedback","","html-keyboard-response","107","471261","0.0-1.0-141.0-0.0","0","0","35180","","null","","","null","15","","","","","","","","","","","","","","","",""
"","time_out","","html-keyboard-response","108","473273","0.0-1.0-143.0-0.0","0","0","35180","","null","","","null","15","","","","","","","","","","","","","","","",""
"","ITI","","html-keyboard-response","109","474281","0.0-1.0-144.0","0","0","35180","","null","","","null","15","","","","","","","","","","","","","","","NaN",""
"","S1","","html-keyboard-response","110","474543","0.0-1.0-146.0","0","0","35180","","null","","","null","16","","","","","","","","","","","","","","","",""
"","ISI","","html-keyboard-response","111","475553","0.0-1.0-147.0","0","0","35180","","null","","","null","16","NaN","","","","","","","","","","","","","","",""
"","S2","","html-keyboard-response","112","475813","0.0-1.0-148.0","0","0","35180","","null","","","null","16","","NaN","","","","","","","","","","","","","",""
"","response","","html-keyboard-response","113","476654","0.0-1.0-149.0-0.0","0","0","35180","","837","","","68","16","","","1","16","training","adjacent","CB","3","2","Q.jpg","R.jpg","1","0","0","",""
"","feedback","","html-keyboard-response","114","477663","0.0-1.0-150.0-0.0","0","0","35180","","null","","","null","16","","","","","","","","","","","","","","","",""
"","time_out","","html-keyboard-response","115","479675","0.0-1.0-152.0-0.0","0","0","35180","","null","","","null","16","","","","","","","","","","","","","","","",""
"","ITI","","html-keyboard-response","116","480686","0.0-1.0-153.0","0","0","35180","","null","","","null","16","","","","","","","","","","","","","","","NaN",""
"","S1","","html-keyboard-response","117","480945","0.0-1.0-155.0","0","0","35180","","null","","","null","17","","","","","","","","","","","","","","","",""
"","ISI","","html-keyboard-response","118","481949","0.0-1.0-156.0","0","0","35180","","null","","","null","17","NaN","","","","","","","","","","","","","","",""
"","S2","","html-keyboard-response","119","482207","0.0-1.0-157.0","0","0","35180","","null","","","null","17","","NaN","","","","","","","","","","","","","",""
"","response","","html-keyboard-response","120","483437","0.0-1.0-158.0-0.0","0","0","35180","","1227","","","75","17","","","1","17","training","adjacent","CD","3","4","Q.jpg","P.jpg","0","1","0","",""
"","feedback","","html-keyboard-response","121","484443","0.0-1.0-159.0-0.0","0","0","35180","","null","","","null","17","","","","","","","","","","","","","","","",""
"","time_out","","html-keyboard-response","122","486454","0.0-1.0-161.0-0.0","0","0","35180","","null","","","null","17","","","","","","","","","","","","","","","",""
"","ITI","","html-keyboard-response","123","487460","0.0-1.0-162.0","0","0","35180","","null","","","null","17","","","","","","","","","","","","","","","NaN",""
"","S1","","html-keyboard-response","124","487721","0.0-1.0-164.0","0","0","35180","","null","","","null","18","","","","","","","","","","","","","","","",""
"","ISI","","html-keyboard-response","125","488733","0.0-1.0-165.0","0","0","35180","","null","","","null","18","NaN","","","","","","","","","","","","","","",""
"","S2","","html-keyboard-response","126","488987","0.0-1.0-166.0","0","0","35180","","null","","","null","18","","NaN","","","","","","","","","","","","","",""
"","response","","html-keyboard-response","127","489678","0.0-1.0-167.0-0.0","0","0","35180","","688","","","68","18","","","1","18","training","adjacent","GF","7","6","O.jpg","N.jpg","1","0","0","",""
"","feedback","","html-keyboard-response","128","490683","0.0-1.0-168.0-0.0","0","0","35180","","null","","","null","18","","","","","","","","","","","","","","","",""
"","time_out","","html-keyboard-response","129","492688","0.0-1.0-170.0-0.0","0","0","35180","","null","","","null","18","","","","","","","","","","","","","","","",""
"","ITI","","html-keyboard-response","130","493695","0.0-1.0-171.0","0","0","35180","","null","","","null","18","","","","","","","","","","","","","","","NaN",""
"","S1","","html-keyboard-response","131","493954","0.0-1.0-173.0","0","0","35180","","null","","","null","19","","","","","","","","","","","","","","","",""
"","ISI","","html-keyboard-response","132","494962","0.0-1.0-174.0","0","0","35180","","null","","","null","19","NaN","","","","","","","","","","","","","","",""
"","S2","","html-keyboard-response","133","495223","0.0-1.0-175.0","0","0","35180","","null","","","null","19","","NaN","","","","","","","","","","","","","",""
"","response","","html-keyboard-response","134","496252","0.0-1.0-176.0-0.0","0","0","35180","","1026","","","75","19","","","1","19","training","adjacent","BA","2","1","R.jpg","M.jpg","0","0","1","",""
"","feedback","","html-keyboard-response","135","497263","0.0-1.0-177.0-0.0","0","0","35180","","null","","","null","19","","","","","","","","","","","","","","","",""
"","ITI","","html-keyboard-response","136","498271","0.0-1.0-180.0","0","0","35180","","null","","","null","19","","","","","","","","","","","","","","","NaN",""
"","S1","","html-keyboard-response","137","498532","0.0-1.0-182.0","0","0","35180","","null","","","null","20","","","","","","","","","","","","","","","",""
"","ISI","","html-keyboard-response","138","499538","0.0-1.0-183.0","0","0","35180","","null","","","null","20","NaN","","","","","","","","","","","","","","",""
"","S2","","html-keyboard-response","139","499793","0.0-1.0-184.0","0","0","35180","","null","","","null","20","","NaN","","","","","","","","","","","","","",""
"","response","","html-keyboard-response","140","500797","0.0-1.0-185.0-0.0","0","0","35180","","1000","","","75","20","","","1","20","training","adjacent","DE","4","5","P.jpg","L.jpg","0","1","0","",""
"","feedback","","html-keyboard-response","141","501803","0.0-1.0-186.0-0.0","0","0","35180","","null","","","null","20","","","","","","","","","","","","","","","",""
"","time_out","","html-keyboard-response","142","503812","0.0-1.0-188.0-0.0","0","0","35180","","null","","","null","20","","","","","","","","","","","","","","","",""
"","ITI","","html-keyboard-response","143","504823","0.0-1.0-189.0","0","0","35180","","null","","","null","20","","","","","","","","","","","","","","","NaN",""
"","S1","","html-keyboard-response","144","505081","0.0-1.0-191.0","0","0","35180","","null","","","null","21","","","","","","","","","","","","","","","",""
"","ISI","","html-keyboard-response","145","506093","0.0-1.0-192.0","0","0","35180","","null","","","null","21","NaN","","","","","","","","","","","","","","",""
"","S2","","html-keyboard-response","146","506352","0.0-1.0-193.0","0","0","35180","","null","","","null","21","","NaN","","","","","","","","","","","","","",""
"","response","","html-keyboard-response","147","506763","0.0-1.0-194.0-0.0","0","0","35180","","408","","","68","21","","","1","21","training","adjacent","CD","3","4","Q.jpg","P.jpg","1","1","1","",""
"","feedback","","html-keyboard-response","148","507776","0.0-1.0-195.0-0.0","0","0","35180","","null","","","null","21","","","","","","","","","","","","","","","",""
"","ITI","","html-keyboard-response","149","508786","0.0-1.0-198.0","0","0","35180","","null","","","null","21","","","","","","","","","","","","","","","NaN",""
"","S1","","html-keyboard-response","150","509043","0.0-1.0-200.0","0","0","35180","","null","","","null","22","","","","","","","","","","","","","","","",""
"","ISI","","html-keyboard-response","151","510055","0.0-1.0-201.0","0","0","35180","","null","","","null","22","NaN","","","","","","","","","","","","","","",""
"","S2","","html-keyboard-response","152","510313","0.0-1.0-202.0","0","0","35180","","null","","","null","22","","NaN","","","","","","","","","","","","","",""
"","response","","html-keyboard-response","153","510886","0.0-1.0-203.0-0.0","0","0","35180","","570","","","75","22","","","1","22","training","adjacent","GF","7","6","O.jpg","N.jpg","0","0","1","",""
"","feedback","","html-keyboard-response","154","511892","0.0-1.0-204.0-0.0","0","0","35180","","null","","","null","22","","","","","","","","","","","","","","","",""
"","ITI","","html-keyboard-response","155","512898","0.0-1.0-207.0","0","0","35180","","null","","","null","22","","","","","","","","","","","","","","","NaN",""
"","S1","","html-keyboard-response","156","513153","0.0-1.0-209.0","0","0","35180","","null","","","null","23","","","","","","","","","","","","","","","",""
"","ISI","","html-keyboard-response","157","514170","0.0-1.0-210.0","0","0","35180","","null","","","null","23","NaN","","","","","","","","","","","","","","",""
"","S2","","html-keyboard-response","158","514435","0.0-1.0-211.0","0","0","35180","","null","","","null","23","","NaN","","","","","","","","","","","","","",""
"","response","","html-keyboard-response","159","514874","0.0-1.0-212.0-0.0","0","0","35180","","435","","","68","23","","","1","23","training","adjacent","BA","2","1","R.jpg","M.jpg","1","0","0","",""
"","feedback","","html-keyboard-response","160","515884","0.0-1.0-213.0-0.0","0","0","35180","","null","","","null","23","","","","","","","","","","","","","","","",""
"","time_out","","html-keyboard-response","161","517894","0.0-1.0-215.0-0.0","0","0","35180","","null","","","null","23","","","","","","","","","","","","","","","",""
"","ITI","","html-keyboard-response","162","518903","0.0-1.0-216.0","0","0","35180","","null","","","null","23","","","","","","","","","","","","","","","NaN",""
"","S1","","html-keyboard-response","163","519166","0.0-1.0-218.0","0","0","35180","","null","","","null","24","","","","","","","","","","","","","","","",""
"","ISI","","html-keyboard-response","164","520185","0.0-1.0-219.0","0","0","35180","","null","","","null","24","NaN","","","","","","","","","","","","","","",""
"","S2","","html-keyboard-response","165","520440","0.0-1.0-220.0","0","0","35180","","null","","","null","24","","NaN","","","","","","","","","","","","","",""
"","response","","html-keyboard-response","166","521359","0.0-1.0-221.0-0.0","0","0","35180","","916","","","68","24","","","1","24","training","adjacent","FE","6","5","N.jpg","L.jpg","1","0","0","",""
"","feedback","","html-keyboard-response","167","522371","0.0-1.0-222.0-0.0","0","0","35180","","null","","","null","24","","","","","","","","","","","","","","","",""
"","time_out","","html-keyboard-response","168","524385","0.0-1.0-224.0-0.0","0","0","35180","","null","","","null","24","","","","","","","","","","","","","","","",""
"","ITI","","html-keyboard-response","169","525393","0.0-1.0-225.0","0","0","35180","","null","","","null","24","","","","","","","","","","","","","","","NaN",""
"","S1","","html-keyboard-response","170","525655","0.0-1.0-227.0","0","0","35180","","null","","","null","25","","","","","","","","","","","","","","","",""
"","ISI","","html-keyboard-response","171","526664","0.0-1.0-228.0","0","0","35180","","null","","","null","25","NaN","","","","","","","","","","","","","","",""
"","S2","","html-keyboard-response","172","526922","0.0-1.0-229.0","0","0","35180","","null","","","null","25","","NaN","","","","","","","","","","","","","",""
"","response","","html-keyboard-response","173","527723","0.0-1.0-230.0-0.0","0","0","35180","","798","","","75","25","","","1","25","training","adjacent","ED","5","4","L.jpg","P.jpg","0","0","1","",""
"","feedback","","html-keyboard-response","174","528731","0.0-1.0-231.0-0.0","0","0","35180","","null","","","null","25","","","","","","","","","","","","","","","",""
"","ITI","","html-keyboard-response","175","529745","0.0-1.0-234.0","0","0","35180","","null","","","null","25","","","","","","","","","","","","","","","NaN",""
"","S1","","html-keyboard-response","176","530004","0.0-1.0-236.0","0","0","35180","","null","","","null","26","","","","","","","","","","","","","","","",""
"","ISI","","html-keyboard-response","177","531013","0.0-1.0-237.0","0","0","35180","","null","","","null","26","NaN","","","","","","","","","","","","","","",""
"","S2","","html-keyboard-response","178","531270","0.0-1.0-238.0","0","0","35180","","null","","","null","26","","NaN","","","","","","","","","","","","","",""
"","response","","html-keyboard-response","179","532372","0.0-1.0-239.0-0.0","0","0","35180","","1099","","","75","26","","","1","26","training","adjacent","CD","3","4","Q.jpg","P.jpg","0","1","0","",""
"","feedback","","html-keyboard-response","180","533381","0.0-1.0-240.0-0.0","0","0","35180","","null","","","null","26","","","","","","","","","","","","","","","",""
"","time_out","","html-keyboard-response","181","535392","0.0-1.0-242.0-0.0","0","0","35180","","null","","","null","26","","","","","","","","","","","","","","","",""
"","ITI","","html-keyboard-response","182","536402","0.0-1.0-243.0","0","0","35180","","null","","","null","26","","","","","","","","","","","","","","","NaN",""
"","S1","","html-keyboard-response","183","536662","0.0-1.0-245.0","0","0","35180","","null","","","null","27","","","","","","","","","","","","","","","",""
"","ISI","","html-keyboard-response","184","537665","0.0-1.0-246.0","0","0","35180","","null","","","null","27","NaN","","","","","","","","","","","","","","",""
"","S2","","html-keyboard-response","185","537924","0.0-1.0-247.0","0","0","35180","","null","","","null","27","","NaN","","","","","","","","","","","","","",""
"","response","","html-keyboard-response","186","538769","0.0-1.0-248.0-0.0","0","0","35180","","842","","","68","27","","","1","27","training","adjacent","EF","5","6","L.jpg","N.jpg","1","1","1","",""
"","feedback","","html-keyboard-response","187","539784","0.0-1.0-249.0-0.0","0","0","35180","","null","","","null","27","","","","","","","","","","","","","","","",""
"","ITI","","html-keyboard-response","188","540796","0.0-1.0-252.0","0","0","35180","","null","","","null","27","","","","","","","","","","","","","","","NaN",""
"","S1","","html-keyboard-response","189","541055","0.0-1.0-254.0","0","0","35180","","null","","","null","28","","","","","","","","","","","","","","","",""
"","ISI","","html-keyboard-response","190","542060","0.0-1.0-255.0","0","0","35180","","null","","","null","28","NaN","","","","","","","","","","","","","","",""
"","S2","","html-keyboard-response","191","542324","0.0-1.0-256.0","0","0","35180","","null","","","null","28","","NaN","","","","","","","","","","","","","",""
"","response","","html-keyboard-response","192","543110","0.0-1.0-257.0-0.0","0","0","35180","","782","","","68","28","","","1","28","training","adjacent","FE","6","5","N.jpg","L.jpg","1","0","0","",""
"","feedback","","html-keyboard-response","193","544123","0.0-1.0-258.0-0.0","0","0","35180","","null","","","null","28","","","","","","","","","","","","","","","",""
"","time_out","","html-keyboard-response","194","546131","0.0-1.0-260.0-0.0","0","0","35180","","null","","","null","28","","","","","","","","","","","","","","","",""
"","ITI","","html-keyboard-response","195","547142","0.0-1.0-261.0","0","0","35180","","null","","","null","28","","","","","","","","","","","","","","","NaN",""
"","S1","","html-keyboard-response","196","547401","0.0-1.0-263.0","0","0","35180","","null","","","null","29","","","","","","","","","","","","","","","",""
"","ISI","","html-keyboard-response","197","548414","0.0-1.0-264.0","0","0","35180","","null","","","null","29","NaN","","","","","","","","","","","","","","",""
"","S2","","html-keyboard-response","198","548669","0.0-1.0-265.0","0","0","35180","","null","","","null","29","","NaN","","","","","","","","","","","","","",""
"","response","","html-keyboard-response","199","549357","0.0-1.0-266.0-0.0","0","0","35180","","686","","","75","29","","","1","29","training","adjacent","DC","4","3","P.jpg","Q.jpg","0","0","1","",""
"","feedback","","html-keyboard-response","200","550362","0.0-1.0-267.0-0.0","0","0","35180","","null","","","null","29","","","","","","","","","","","","","","","",""
"","ITI","","html-keyboard-response","201","551370","0.0-1.0-270.0","0","0","35180","","null","","","null","29","","","","","","","","","","","","","","","NaN",""
"","S1","","html-keyboard-response","202","551633","0.0-1.0-272.0","0","0","35180","","null","","","null","30","","","","","","","","","","","","","","","",""
"","ISI","","html-keyboard-response","203","552641","0.0-1.0-273.0","0","0","35180","","null","","","null","30","NaN","","","","","","","","","","","","","","",""
"","S2","","html-keyboard-response","204","552905","0.0-1.0-274.0","0","0","35180","","null","","","null","30","","NaN","","","","","","","","","","","","","",""
"","response","","html-keyboard-response","205","553649","0.0-1.0-275.0-0.0","0","0","35180","","740","","","68","30","","","1","30","training","adjacent","FE","6","5","N.jpg","L.jpg","1","0","0","",""
"","feedback","","html-keyboard-response","206","554661","0.0-1.0-276.0-0.0","0","0","35180","","null","","","null","30","","","","","","","","","","","","","","","",""
"","time_out","","html-keyboard-response","207","556673","0.0-1.0-278.0-0.0","0","0","35180","","null","","","null","30","","","","","","","","","","","","","","","",""
"","ITI","","html-keyboard-response","208","557683","0.0-1.0-279.0","0","0","35180","","null","","","null","30","","","","","","","","","","","","","","","NaN",""
"","S1","","html-keyboard-response","209","557938","0.0-1.0-281.0","0","0","35180","","null","","","null","31","","","","","","","","","","","","","","","",""
"","ISI","","html-keyboard-response","210","558943","0.0-1.0-282.0","0","0","35180","","null","","","null","31","NaN","","","","","","","","","","","","","","",""
"","S2","","html-keyboard-response","211","559203","0.0-1.0-283.0","0","0","35180","","null","","","null","31","","NaN","","","","","","","","","","","","","",""
"","response","","html-keyboard-response","212","559898","0.0-1.0-284.0-0.0","0","0","35180","","692","","","68","31","","","1","31","training","adjacent","AB","1","2","M.jpg","R.jpg","1","1","1","",""
"","feedback","","html-keyboard-response","213","560902","0.0-1.0-285.0-0.0","0","0","35180","","null","","","null","31","","","","","","","","","","","","","","","",""
"","ITI","","html-keyboard-response","214","561910","0.0-1.0-288.0","0","0","35180","","null","","","null","31","","","","","","","","","","","","","","","NaN",""
"","S1","","html-keyboard-response","215","562174","0.0-1.0-290.0","0","0","35180","","null","","","null","32","","","","","","","","","","","","","","","",""
"","ISI","","html-keyboard-response","216","563181","0.0-1.0-291.0","0","0","35180","","null","","","null","32","NaN","","","","","","","","","","","","","","",""
"","S2","","html-keyboard-response","217","563443","0.0-1.0-292.0","0","0","35180","","null","","","null","32","","NaN","","","","","","","","","","","","","",""
"","response","","html-keyboard-response","218","564411","0.0-1.0-293.0-0.0","0","0","35180","","965","","","68","32","","","1","32","training","adjacent","CD","3","4","Q.jpg","P.jpg","1","1","1","",""
"","feedback","","html-keyboard-response","219","565422","0.0-1.0-294.0-0.0","0","0","35180","","null","","","null","32","","","","","","","","","","","","","","","",""
"","ITI","","html-keyboard-response","220","566427","0.0-1.0-297.0","0","0","35180","","null","","","null","32","","","","","","","","","","","","","","","NaN",""
"","S1","","html-keyboard-response","221","566683","0.0-1.0-299.0","0","0","35180","","null","","","null","33","","","","","","","","","","","","","","","",""
"","ISI","","html-keyboard-response","222","567693","0.0-1.0-300.0","0","0","35180","","null","","","null","33","NaN","","","","","","","","","","","","","","",""
"","S2","","html-keyboard-response","223","567954","0.0-1.0-301.0","0","0","35180","","null","","","null","33","","NaN","","","","","","","","","","","","","",""
"","response","","html-keyboard-response","224","568677","0.0-1.0-302.0-0.0","0","0","35180","","719","","","68","33","","","1","33","training","adjacent","BC","2","3","R.jpg","Q.jpg","1","1","1","",""
"","feedback","","html-keyboard-response","225","569682","0.0-1.0-303.0-0.0","0","0","35180","","null","","","null","33","","","","","","","","","","","","","","","",""
"","ITI","","html-keyboard-response","226","570692","0.0-1.0-306.0","0","0","35180","","null","","","null","33","","","","","","","","","","","","","","","NaN",""
"","S1","","html-keyboard-response","227","570953","0.0-1.0-308.0","0","0","35180","","null","","","null","34","","","","","","","","","","","","","","","",""
"","ISI","","html-keyboard-response","228","571963","0.0-1.0-309.0","0","0","35180","","null","","","null","34","NaN","","","","","","","","","","","","","","",""
"","S2","","html-keyboard-response","229","572219","0.0-1.0-310.0","0","0","35180","","null","","","null","34","","NaN","","","","","","","","","","","","","",""
"","response","","html-keyboard-response","230","572820","0.0-1.0-311.0-0.0","0","0","35180","","598","","","75","34","","","1","34","training","adjacent","ED","5","4","L.jpg","P.jpg","0","0","1","",""
"","feedback","","html-keyboard-response","231","573833","0.0-1.0-312.0-0.0","0","0","35180","","null","","","null","34","","","","","","","","","","","","","","","",""
"","ITI","","html-keyboard-response","232","574837","0.0-1.0-315.0","0","0","35180","","null","","","null","34","","","","","","","","","","","","","","","NaN",""
"","S1","","html-keyboard-response","233","575094","0.0-1.0-317.0","0","0","35180","","null","","","null","35","","","","","","","","","","","","","","","",""
"","ISI","","html-keyboard-response","234","576099","0.0-1.0-318.0","0","0","35180","","null","","","null","35","NaN","","","","","","","","","","","","","","",""
"","S2","","html-keyboard-response","235","576353","0.0-1.0-319.0","0","0","35180","","null","","","null","35","","NaN","","","","","","","","","","","","","",""
"","response","","html-keyboard-response","236","576908","0.0-1.0-320.0-0.0","0","0","35180","","552","","","75","35","","","1","35","training","adjacent","FG","6","7","N.jpg","O.jpg","0","1","0","",""
"","feedback","","html-keyboard-response","237","577921","0.0-1.0-321.0-0.0","0","0","35180","","null","","","null","35","","","","","","","","","","","","","","","",""
"","time_out","","html-keyboard-response","238","579934","0.0-1.0-323.0-0.0","0","0","35180","","null","","","null","35","","","","","","","","","","","","","","","",""
"","ITI","","html-keyboard-response","239","580943","0.0-1.0-324.0","0","0","35180","","null","","","null","35","","","","","","","","","","","","","","","NaN",""
"","S1","","html-keyboard-response","240","581205","0.0-1.0-326.0","0","0","35180","","null","","","null","36","","","","","","","","","","","","","","","",""
"","ISI","","html-keyboard-response","241","582213","0.0-1.0-327.0","0","0","35180","","null","","","null","36","NaN","","","","","","","","","","","","","","",""
"","S2","","html-keyboard-response","242","582473","0.0-1.0-328.0","0","0","35180","","null","","","null","36","","NaN","","","","","","","","","","","","","",""
"","response","","html-keyboard-response","243","583141","0.0-1.0-329.0-0.0","0","0","35180","","664","","","75","36","","","1","36","training","adjacent","AB","1","2","M.jpg","R.jpg","0","1","0","",""
"","feedback","","html-keyboard-response","244","584150","0.0-1.0-330.0-0.0","0","0","35180","","null","","","null","36","","","","","","","","","","","","","","","",""
"","time_out","","html-keyboard-response","245","586162","0.0-1.0-332.0-0.0","0","0","35180","","null","","","null","36","","","","","","","","","","","","","","","",""
"","ITI","","html-keyboard-response","246","587173","0.0-1.0-333.0","0","0","35180","","null","","","null","36","","","","","","","","","","","","","","","NaN",""
"","S1","","html-keyboard-response","247","587434","0.0-1.0-335.0","0","0","35180","","null","","","null","37","","","","","","","","","","","","","","","",""
"","ISI","","html-keyboard-response","248","588442","0.0-1.0-336.0","0","0","35180","","null","","","null","37","NaN","","","","","","","","","","","","","","",""
"","S2","","html-keyboard-response","249","588701","0.0-1.0-337.0","0","0","35180","","null","","","null","37","","NaN","","","","","","","","","","","","","",""
"","response","","html-keyboard-response","250","589246","0.0-1.0-338.0-0.0","0","0","35180","","543","","","68","37","","","1","37","training","adjacent","DC","4","3","P.jpg","Q.jpg","1","0","0","",""
"","feedback","","html-keyboard-response","251","590261","0.0-1.0-339.0-0.0","0","0","35180","","null","","","null","37","","","","","","","","","","","","","","","",""
"","time_out","","html-keyboard-response","252","592267","0.0-1.0-341.0-0.0","0","0","35180","","null","","","null","37","","","","","","","","","","","","","","","",""
"","ITI","","html-keyboard-response","253","593275","0.0-1.0-342.0","0","0","35180","","null","","","null","37","","","","","","","","","","","","","","","NaN",""
"","S1","","html-keyboard-response","254","593532","0.0-1.0-344.0","0","0","35180","","null","","","null","38","","","","","","","","","","","","","","","",""
"","ISI","","html-keyboard-response","255","594543","0.0-1.0-345.0","0","0","35180","","null","","","null","38","NaN","","","","","","","","","","","","","","",""
"","S2","","html-keyboard-response","256","594802","0.0-1.0-346.0","0","0","35180","","null","","","null","38","","NaN","","","","","","","","","","","","","",""
"","response","","html-keyboard-response","257","595336","0.0-1.0-347.0-0.0","0","0","35180","","531","","","75","38","","","1","38","training","adjacent","BC","2","3","R.jpg","Q.jpg","0","1","0","",""
"","feedback","","html-keyboard-response","258","596352","0.0-1.0-348.0-0.0","0","0","35180","","null","","","null","38","","","","","","","","","","","","","","","",""
"","time_out","","html-keyboard-response","259","598365","0.0-1.0-350.0-0.0","0","0","35180","","null","","","null","38","","","","","","","","","","","","","","","",""
"","ITI","","html-keyboard-response","260","599372","0.0-1.0-351.0","0","0","35180","","null","","","null","38","","","","","","","","","","","","","","","NaN",""
"","S1","","html-keyboard-response","261","599632","0.0-1.0-353.0","0","0","35180","","null","","","null","39","","","","","","","","","","","","","","","",""
"","ISI","","html-keyboard-response","262","600635","0.0-1.0-354.0","0","0","35180","","null","","","null","39","NaN","","","","","","","","","","","","","","",""
"","S2","","html-keyboard-response","263","600893","0.0-1.0-355.0","0","0","35180","","null","","","null","39","","NaN","","","","","","","","","","","","","",""
"","response","","html-keyboard-response","264","601353","0.0-1.0-356.0-0.0","0","0","35180","","457","","","68","39","","","1","39","training","adjacent","ED","5","4","L.jpg","P.jpg","1","0","0","",""
"","feedback","","html-keyboard-response","265","602362","0.0-1.0-357.0-0.0","0","0","35180","","null","","","null","39","","","","","","","","","","","","","","","",""
"","time_out","","html-keyboard-response","266","604374","0.0-1.0-359.0-0.0","0","0","35180","","null","","","null","39","","","","","","","","","","","","","","","",""
"","ITI","","html-keyboard-response","267","605383","0.0-1.0-360.0","0","0","35180","","null","","","null","39","","","","","","","","","","","","","","","NaN",""
"","S1","","html-keyboard-response","268","605644","0.0-1.0-362.0","0","0","35180","","null","","","null","40","","","","","","","","","","","","","","","",""
"","ISI","","html-keyboard-response","269","606654","0.0-1.0-363.0","0","0","35180","","null","","","null","40","NaN","","","","","","","","","","","","","","",""
"","S2","","html-keyboard-response","270","606914","0.0-1.0-364.0","0","0","35180","","null","","","null","40","","NaN","","","","","","","","","","","","","",""
"","response","","html-keyboard-response","271","607704","0.0-1.0-365.0-0.0","0","0","35180","","787","","","68","40","","","1","40","training","adjacent","BA","2","1","R.jpg","M.jpg","1","0","0","",""
"","feedback","","html-keyboard-response","272","608711","0.0-1.0-366.0-0.0","0","0","35180","","null","","","null","40","","","","","","","","","","","","","","","",""
"","time_out","","html-keyboard-response","273","610723","0.0-1.0-368.0-0.0","0","0","35180","","null","","","null","40","","","","","","","","","","","","","","","",""
"","ITI","","html-keyboard-response","274","611732","0.0-1.0-369.0","0","0","35180","","null","","","null","40","","","","","","","","","","","","","","","NaN",""
"","S1","","html-keyboard-response","275","611993","0.0-1.0-371.0","0","0","35180","","null","","","null","41","","","","","","","","","","","","","","","",""
"","ISI","","html-keyboard-response","276","613006","0.0-1.0-372.0","0","0","35180","","null","","","null","41","NaN","","","","","","","","","","","","","","",""
"","S2","","html-keyboard-response","277","613264","0.0-1.0-373.0","0","0","35180","","null","","","null","41","","NaN","","","","","","","","","","","","","",""
"","response","","html-keyboard-response","278","613683","0.0-1.0-374.0-0.0","0","0","35180","","416","","","68","41","","","1","41","training","adjacent","FE","6","5","N.jpg","L.jpg","1","0","0","",""
"","feedback","","html-keyboard-response","279","614693","0.0-1.0-375.0-0.0","0","0","35180","","null","","","null","41","","","","","","","","","","","","","","","",""
"","time_out","","html-keyboard-response","280","616701","0.0-1.0-377.0-0.0","0","0","35180","","null","","","null","41","","","","","","","","","","","","","","","",""
"","ITI","","html-keyboard-response","281","617704","0.0-1.0-378.0","0","0","35180","","null","","","null","41","","","","","","","","","","","","","","","NaN",""
"","S1","","html-keyboard-response","282","617963","0.0-1.0-380.0","0","0","35180","","null","","","null","42","","","","","","","","","","","","","","","",""
"","ISI","","html-keyboard-response","283","618971","0.0-1.0-381.0","0","0","35180","","null","","","null","42","NaN","","","","","","","","","","","","","","",""
"","S2","","html-keyboard-response","284","619233","0.0-1.0-382.0","0","0","35180","","null","","","null","42","","NaN","","","","","","","","","","","","","",""
"","response","","html-keyboard-response","285","619720","0.0-1.0-383.0-0.0","0","0","35180","","484","","","75","42","","","1","42","training","adjacent","CB","3","2","Q.jpg","R.jpg","0","0","1","",""
"","feedback","","html-keyboard-response","286","620724","0.0-1.0-384.0-0.0","0","0","35180","","null","","","null","42","","","","","","","","","","","","","","","",""
"","ITI","","html-keyboard-response","287","621731","0.0-1.0-387.0","0","0","35180","","null","","","null","42","","","","","","","","","","","","","","","NaN",""
"","S1","","html-keyboard-response","288","621988","0.0-1.0-389.0","0","0","35180","","null","","","null","43","","","","","","","","","","","","","","","",""
"","ISI","","html-keyboard-response","289","622993","0.0-1.0-390.0","0","0","35180","","null","","","null","43","NaN","","","","","","","","","","","","","","",""
"","S2","","html-keyboard-response","290","623262","0.0-1.0-391.0","0","0","35180","","null","","","null","43","","NaN","","","","","","","","","","","","","",""
"","response","","html-keyboard-response","291","623934","0.0-1.0-392.0-0.0","0","0","35180","","669","","","75","43","","","1","43","training","adjacent","GF","7","6","O.jpg","N.jpg","0","0","1","",""
"","feedback","","html-keyboard-response","292","624944","0.0-1.0-393.0-0.0","0","0","35180","","null","","","null","43","","","","","","","","","","","","","","","",""
"","ITI","","html-keyboard-response","293","625950","0.0-1.0-396.0","0","0","35180","","null","","","null","43","","","","","","","","","","","","","","","NaN",""
"","S1","","html-keyboard-response","294","626211","0.0-1.0-398.0","0","0","35180","","null","","","null","44","","","","","","","","","","","","","","","",""
"","ISI","","html-keyboard-response","295","627222","0.0-1.0-399.0","0","0","35180","","null","","","null","44","NaN","","","","","","","","","","","","","","",""
"","S2","","html-keyboard-response","296","627483","0.0-1.0-400.0","0","0","35180","","null","","","null","44","","NaN","","","","","","","","","","","","","",""
"","response","","html-keyboard-response","297","628434","0.0-1.0-401.0-0.0","0","0","35180","","948","","","68","44","","","1","44","training","adjacent","AB","1","2","M.jpg","R.jpg","1","1","1","",""
"","feedback","","html-keyboard-response","298","629441","0.0-1.0-402.0-0.0","0","0","35180","","null","","","null","44","","","","","","","","","","","","","","","",""
"","ITI","","html-keyboard-response","299","630448","0.0-1.0-405.0","0","0","35180","","null","","","null","44","","","","","","","","","","","","","","","NaN",""
"","S1","","html-keyboard-response","300","630703","0.0-1.0-407.0","0","0","35180","","null","","","null","45","","","","","","","","","","","","","","","",""
"","ISI","","html-keyboard-response","301","631716","0.0-1.0-408.0","0","0","35180","","null","","","null","45","NaN","","","","","","","","","","","","","","",""
"","S2","","html-keyboard-response","302","631977","0.0-1.0-409.0","0","0","35180","","null","","","null","45","","NaN","","","","","","","","","","","","","",""
"","response","","html-keyboard-response","303","632767","0.0-1.0-410.0-0.0","0","0","35180","","787","","","68","45","","","1","45","training","adjacent","BC","2","3","R.jpg","Q.jpg","1","1","1","",""
"","feedback","","html-keyboard-response","304","633770","0.0-1.0-411.0-0.0","0","0","35180","","null","","","null","45","","","","","","","","","","","","","","","",""
"","ITI","","html-keyboard-response","305","634772","0.0-1.0-414.0","0","0","35180","","null","","","null","45","","","","","","","","","","","","","","","NaN",""
"","S1","","html-keyboard-response","306","635033","0.0-1.0-416.0","0","0","35180","","null","","","null","46","","","","","","","","","","","","","","","",""
"","ISI","","html-keyboard-response","307","636040","0.0-1.0-417.0","0","0","35180","","null","","","null","46","NaN","","","","","","","","","","","","","","",""
"","S2","","html-keyboard-response","308","636304","0.0-1.0-418.0","0","0","35180","","null","","","null","46","","NaN","","","","","","","","","","","","","",""
"","response","","html-keyboard-response","309","637028","0.0-1.0-419.0-0.0","0","0","35180","","720","","","68","46","","","1","46","training","adjacent","CB","3","2","Q.jpg","R.jpg","1","0","0","",""
"","feedback","","html-keyboard-response","310","638032","0.0-1.0-420.0-0.0","0","0","35180","","null","","","null","46","","","","","","","","","","","","","","","",""
"","time_out","","html-keyboard-response","311","640037","0.0-1.0-422.0-0.0","0","0","35180","","null","","","null","46","","","","","","","","","","","","","","","",""
"","ITI","","html-keyboard-response","312","641041","0.0-1.0-423.0","0","0","35180","","null","","","null","46","","","","","","","","","","","","","","","NaN",""
"","S1","","html-keyboard-response","313","641308","0.0-1.0-425.0","0","0","35180","","null","","","null","47","","","","","","","","","","","","","","","",""
"","ISI","","html-keyboard-response","314","642312","0.0-1.0-426.0","0","0","35180","","null","","","null","47","NaN","","","","","","","","","","","","","","",""
"","S2","","html-keyboard-response","315","642567","0.0-1.0-427.0","0","0","35180","","null","","","null","47","","NaN","","","","","","","","","","","","","",""
"","response","","html-keyboard-response","316","642947","0.0-1.0-428.0-0.0","0","0","35180","","377","","","75","47","","","1","47","training","adjacent","EF","5","6","L.jpg","N.jpg","0","1","0","",""
"","feedback","","html-keyboard-response","317","643952","0.0-1.0-429.0-0.0","0","0","35180","","null","","","null","47","","","","","","","","","","","","","","","",""
"","time_out","","html-keyboard-response","318","645956","0.0-1.0-431.0-0.0","0","0","35180","","null","","","null","47","","","","","","","","","","","","","","","",""
"","ITI","","html-keyboard-response","319","646960","0.0-1.0-432.0","0","0","35180","","null","","","null","47","","","","","","","","","","","","","","","NaN",""
"","block_over","","html-keyboard-response","320","799072","0.0-1.0-433.0-0.0","0","0","35180","","152108","","","32","47","","","","","","","","","","","","","","","",""
"","S1","","html-keyboard-response","321","799326","0.0-1.0-434.0","0","0","35180","","null","","","null","48","","","","","","","","","","","","","","","",""
"","ISI","","html-keyboard-response","322","800330","0.0-1.0-435.0","0","0","35180","","null","","","null","48","NaN","","","","","","","","","","","","","","",""
"","S2","","html-keyboard-response","323","800583","0.0-1.0-436.0","0","0","35180","","null","","","null","48","","NaN","","","","","","","","","","","","","",""
"","response","","html-keyboard-response","324","801334","0.0-1.0-437.0-0.0","0","0","35180","","749","","","68","48","","","2","48","training","adjacent","DC","4","3","P.jpg","Q.jpg","1","0","0","",""
"","feedback","","html-keyboard-response","325","802339","0.0-1.0-438.0-0.0","0","0","35180","","null","","","null","48","","","","","","","","","","","","","","","",""
"","time_out","","html-keyboard-response","326","804342","0.0-1.0-440.0-0.0","0","0","35180","","null","","","null","48","","","","","","","","","","","","","","","",""
"","ITI","","html-keyboard-response","327","805347","0.0-1.0-441.0","0","0","35180","","null","","","null","48","","","","","","","","","","","","","","","NaN",""
"","S1","","html-keyboard-response","328","805601","0.0-1.0-443.0","0","0","35180","","null","","","null","49","","","","","","","","","","","","","","","",""
"","ISI","","html-keyboard-response","329","806604","0.0-1.0-444.0","0","0","35180","","null","","","null","49","NaN","","","","","","","","","","","","","","",""
"","S2","","html-keyboard-response","330","806857","0.0-1.0-445.0","0","0","35180","","null","","","null","49","","NaN","","","","","","","","","","","","","",""
"","response","","html-keyboard-response","331","807243","0.0-1.0-446.0-0.0","0","0","35180","","383","","","68","49","","","2","49","training","adjacent","CD","3","4","Q.jpg","P.jpg","1","1","1","",""
"","feedback","","html-keyboard-response","332","808247","0.0-1.0-447.0-0.0","0","0","35180","","null","","","null","49","","","","","","","","","","","","","","","",""
"","ITI","","html-keyboard-response","333","809251","0.0-1.0-450.0","0","0","35180","","null","","","null","49","","","","","","","","","","","","","","","NaN",""
"","S1","","html-keyboard-response","334","809506","0.0-1.0-452.0","0","0","35180","","null","","","null","50","","","","","","","","","","","","","","","",""
"","ISI","","html-keyboard-response","335","810509","0.0-1.0-453.0","0","0","35180","","null","","","null","50","NaN","","","","","","","","","","","","","","",""
"","S2","","html-keyboard-response","336","810777","0.0-1.0-454.0","0","0","35180","","null","","","null","50","","NaN","","","","","","","","","","","","","",""
"","response","","html-keyboard-response","337","811321","0.0-1.0-455.0-0.0","0","0","35180","","541","","","75","50","","","2","50","training","adjacent","GF","7","6","O.jpg","N.jpg","0","0","1","",""
"","feedback","","html-keyboard-response","338","812327","0.0-1.0-456.0-0.0","0","0","35180","","null","","","null","50","","","","","","","","","","","","","","","",""
"","ITI","","html-keyboard-response","339","813331","0.0-1.0-459.0","0","0","35180","","null","","","null","50","","","","","","","","","","","","","","","NaN",""
"","S1","","html-keyboard-response","340","813585","0.0-1.0-461.0","0","0","35180","","null","","","null","51","","","","","","","","","","","","","","","",""
"","ISI","","html-keyboard-response","341","814589","0.0-1.0-462.0","0","0","35180","","null","","","null","51","NaN","","","","","","","","","","","","","","",""
"","S2","","html-keyboard-response","342","814851","0.0-1.0-463.0","0","0","35180","","null","","","null","51","","NaN","","","","","","","","","","","","","",""
"","response","","html-keyboard-response","343","815178","0.0-1.0-464.0-0.0","0","0","35180","","324","","","75","51","","","2","51","training","adjacent","CB","3","2","Q.jpg","R.jpg","0","0","1","",""
"","feedback","","html-keyboard-response","344","816183","0.0-1.0-465.0-0.0","0","0","35180","","null","","","null","51","","","","","","","","","","","","","","","",""
"","ITI","","html-keyboard-response","345","817187","0.0-1.0-468.0","0","0","35180","","null","","","null","51","","","","","","","","","","","","","","","NaN",""
"","S1","","html-keyboard-response","346","817441","0.0-1.0-470.0","0","0","35180","","null","","","null","52","","","","","","","","","","","","","","","",""
"","ISI","","html-keyboard-response","347","818446","0.0-1.0-471.0","0","0","35180","","null","","","null","52","NaN","","","","","","","","","","","","","","",""
"","S2","","html-keyboard-response","348","818700","0.0-1.0-472.0","0","0","35180","","null","","","null","52","","NaN","","","","","","","","","","","","","",""
"","response","","html-keyboard-response","349","819379","0.0-1.0-473.0-0.0","0","0","35180","","676","","","68","52","","","2","52","training","adjacent","BA","2","1","R.jpg","M.jpg","1","0","0","",""
"","feedback","","html-keyboard-response","350","820384","0.0-1.0-474.0-0.0","0","0","35180","","null","","","null","52","","","","","","","","","","","","","","","",""
"","time_out","","html-keyboard-response","351","822388","0.0-1.0-476.0-0.0","0","0","35180","","null","","","null","52","","","","","","","","","","","","","","","",""
"","ITI","","html-keyboard-response","352","823392","0.0-1.0-477.0","0","0","35180","","null","","","null","52","","","","","","","","","","","","","","","NaN",""
"","S1","","html-keyboard-response","353","823646","0.0-1.0-479.0","0","0","35180","","null","","","null","53","","","","","","","","","","","","","","","",""
"","ISI","","html-keyboard-response","354","824650","0.0-1.0-480.0","0","0","35180","","null","","","null","53","NaN","","","","","","","","","","","","","","",""
"","S2","","html-keyboard-response","355","824904","0.0-1.0-481.0","0","0","35180","","null","","","null","53","","NaN","","","","","","","","","","","","","",""
"","response","","html-keyboard-response","356","825371","0.0-1.0-482.0-0.0","0","0","35180","","463","","","68","53","","","2","53","training","adjacent","EF","5","6","L.jpg","N.jpg","1","1","1","",""
"","feedback","","html-keyboard-response","357","826375","0.0-1.0-483.0-0.0","0","0","35180","","null","","","null","53","","","","","","","","","","","","","","","",""
"","ITI","","html-keyboard-response","358","827379","0.0-1.0-486.0","0","0","35180","","null","","","null","53","","","","","","","","","","","","","","","NaN",""
"","S1","","html-keyboard-response","359","827633","0.0-1.0-488.0","0","0","35180","","null","","","null","54","","","","","","","","","","","","","","","",""
"","ISI","","html-keyboard-response","360","828638","0.0-1.0-489.0","0","0","35180","","null","","","null","54","NaN","","","","","","","","","","","","","","",""
"","S2","","html-keyboard-response","361","828892","0.0-1.0-490.0","0","0","35180","","null","","","null","54","","NaN","","","","","","","","","","","","","",""
"","response","","html-keyboard-response","362","829348","0.0-1.0-491.0-0.0","0","0","35180","","453","","","75","54","","","2","54","training","adjacent","BA","2","1","R.jpg","M.jpg","0","0","1","",""
"","feedback","","html-keyboard-response","363","830353","0.0-1.0-492.0-0.0","0","0","35180","","null","","","null","54","","","","","","","","","","","","","","","",""
"","ITI","","html-keyboard-response","364","831357","0.0-1.0-495.0","0","0","35180","","null","","","null","54","","","","","","","","","","","","","","","NaN",""
"","S1","","html-keyboard-response","365","831611","0.0-1.0-497.0","0","0","35180","","null","","","null","55","","","","","","","","","","","","","","","",""
"","ISI","","html-keyboard-response","366","832614","0.0-1.0-498.0","0","0","35180","","null","","","null","55","NaN","","","","","","","","","","","","","","",""
"","S2","","html-keyboard-response","367","832868","0.0-1.0-499.0","0","0","35180","","null","","","null","55","","NaN","","","","","","","","","","","","","",""
"","response","","html-keyboard-response","368","833345","0.0-1.0-500.0-0.0","0","0","35180","","474","","","75","55","","","2","55","training","adjacent","ED","5","4","L.jpg","P.jpg","0","0","1","",""
"","feedback","","html-keyboard-response","369","834350","0.0-1.0-501.0-0.0","0","0","35180","","null","","","null","55","","","","","","","","","","","","","","","",""
"","ITI","","html-keyboard-response","370","835354","0.0-1.0-504.0","0","0","35180","","null","","","null","55","","","","","","","","","","","","","","","NaN",""
"","S1","","html-keyboard-response","371","835608","0.0-1.0-506.0","0","0","35180","","null","","","null","56","","","","","","","","","","","","","","","",""
"","ISI","","html-keyboard-response","372","836611","0.0-1.0-507.0","0","0","35180","","null","","","null","56","NaN","","","","","","","","","","","","","","",""
"","S2","","html-keyboard-response","373","836866","0.0-1.0-508.0","0","0","35180","","null","","","null","56","","NaN","","","","","","","","","","","","","",""
"","response","","html-keyboard-response","374","837341","0.0-1.0-509.0-0.0","0","0","35180","","472","","","68","56","","","2","56","training","adjacent","BC","2","3","R.jpg","Q.jpg","1","1","1","",""
"","feedback","","html-keyboard-response","375","838346","0.0-1.0-510.0-0.0","0","0","35180","","null","","","null","56","","","","","","","","","","","","","","","",""
"","ITI","","html-keyboard-response","376","839349","0.0-1.0-513.0","0","0","35180","","null","","","null","56","","","","","","","","","","","","","","","NaN",""
"","S1","","html-keyboard-response","377","839602","0.0-1.0-515.0","0","0","35180","","null","","","null","57","","","","","","","","","","","","","","","",""
"","ISI","","html-keyboard-response","378","840605","0.0-1.0-516.0","0","0","35180","","null","","","null","57","NaN","","","","","","","","","","","","","","",""
"","S2","","html-keyboard-response","379","840860","0.0-1.0-517.0","0","0","35180","","null","","","null","57","","NaN","","","","","","","","","","","","","",""
"","response","","html-keyboard-response","380","841302","0.0-1.0-518.0-0.0","0","0","35180","","438","","","75","57","","","2","57","training","adjacent","CB","3","2","Q.jpg","R.jpg","0","0","1","",""
"","feedback","","html-keyboard-response","381","842306","0.0-1.0-519.0-0.0","0","0","35180","","null","","","null","57","","","","","","","","","","","","","","","",""
"","ITI","","html-keyboard-response","382","843310","0.0-1.0-522.0","0","0","35180","","null","","","null","57","","","","","","","","","","","","","","","NaN",""
"","S1","","html-keyboard-response","383","843570","0.0-1.0-524.0","0","0","35180","","null","","","null","58","","","","","","","","","","","","","","","",""
"","ISI","","html-keyboard-response","384","844573","0.0-1.0-525.0","0","0","35180","","null","","","null","58","NaN","","","","","","","","","","","","","","",""
"","S2","","html-keyboard-response","385","844828","0.0-1.0-526.0","0","0","35180","","null","","","null","58","","NaN","","","","","","","","","","","","","",""
"","response","","html-keyboard-response","386","845085","0.0-1.0-527.0-0.0","0","0","35180","","255","","","68","58","","","2","58","training","adjacent","FE","6","5","N.jpg","L.jpg","1","0","0","",""
"","feedback","","html-keyboard-response","387","846091","0.0-1.0-528.0-0.0","0","0","35180","","null","","","null","58","","","","","","","","","","","","","","","",""
"","time_out","","html-keyboard-response","388","848095","0.0-1.0-530.0-0.0","0","0","35180","","null","","","null","58","","","","","","","","","","","","","","","",""
"","ITI","","html-keyboard-response","389","849100","0.0-1.0-531.0","0","0","35180","","null","","","null","58","","","","","","","","","","","","","","","NaN",""
"","S1","","html-keyboard-response","390","849354","0.0-1.0-533.0","0","0","35180","","null","","","null","59","","","","","","","","","","","","","","","",""
"","ISI","","html-keyboard-response","391","850357","0.0-1.0-534.0","0","0","35180","","null","","","null","59","NaN","","","","","","","","","","","","","","",""
"","S2","","html-keyboard-response","392","850611","0.0-1.0-535.0","0","0","35180","","null","","","null","59","","NaN","","","","","","","","","","","","","",""
"","response","","html-keyboard-response","393","851092","0.0-1.0-536.0-0.0","0","0","35180","","478","","","75","59","","","2","59","training","adjacent","EF","5","6","L.jpg","N.jpg","0","1","0","",""
"","feedback","","html-keyboard-response","394","852097","0.0-1.0-537.0-0.0","0","0","35180","","null","","","null","59","","","","","","","","","","","","","","","",""
"","time_out","","html-keyboard-response","395","854101","0.0-1.0-539.0-0.0","0","0","35180","","null","","","null","59","","","","","","","","","","","","","","","",""
"","ITI","","html-keyboard-response","396","855104","0.0-1.0-540.0","0","0","35180","","null","","","null","59","","","","","","","","","","","","","","","NaN",""
"","S1","","html-keyboard-response","397","855358","0.0-1.0-542.0","0","0","35180","","null","","","null","60","","","","","","","","","","","","","","","",""
"","ISI","","html-keyboard-response","398","856363","0.0-1.0-543.0","0","0","35180","","null","","","null","60","NaN","","","","","","","","","","","","","","",""
"","S2","","html-keyboard-response","399","856617","0.0-1.0-544.0","0","0","35180","","null","","","null","60","","NaN","","","","","","","","","","","","","",""
"","response","","html-keyboard-response","400","856983","0.0-1.0-545.0-0.0","0","0","35180","","363","","","68","60","","","2","60","training","adjacent","AB","1","2","M.jpg","R.jpg","1","1","1","",""
"","feedback","","html-keyboard-response","401","857987","0.0-1.0-546.0-0.0","0","0","35180","","null","","","null","60","","","","","","","","","","","","","","","",""
"","ITI","","html-keyboard-response","402","858991","0.0-1.0-549.0","0","0","35180","","null","","","null","60","","","","","","","","","","","","","","","NaN",""
"","S1","","html-keyboard-response","403","859247","0.0-1.0-551.0","0","0","35180","","null","","","null","61","","","","","","","","","","","","","","","",""
"","ISI","","html-keyboard-response","404","860250","0.0-1.0-552.0","0","0","35180","","null","","","null","61","NaN","","","","","","","","","","","","","","",""
"","S2","","html-keyboard-response","405","860514","0.0-1.0-553.0","0","0","35180","","null","","","null","61","","NaN","","","","","","","","","","","","","",""
"","response","","html-keyboard-response","406","861013","0.0-1.0-554.0-0.0","0","0","35180","","495","","","68","61","","","2","61","training","adjacent","FG","6","7","N.jpg","O.jpg","1","1","1","",""
"","feedback","","html-keyboard-response","407","862018","0.0-1.0-555.0-0.0","0","0","35180","","null","","","null","61","","","","","","","","","","","","","","","",""
"","ITI","","html-keyboard-response","408","863023","0.0-1.0-558.0","0","0","35180","","null","","","null","61","","","","","","","","","","","","","","","NaN",""
"","S1","","html-keyboard-response","409","863277","0.0-1.0-560.0","0","0","35180","","null","","","null","62","","","","","","","","","","","","","","","",""
"","ISI","","html-keyboard-response","410","864280","0.0-1.0-561.0","0","0","35180","","null","","","null","62","NaN","","","","","","","","","","","","","","",""
"","S2","","html-keyboard-response","411","864539","0.0-1.0-562.0","0","0","35180","","null","","","null","62","","NaN","","","","","","","","","","","","","",""
"","response","","html-keyboard-response","412","865112","0.0-1.0-563.0-0.0","0","0","35180","","570","","","68","62","","","2","62","training","adjacent","BC","2","3","R.jpg","Q.jpg","1","1","1","",""
"","feedback","","html-keyboard-response","413","866117","0.0-1.0-564.0-0.0","0","0","35180","","null","","","null","62","","","","","","","","","","","","","","","",""
"","ITI","","html-keyboard-response","414","867121","0.0-1.0-567.0","0","0","35180","","null","","","null","62","","","","","","","","","","","","","","","NaN",""
"","S1","","html-keyboard-response","415","867376","0.0-1.0-569.0","0","0","35180","","null","","","null","63","","","","","","","","","","","","","","","",""
"","ISI","","html-keyboard-response","416","868380","0.0-1.0-570.0","0","0","35180","","null","","","null","63","NaN","","","","","","","","","","","","","","",""
"","S2","","html-keyboard-response","417","868635","0.0-1.0-571.0","0","0","35180","","null","","","null","63","","NaN","","","","","","","","","","","","","",""
"","response","","html-keyboard-response","418","868946","0.0-1.0-572.0-0.0","0","0","35180","","308","","","68","63","","","2","63","training","adjacent","CD","3","4","Q.jpg","P.jpg","1","1","1","",""
"","feedback","","html-keyboard-response","419","869951","0.0-1.0-573.0-0.0","0","0","35180","","null","","","null","63","","","","","","","","","","","","","","","",""
"","ITI","","html-keyboard-response","420","870954","0.0-1.0-576.0","0","0","35180","","null","","","null","63","","","","","","","","","","","","","","","NaN",""
"","S1","","html-keyboard-response","421","871208","0.0-1.0-578.0","0","0","35180","","null","","","null","64","","","","","","","","","","","","","","","",""
"","ISI","","html-keyboard-response","422","872212","0.0-1.0-579.0","0","0","35180","","null","","","null","64","NaN","","","","","","","","","","","","","","",""
"","S2","","html-keyboard-response","423","872466","0.0-1.0-580.0","0","0","35180","","null","","","null","64","","NaN","","","","","","","","","","","","","",""
"","response","","html-keyboard-response","424","873147","0.0-1.0-581.0-0.0","0","0","35180","","677","","","68","64","","","2","64","training","adjacent","ED","5","4","L.jpg","P.jpg","1","0","0","",""
"","feedback","","html-keyboard-response","425","874151","0.0-1.0-582.0-0.0","0","0","35180","","null","","","null","64","","","","","","","","","","","","","","","",""
"","time_out","","html-keyboard-response","426","876155","0.0-1.0-584.0-0.0","0","0","35180","","null","","","null","64","","","","","","","","","","","","","","","",""
"","ITI","","html-keyboard-response","427","877159","0.0-1.0-585.0","0","0","35180","","null","","","null","64","","","","","","","","","","","","","","","NaN",""
"","S1","","html-keyboard-response","428","877414","0.0-1.0-587.0","0","0","35180","","null","","","null","65","","","","","","","","","","","","","","","",""
"","ISI","","html-keyboard-response","429","878433","0.0-1.0-588.0","0","0","35180","","null","","","null","65","NaN","","","","","","","","","","","","","","",""
"","S2","","html-keyboard-response","430","878687","0.0-1.0-589.0","0","0","35180","","null","","","null","65","","NaN","","","","","","","","","","","","","",""
"","response","","html-keyboard-response","431","879072","0.0-1.0-590.0-0.0","0","0","35180","","381","","","68","65","","","2","65","training","adjacent","DE","4","5","P.jpg","L.jpg","1","1","1","",""
"","feedback","","html-keyboard-response","432","880077","0.0-1.0-591.0-0.0","0","0","35180","","null","","","null","65","","","","","","","","","","","","","","","",""
"","ITI","","html-keyboard-response","433","881082","0.0-1.0-594.0","0","0","35180","","null","","","null","65","","","","","","","","","","","","","","","NaN",""
"","S1","","html-keyboard-response","434","881337","0.0-1.0-596.0","0","0","35180","","null","","","null","66","","","","","","","","","","","","","","","",""
"","ISI","","html-keyboard-response","435","882340","0.0-1.0-597.0","0","0","35180","","null","","","null","66","NaN","","","","","","","","","","","","","","",""
"","S2","","html-keyboard-response","436","882595","0.0-1.0-598.0","0","0","35180","","null","","","null","66","","NaN","","","","","","","","","","","","","",""
"","response","","html-keyboard-response","437","883136","0.0-1.0-599.0-0.0","0","0","35180","","538","","","75","66","","","2","66","training","adjacent","EF","5","6","L.jpg","N.jpg","0","1","0","",""
"","feedback","","html-keyboard-response","438","884142","0.0-1.0-600.0-0.0","0","0","35180","","null","","","null","66","","","","","","","","","","","","","","","",""
"","time_out","","html-keyboard-response","439","886146","0.0-1.0-602.0-0.0","0","0","35180","","null","","","null","66","","","","","","","","","","","","","","","",""
"","ITI","","html-keyboard-response","440","887151","0.0-1.0-603.0","0","0","35180","","null","","","null","66","","","","","","","","","","","","","","","NaN",""
"","S1","","html-keyboard-response","441","887405","0.0-1.0-605.0","0","0","35180","","null","","","null","67","","","","","","","","","","","","","","","",""
"","ISI","","html-keyboard-response","442","888409","0.0-1.0-606.0","0","0","35180","","null","","","null","67","NaN","","","","","","","","","","","","","","",""
"","S2","","html-keyboard-response","443","888665","0.0-1.0-607.0","0","0","35180","","null","","","null","67","","NaN","","","","","","","","","","","","","",""
"","response","","html-keyboard-response","444","889051","0.0-1.0-608.0-0.0","0","0","35180","","383","","","75","67","","","2","67","training","adjacent","FE","6","5","N.jpg","L.jpg","0","0","1","",""
"","feedback","","html-keyboard-response","445","890057","0.0-1.0-609.0-0.0","0","0","35180","","null","","","null","67","","","","","","","","","","","","","","","",""
"","ITI","","html-keyboard-response","446","891061","0.0-1.0-612.0","0","0","35180","","null","","","null","67","","","","","","","","","","","","","","","NaN",""
"","S1","","html-keyboard-response","447","891315","0.0-1.0-614.0","0","0","35180","","null","","","null","68","","","","","","","","","","","","","","","",""
"","ISI","","html-keyboard-response","448","892319","0.0-1.0-615.0","0","0","35180","","null","","","null","68","NaN","","","","","","","","","","","","","","",""
"","S2","","html-keyboard-response","449","892574","0.0-1.0-616.0","0","0","35180","","null","","","null","68","","NaN","","","","","","","","","","","","","",""
"","response","","html-keyboard-response","450","893393","0.0-1.0-617.0-0.0","0","0","35180","","817","","","68","68","","","2","68","training","adjacent","DC","4","3","P.jpg","Q.jpg","1","0","0","",""
"","feedback","","html-keyboard-response","451","894398","0.0-1.0-618.0-0.0","0","0","35180","","null","","","null","68","","","","","","","","","","","","","","","",""
"","time_out","","html-keyboard-response","452","896402","0.0-1.0-620.0-0.0","0","0","35180","","null","","","null","68","","","","","","","","","","","","","","","",""
"","ITI","","html-keyboard-response","453","897407","0.0-1.0-621.0","0","0","35180","","null","","","null","68","","","","","","","","","","","","","","","NaN",""
"","S1","","html-keyboard-response","454","897661","0.0-1.0-623.0","0","0","35180","","null","","","null","69","","","","","","","","","","","","","","","",""
"","ISI","","html-keyboard-response","455","898664","0.0-1.0-624.0","0","0","35180","","null","","","null","69","NaN","","","","","","","","","","","","","","",""
"","S2","","html-keyboard-response","456","898918","0.0-1.0-625.0","0","0","35180","","null","","","null","69","","NaN","","","","","","","","","","","","","",""
"","response","","html-keyboard-response","457","899271","0.0-1.0-626.0-0.0","0","0","35180","","350","","","75","69","","","2","69","training","adjacent","DC","4","3","P.jpg","Q.jpg","0","0","1","",""
"","feedback","","html-keyboard-response","458","900277","0.0-1.0-627.0-0.0","0","0","35180","","null","","","null","69","","","","","","","","","","","","","","","",""
"","ITI","","html-keyboard-response","459","901281","0.0-1.0-630.0","0","0","35180","","null","","","null","69","","","","","","","","","","","","","","","NaN",""
"","S1","","html-keyboard-response","460","901536","0.0-1.0-632.0","0","0","35180","","null","","","null","70","","","","","","","","","","","","","","","",""
"","ISI","","html-keyboard-response","461","902539","0.0-1.0-633.0","0","0","35180","","null","","","null","70","NaN","","","","","","","","","","","","","","",""
"","S2","","html-keyboard-response","462","902795","0.0-1.0-634.0","0","0","35180","","null","","","null","70","","NaN","","","","","","","","","","","","","",""
"","response","","html-keyboard-response","463","903155","0.0-1.0-635.0-0.0","0","0","35180","","356","","","75","70","","","2","70","training","adjacent","FE","6","5","N.jpg","L.jpg","0","0","1","",""
"","feedback","","html-keyboard-response","464","904160","0.0-1.0-636.0-0.0","0","0","35180","","null","","","null","70","","","","","","","","","","","","","","","",""
"","ITI","","html-keyboard-response","465","905165","0.0-1.0-639.0","0","0","35180","","null","","","null","70","","","","","","","","","","","","","","","NaN",""
"","S1","","html-keyboard-response","466","905427","0.0-1.0-641.0","0","0","35180","","null","","","null","71","","","","","","","","","","","","","","","",""
"","ISI","","html-keyboard-response","467","906431","0.0-1.0-642.0","0","0","35180","","null","","","null","71","NaN","","","","","","","","","","","","","","",""
"","S2","","html-keyboard-response","468","906685","0.0-1.0-643.0","0","0","35180","","null","","","null","71","","NaN","","","","","","","","","","","","","",""
"","response","","html-keyboard-response","469","906996","0.0-1.0-644.0-0.0","0","0","35180","","306","","","68","71","","","2","71","training","adjacent","ED","5","4","L.jpg","P.jpg","1","0","0","",""
"","feedback","","html-keyboard-response","470","908000","0.0-1.0-645.0-0.0","0","0","35180","","null","","","null","71","","","","","","","","","","","","","","","",""
"","time_out","","html-keyboard-response","471","910003","0.0-1.0-647.0-0.0","0","0","35180","","null","","","null","71","","","","","","","","","","","","","","","",""
"","ITI","","html-keyboard-response","472","911010","0.0-1.0-648.0","0","0","35180","","null","","","null","71","","","","","","","","","","","","","","","NaN",""
"","S1","","html-keyboard-response","473","911265","0.0-1.0-650.0","0","0","35180","","null","","","null","72","","","","","","","","","","","","","","","",""
"","ISI","","html-keyboard-response","474","912282","0.0-1.0-651.0","0","0","35180","","207","","","75","72","k","","","","","","","","","","","","","","",""
"","S2","","html-keyboard-response","475","912537","0.0-1.0-652.0","0","0","35180","","null","","","null","72","","NaN","","","","","","","","","","","","","",""
"","response","","html-keyboard-response","476","912902","0.0-1.0-653.0-0.0","0","0","35180","","362","","","75","72","","","2","72","training","adjacent","AB","1","2","M.jpg","R.jpg","0","1","0","",""
"","feedback","","html-keyboard-response","477","913907","0.0-1.0-654.0-0.0","0","0","35180","","null","","","null","72","","","","","","","","","","","","","","","",""
"","time_out","","html-keyboard-response","478","915911","0.0-1.0-656.0-0.0","0","0","35180","","null","","","null","72","","","","","","","","","","","","","","","",""
"","ITI","","html-keyboard-response","479","916915","0.0-1.0-657.0","0","0","35180","","null","","","null","72","","","","","","","","","","","","","","","NaN",""
"","S1","","html-keyboard-response","480","917184","0.0-1.0-659.0","0","0","35180","","null","","","null","73","","","","","","","","","","","","","","","",""
"","ISI","","html-keyboard-response","481","918188","0.0-1.0-660.0","0","0","35180","","null","","","null","73","NaN","","","","","","","","","","","","","","",""
"","S2","","html-keyboard-response","482","918441","0.0-1.0-661.0","0","0","35180","","null","","","null","73","","NaN","","","","","","","","","","","","","",""
"","response","","html-keyboard-response","483","918779","0.0-1.0-662.0-0.0","0","0","35180","","334","","","68","73","","","2","73","training","adjacent","CB","3","2","Q.jpg","R.jpg","1","0","0","",""
"","feedback","","html-keyboard-response","484","919782","0.0-1.0-663.0-0.0","0","0","35180","","null","","","null","73","","","","","","","","","","","","","","","",""
"","time_out","","html-keyboard-response","485","921785","0.0-1.0-665.0-0.0","0","0","35180","","null","","","null","73","","","","","","","","","","","","","","","",""
"","ITI","","html-keyboard-response","486","922789","0.0-1.0-666.0","0","0","35180","","null","","","null","73","","","","","","","","","","","","","","","NaN",""
"","S1","","html-keyboard-response","487","923044","0.0-1.0-668.0","0","0","35180","","null","","","null","74","","","","","","","","","","","","","","","",""
"","ISI","","html-keyboard-response","488","924049","0.0-1.0-669.0","0","0","35180","","null","","","null","74","NaN","","","","","","","","","","","","","","",""
"","S2","","html-keyboard-response","489","924303","0.0-1.0-670.0","0","0","35180","","null","","","null","74","","NaN","","","","","","","","","","","","","",""
"","response","","html-keyboard-response","490","924684","0.0-1.0-671.0-0.0","0","0","35180","","377","","","68","74","","","2","74","training","adjacent","ED","5","4","L.jpg","P.jpg","1","0","0","",""
"","feedback","","html-keyboard-response","491","925689","0.0-1.0-672.0-0.0","0","0","35180","","null","","","null","74","","","","","","","","","","","","","","","",""
"","time_out","","html-keyboard-response","492","927694","0.0-1.0-674.0-0.0","0","0","35180","","null","","","null","74","","","","","","","","","","","","","","","",""
"","ITI","","html-keyboard-response","493","928698","0.0-1.0-675.0","0","0","35180","","null","","","null","74","","","","","","","","","","","","","","","NaN",""
"","S1","","html-keyboard-response","494","928953","0.0-1.0-677.0","0","0","35180","","null","","","null","75","","","","","","","","","","","","","","","",""
"","ISI","","html-keyboard-response","495","929970","0.0-1.0-678.0","0","0","35180","","null","","","null","75","NaN","","","","","","","","","","","","","","",""
"","S2","","html-keyboard-response","496","930224","0.0-1.0-679.0","0","0","35180","","null","","","null","75","","NaN","","","","","","","","","","","","","",""
"","response","","html-keyboard-response","497","930548","0.0-1.0-680.0-0.0","0","0","35180","","321","","","68","75","","","2","75","training","adjacent","CD","3","4","Q.jpg","P.jpg","1","1","1","",""
"","feedback","","html-keyboard-response","498","931553","0.0-1.0-681.0-0.0","0","0","35180","","null","","","null","75","","","","","","","","","","","","","","","",""
"","ITI","","html-keyboard-response","499","932557","0.0-1.0-684.0","0","0","35180","","null","","","null","75","","","","","","","","","","","","","","","NaN",""
"","S1","","html-keyboard-response","500","932811","0.0-1.0-686.0","0","0","35180","","null","","","null","76","","","","","","","","","","","","","","","",""
"","ISI","","html-keyboard-response","501","933814","0.0-1.0-687.0","0","0","35180","","null","","","null","76","NaN","","","","","","","","","","","","","","",""
"","S2","","html-keyboard-response","502","934066","0.0-1.0-688.0","0","0","35180","","null","","","null","76","","NaN","","","","","","","","","","","","","",""
"","response","","html-keyboard-response","503","934500","0.0-1.0-689.0-0.0","0","0","35180","","431","","","68","76","","","2","76","training","adjacent","AB","1","2","M.jpg","R.jpg","1","1","1","",""
"","feedback","","html-keyboard-response","504","935504","0.0-1.0-690.0-0.0","0","0","35180","","null","","","null","76","","","","","","","","","","","","","","","",""
"","ITI","","html-keyboard-response","505","936507","0.0-1.0-693.0","0","0","35180","","null","","","null","76","","","","","","","","","","","","","","","NaN",""
"","S1","","html-keyboard-response","506","936759","0.0-1.0-695.0","0","0","35180","","null","","","null","77","","","","","","","","","","","","","","","",""
"","ISI","","html-keyboard-response","507","937762","0.0-1.0-696.0","0","0","35180","","null","","","null","77","NaN","","","","","","","","","","","","","","",""
"","S2","","html-keyboard-response","508","938016","0.0-1.0-697.0","0","0","35180","","null","","","null","77","","NaN","","","","","","","","","","","","","",""
"","response","","html-keyboard-response","509","938505","0.0-1.0-698.0-0.0","0","0","35180","","485","","","68","77","","","2","77","training","adjacent","BC","2","3","R.jpg","Q.jpg","1","1","1","",""
"","feedback","","html-keyboard-response","510","939510","0.0-1.0-699.0-0.0","0","0","35180","","null","","","null","77","","","","","","","","","","","","","","","",""
"","ITI","","html-keyboard-response","511","940512","0.0-1.0-702.0","0","0","35180","","null","","","null","77","","","","","","","","","","","","","","","NaN",""
"","S1","","html-keyboard-response","512","940764","0.0-1.0-704.0","0","0","35180","","null","","","null","78","","","","","","","","","","","","","","","",""
"","ISI","","html-keyboard-response","513","941767","0.0-1.0-705.0","0","0","35180","","null","","","null","78","NaN","","","","","","","","","","","","","","",""
"","S2","","html-keyboard-response","514","942019","0.0-1.0-706.0","0","0","35180","","null","","","null","78","","NaN","","","","","","","","","","","","","",""
"","response","","html-keyboard-response","515","942360","0.0-1.0-707.0-0.0","0","0","35180","","340","","","75","78","","","2","78","training","adjacent","DE","4","5","P.jpg","L.jpg","0","1","0","",""
"","feedback","","html-keyboard-response","516","943362","0.0-1.0-708.0-0.0","0","0","35180","","null","","","null","78","","","","","","","","","","","","","","","",""
"","time_out","","html-keyboard-response","517","945366","0.0-1.0-710.0-0.0","0","0","35180","","null","","","null","78","","","","","","","","","","","","","","","",""
"","ITI","","html-keyboard-response","518","946370","0.0-1.0-711.0","0","0","35180","","null","","","null","78","","","","","","","","","","","","","","","NaN",""
"","S1","","html-keyboard-response","519","946625","0.0-1.0-713.0","0","0","35180","","null","","","null","79","","","","","","","","","","","","","","","",""
"","ISI","","html-keyboard-response","520","947628","0.0-1.0-714.0","0","0","35180","","null","","","null","79","NaN","","","","","","","","","","","","","","",""
"","S2","","html-keyboard-response","521","947881","0.0-1.0-715.0","0","0","35180","","null","","","null","79","","NaN","","","","","","","","","","","","","",""
"","response","","html-keyboard-response","522","948387","0.0-1.0-716.0-0.0","0","0","35180","","504","","","75","79","","","2","79","training","adjacent","CB","3","2","Q.jpg","R.jpg","0","0","1","",""
"","feedback","","html-keyboard-response","523","949390","0.0-1.0-717.0-0.0","0","0","35180","","null","","","null","79","","","","","","","","","","","","","","","",""
"","ITI","","html-keyboard-response","524","950393","0.0-1.0-720.0","0","0","35180","","null","","","null","79","","","","","","","","","","","","","","","NaN",""
"","S1","","html-keyboard-response","525","950645","0.0-1.0-722.0","0","0","35180","","null","","","null","80","","","","","","","","","","","","","","","",""
"","ISI","","html-keyboard-response","526","951647","0.0-1.0-723.0","0","0","35180","","null","","","null","80","NaN","","","","","","","","","","","","","","",""
"","S2","","html-keyboard-response","527","951900","0.0-1.0-724.0","0","0","35180","","null","","","null","80","","NaN","","","","","","","","","","","","","",""
"","response","","html-keyboard-response","528","952312","0.0-1.0-725.0-0.0","0","0","35180","","411","","","75","80","","","2","80","training","adjacent","GF","7","6","O.jpg","N.jpg","0","0","1","",""
"","feedback","","html-keyboard-response","529","953315","0.0-1.0-726.0-0.0","0","0","35180","","null","","","null","80","","","","","","","","","","","","","","","",""
"","ITI","","html-keyboard-response","530","954317","0.0-1.0-729.0","0","0","35180","","null","","","null","80","","","","","","","","","","","","","","","NaN",""
"","S1","","html-keyboard-response","531","954569","0.0-1.0-731.0","0","0","35180","","null","","","null","81","","","","","","","","","","","","","","","",""
"","ISI","","html-keyboard-response","532","955572","0.0-1.0-732.0","0","0","35180","","null","","","null","81","NaN","","","","","","","","","","","","","","",""
"","S2","","html-keyboard-response","533","955824","0.0-1.0-733.0","0","0","35180","","null","","","null","81","","NaN","","","","","","","","","","","","","",""
"","response","","html-keyboard-response","534","956157","0.0-1.0-734.0-0.0","0","0","35180","","332","","","68","81","","","2","81","training","adjacent","FG","6","7","N.jpg","O.jpg","1","1","1","",""
"","feedback","","html-keyboard-response","535","957161","0.0-1.0-735.0-0.0","0","0","35180","","null","","","null","81","","","","","","","","","","","","","","","",""
"","ITI","","html-keyboard-response","536","958172","0.0-1.0-738.0","0","0","35180","","null","","","null","81","","","","","","","","","","","","","","","NaN",""
"","S1","","html-keyboard-response","537","958426","0.0-1.0-740.0","0","0","35180","","null","","","null","82","","","","","","","","","","","","","","","",""
"","ISI","","html-keyboard-response","538","959430","0.0-1.0-741.0","0","0","35180","","null","","","null","82","NaN","","","","","","","","","","","","","","",""
"","S2","","html-keyboard-response","539","959690","0.0-1.0-742.0","0","0","35180","","null","","","null","82","","NaN","","","","","","","","","","","","","",""
"","response","","html-keyboard-response","540","960109","0.0-1.0-743.0-0.0","0","0","35180","","415","","","68","82","","","2","82","training","adjacent","CD","3","4","Q.jpg","P.jpg","1","1","1","",""
"","feedback","","html-keyboard-response","541","961113","0.0-1.0-744.0-0.0","0","0","35180","","null","","","null","82","","","","","","","","","","","","","","","",""
"","ITI","","html-keyboard-response","542","962117","0.0-1.0-747.0","0","0","35180","","null","","","null","82","","","","","","","","","","","","","","","NaN",""
"","S1","","html-keyboard-response","543","962371","0.0-1.0-749.0","0","0","35180","","null","","","null","83","","","","","","","","","","","","","","","",""
"","ISI","","html-keyboard-response","544","963374","0.0-1.0-750.0","0","0","35180","","null","","","null","83","NaN","","","","","","","","","","","","","","",""
"","S2","","html-keyboard-response","545","963630","0.0-1.0-751.0","0","0","35180","","null","","","null","83","","NaN","","","","","","","","","","","","","",""
"","response","","html-keyboard-response","546","964009","0.0-1.0-752.0-0.0","0","0","35180","","375","","","75","83","","","2","83","training","adjacent","DE","4","5","P.jpg","L.jpg","0","1","0","",""
"","feedback","","html-keyboard-response","547","965013","0.0-1.0-753.0-0.0","0","0","35180","","null","","","null","83","","","","","","","","","","","","","","","",""
"","time_out","","html-keyboard-response","548","967017","0.0-1.0-755.0-0.0","0","0","35180","","null","","","null","83","","","","","","","","","","","","","","","",""
"","ITI","","html-keyboard-response","549","968021","0.0-1.0-756.0","0","0","35180","","null","","","null","83","","","","","","","","","","","","","","","NaN",""
"","S1","","html-keyboard-response","550","968276","0.0-1.0-758.0","0","0","35180","","null","","","null","84","","","","","","","","","","","","","","","",""
"","ISI","","html-keyboard-response","551","969280","0.0-1.0-759.0","0","0","35180","","null","","","null","84","NaN","","","","","","","","","","","","","","",""
"","S2","","html-keyboard-response","552","969534","0.0-1.0-760.0","0","0","35180","","null","","","null","84","","NaN","","","","","","","","","","","","","",""
"","response","","html-keyboard-response","553","969919","0.0-1.0-761.0-0.0","0","0","35180","","381","","","75","84","","","2","84","training","adjacent","FE","6","5","N.jpg","L.jpg","0","0","1","",""
"","feedback","","html-keyboard-response","554","970923","0.0-1.0-762.0-0.0","0","0","35180","","null","","","null","84","","","","","","","","","","","","","","","",""
"","ITI","","html-keyboard-response","555","971927","0.0-1.0-765.0","0","0","35180","","null","","","null","84","","","","","","","","","","","","","","","NaN",""
"","S1","","html-keyboard-response","556","972180","0.0-1.0-767.0","0","0","35180","","null","","","null","85","","","","","","","","","","","","","","","",""
"","ISI","","html-keyboard-response","557","973184","0.0-1.0-768.0","0","0","35180","","null","","","null","85","NaN","","","","","","","","","","","","","","",""
"","S2","","html-keyboard-response","558","973439","0.0-1.0-769.0","0","0","35180","","null","","","null","85","","NaN","","","","","","","","","","","","","",""
"","response","","html-keyboard-response","559","973984","0.0-1.0-770.0-0.0","0","0","35180","","543","","","75","85","","","2","85","training","adjacent","AB","1","2","M.jpg","R.jpg","0","1","0","",""
"","feedback","","html-keyboard-response","560","974989","0.0-1.0-771.0-0.0","0","0","35180","","null","","","null","85","","","","","","","","","","","","","","","",""
"","time_out","","html-keyboard-response","561","976994","0.0-1.0-773.0-0.0","0","0","35180","","null","","","null","85","","","","","","","","","","","","","","","",""
"","ITI","","html-keyboard-response","562","977997","0.0-1.0-774.0","0","0","35180","","null","","","null","85","","","","","","","","","","","","","","","NaN",""
"","S1","","html-keyboard-response","563","978252","0.0-1.0-776.0","0","0","35180","","null","","","null","86","","","","","","","","","","","","","","","",""
"","ISI","","html-keyboard-response","564","979255","0.0-1.0-777.0","0","0","35180","","null","","","null","86","NaN","","","","","","","","","","","","","","",""
"","S2","","html-keyboard-response","565","979509","0.0-1.0-778.0","0","0","35180","","null","","","null","86","","NaN","","","","","","","","","","","","","",""
"","response","","html-keyboard-response","566","979827","0.0-1.0-779.0-0.0","0","0","35180","","315","","","75","86","","","2","86","training","adjacent","BA","2","1","R.jpg","M.jpg","0","0","1","",""
"","feedback","","html-keyboard-response","567","980831","0.0-1.0-780.0-0.0","0","0","35180","","null","","","null","86","","","","","","","","","","","","","","","",""
"","ITI","","html-keyboard-response","568","981840","0.0-1.0-783.0","0","0","35180","","null","","","null","86","","","","","","","","","","","","","","","NaN",""
"","S1","","html-keyboard-response","569","982093","0.0-1.0-785.0","0","0","35180","","null","","","null","87","","","","","","","","","","","","","","","",""
"","ISI","","html-keyboard-response","570","983097","0.0-1.0-786.0","0","0","35180","","null","","","null","87","NaN","","","","","","","","","","","","","","",""
"","S2","","html-keyboard-response","571","983352","0.0-1.0-787.0","0","0","35180","","null","","","null","87","","NaN","","","","","","","","","","","","","",""
"","response","","html-keyboard-response","572","983776","0.0-1.0-788.0-0.0","0","0","35180","","421","","","68","87","","","2","87","training","adjacent","DE","4","5","P.jpg","L.jpg","1","1","1","",""
"","feedback","","html-keyboard-response","573","984782","0.0-1.0-789.0-0.0","0","0","35180","","null","","","null","87","","","","","","","","","","","","","","","",""
"","ITI","","html-keyboard-response","574","985786","0.0-1.0-792.0","0","0","35180","","null","","","null","87","","","","","","","","","","","","","","","NaN",""
"","S1","","html-keyboard-response","575","986041","0.0-1.0-794.0","0","0","35180","","null","","","null","88","","","","","","","","","","","","","","","",""
"","ISI","","html-keyboard-response","576","987045","0.0-1.0-795.0","0","0","35180","","null","","","null","88","NaN","","","","","","","","","","","","","","",""
"","S2","","html-keyboard-response","577","987298","0.0-1.0-796.0","0","0","35180","","null","","","null","88","","NaN","","","","","","","","","","","","","",""
"","response","","html-keyboard-response","578","987647","0.0-1.0-797.0-0.0","0","0","35180","","345","","","68","88","","","2","88","training","adjacent","GF","7","6","O.jpg","N.jpg","1","0","0","",""
"","feedback","","html-keyboard-response","579","988651","0.0-1.0-798.0-0.0","0","0","35180","","null","","","null","88","","","","","","","","","","","","","","","",""
"","time_out","","html-keyboard-response","580","990655","0.0-1.0-800.0-0.0","0","0","35180","","null","","","null","88","","","","","","","","","","","","","","","",""
"","ITI","","html-keyboard-response","581","991660","0.0-1.0-801.0","0","0","35180","","null","","","null","88","","","","","","","","","","","","","","","NaN",""
"","S1","","html-keyboard-response","582","991915","0.0-1.0-803.0","0","0","35180","","null","","","null","89","","","","","","","","","","","","","","","",""
