"success","ttype","start_time","trial_type","trial_index","time_elapsed","internal_node_id","warning","missed_checkup","PID","view_history","rt","responses","repeat_instructions","key_press","index","keypress_isi","keypress_S2","block","trial_num","phase","group_type","pair_type","S1_stim","S2_stim","S1_img","S2_img","S1_chosen","S1_higher","accuracy","keypress_iti","total_bonus_tally"
"true","full_screen","d04152023hr0157","fullscreen","0","18945","0.0-0.0","0","0","18767","","","","","","","","","","","","","","","","","","","","","",""
"","instructions","","instructions","1","104843","0.0-1.0-0.0-0.0","0","0","18767","[{""page_index"":0,""viewing_time"":7363},{""page_index"":1,""viewing_time"":32784},{""page_index"":2,""viewing_time"":41194},{""page_index"":3,""viewing_time"":4553}]","85896","","","","","","","","","","","","","","","","","","","",""
"","comprehension_check","","survey-multi-choice","2","132087","0.0-1.0-0.0-1.0","0","0","18767","","27238","{""Q0"":""True"",""Q1"":""K"",""Q2"":""Only when the screen 'MAKE A CHOICE' is shown"",""Q3"":""Green mark"",""Q4"":""either D or K""}","1","","","","","","","","","","","","","","","","","",""
"","missed_instruction_checkup","","html-keyboard-response","3","134802","0.0-1.0-0.0-2.0-0.0","0","1","18767","","2712","","","32","","","","","","","","","","","","","","","","",""
"","instructions","","instructions","4","184127","0.0-1.0-0.1-0.1","0","0","18767","[{""page_index"":0,""viewing_time"":7851},{""page_index"":1,""viewing_time"":34290},{""page_index"":2,""viewing_time"":6172},{""page_index"":3,""viewing_time"":1009}]","49323","","","","","","","","","","","","","","","","","","","",""
"","comprehension_check","","survey-multi-choice","5","203971","0.0-1.0-0.1-1.1","0","0","18767","","19836","{""Q0"":""True"",""Q1"":""K"",""Q2"":""Once the second image appears and while the screen 'MAKE A CHOICE' is shown"",""Q3"":""Green mark"",""Q4"":""either D or K""}","0","","","","","","","","","","","","","","","","","",""
"","start_exp","","html-keyboard-response","6","205580","0.0-1.0-1.0","0","0","18767","","1607","","","32","","","","","","","","","","","","","","","","",""
"","S1","","html-keyboard-response","7","205837","0.0-1.0-2.0","0","0","18767","","null","","","null","0","","","","","","","","","","","","","","","",""
"","ISI","","html-keyboard-response","8","206843","0.0-1.0-3.0","0","0","18767","","null","","","null","0","NaN","","","","","","","","","","","","","","",""
"","S2","","html-keyboard-response","9","207099","0.0-1.0-4.0","0","0","18767","","null","","","null","0","","NaN","","","","","","","","","","","","","",""
"","response","","html-keyboard-response","10","208094","0.0-1.0-5.0-0.0","0","0","18767","","993","","","75","0","","","1","0","training","adjacent","DE","4","5","L.jpg","R.jpg","1","1","1","",""
"","feedback","","html-keyboard-response","11","209099","0.0-1.0-6.0-0.0","0","0","18767","","null","","","null","0","","","","","","","","","","","","","","","",""
"","ITI","","html-keyboard-response","12","210103","0.0-1.0-9.0","0","0","18767","","null","","","null","0","","","","","","","","","","","","","","","NaN",""
"","S1","","html-keyboard-response","13","210358","0.0-1.0-11.0","0","0","18767","","null","","","null","1","","","","","","","","","","","","","","","",""
"","ISI","","html-keyboard-response","14","211363","0.0-1.0-12.0","0","0","18767","","null","","","null","1","NaN","","","","","","","","","","","","","","",""
"","S2","","html-keyboard-response","15","211618","0.0-1.0-13.0","0","0","18767","","null","","","null","1","","NaN","","","","","","","","","","","","","",""
"","response","","html-keyboard-response","16","211929","0.0-1.0-14.0-0.0","0","0","18767","","309","","","68","1","","","1","1","training","adjacent","EF","5","6","R.jpg","P.jpg","0","1","0","",""
"","feedback","","html-keyboard-response","17","212936","0.0-1.0-15.0-0.0","0","0","18767","","null","","","null","1","","","","","","","","","","","","","","","",""
"","time_out","","html-keyboard-response","18","214939","0.0-1.0-17.0-0.0","0","0","18767","","null","","","null","1","","","","","","","","","","","","","","","",""
"","ITI","","html-keyboard-response","19","215946","0.0-1.0-18.0","0","0","18767","","null","","","null","1","","","","","","","","","","","","","","","NaN",""
"","S1","","html-keyboard-response","20","216202","0.0-1.0-20.0","0","0","18767","","null","","","null","2","","","","","","","","","","","","","","","",""
"","ISI","","html-keyboard-response","21","217208","0.0-1.0-21.0","0","0","18767","","355","","","75","2","k","","","","","","","","","","","","","","",""
"","S2","","html-keyboard-response","22","217464","0.0-1.0-22.0","0","0","18767","","null","","","null","2","","NaN","","","","","","","","","","","","","",""
"","response","","html-keyboard-response","23","217924","0.0-1.0-23.0-0.0","0","0","18767","","459","","","75","2","","","1","2","training","adjacent","BA","2","1","Q.jpg","N.jpg","1","0","0","",""
"","feedback","","html-keyboard-response","24","218927","0.0-1.0-24.0-0.0","0","0","18767","","null","","","null","2","","","","","","","","","","","","","","","",""
"","time_out","","html-keyboard-response","25","220929","0.0-1.0-26.0-0.0","0","0","18767","","null","","","null","2","","","","","","","","","","","","","","","",""
"","ITI","","html-keyboard-response","26","221933","0.0-1.0-27.0","0","0","18767","","null","","","null","2","","","","","","","","","","","","","","","NaN",""
"","S1","","html-keyboard-response","27","222188","0.0-1.0-29.0","0","0","18767","","null","","","null","3","","","","","","","","","","","","","","","",""
"","ISI","","html-keyboard-response","28","223194","0.0-1.0-30.0","0","0","18767","","194","","","68","3","d","","","","","","","","","","","","","","",""
"","S2","","html-keyboard-response","29","223447","0.0-1.0-31.0","0","0","18767","","252","","","68","3","","d","1","3","training","adjacent","CD","3","4","M.jpg","L.jpg","0","1","0","",""
"","feedback","","html-keyboard-response","30","224457","0.0-1.0-33.0-0.0","0","0","18767","","null","","","null","3","","","","","","","","","","","","","","","",""
"","time_out","","html-keyboard-response","31","226460","0.0-1.0-35.0-0.0","0","0","18767","","null","","","null","3","","","","","","","","","","","","","","","",""
"","ITI","","html-keyboard-response","32","227466","0.0-1.0-36.0","0","0","18767","","null","","","null","3","","","","","","","","","","","","","","","NaN",""
"","S1","","html-keyboard-response","33","227723","0.0-1.0-38.0","0","0","18767","","null","","","null","4","","","","","","","","","","","","","","","",""
"","ISI","","html-keyboard-response","34","228730","0.0-1.0-39.0","0","0","18767","","null","","","null","4","NaN","","","","","","","","","","","","","","",""
"","S2","","html-keyboard-response","35","228987","0.0-1.0-40.0","0","0","18767","","null","","","null","4","","NaN","","","","","","","","","","","","","",""
"","response","","html-keyboard-response","36","229495","0.0-1.0-41.0-0.0","0","0","18767","","507","","","68","4","","","1","4","training","adjacent","DC","4","3","L.jpg","M.jpg","0","0","1","",""
"","feedback","","html-keyboard-response","37","230502","0.0-1.0-42.0-0.0","0","0","18767","","null","","","null","4","","","","","","","","","","","","","","","",""
"","ITI","","html-keyboard-response","38","231509","0.0-1.0-45.0","0","0","18767","","null","","","null","4","","","","","","","","","","","","","","","NaN",""
"","S1","","html-keyboard-response","39","231761","0.0-1.0-47.0","0","0","18767","","null","","","null","5","","","","","","","","","","","","","","","",""
"","ISI","","html-keyboard-response","40","232766","0.0-1.0-48.0","0","0","18767","","null","","","null","5","NaN","","","","","","","","","","","","","","",""
"","S2","","html-keyboard-response","41","233020","0.0-1.0-49.0","0","0","18767","","null","","","null","5","","NaN","","","","","","","","","","","","","",""
"","response","","html-keyboard-response","42","233843","0.0-1.0-50.0-0.0","0","0","18767","","820","","","75","5","","","1","5","training","adjacent","GF","7","6","O.jpg","P.jpg","1","0","0","",""
"","feedback","","html-keyboard-response","43","234855","0.0-1.0-51.0-0.0","0","0","18767","","null","","","null","5","","","","","","","","","","","","","","","",""
"","time_out","","html-keyboard-response","44","236861","0.0-1.0-53.0-0.0","0","0","18767","","null","","","null","5","","","","","","","","","","","","","","","",""
"","ITI","","html-keyboard-response","45","237868","0.0-1.0-54.0","0","0","18767","","null","","","null","5","","","","","","","","","","","","","","","NaN",""
"","S1","","html-keyboard-response","46","238124","0.0-1.0-56.0","0","0","18767","","null","","","null","6","","","","","","","","","","","","","","","",""
"","ISI","","html-keyboard-response","47","239130","0.0-1.0-57.0","0","0","18767","","null","","","null","6","NaN","","","","","","","","","","","","","","",""
"","S2","","html-keyboard-response","48","239383","0.0-1.0-58.0","0","0","18767","","null","","","null","6","","NaN","","","","","","","","","","","","","",""
"","response","","html-keyboard-response","49","239809","0.0-1.0-59.0-0.0","0","0","18767","","424","","","68","6","","","1","6","training","adjacent","BC","2","3","Q.jpg","M.jpg","0","1","0","",""
"","feedback","","html-keyboard-response","50","240817","0.0-1.0-60.0-0.0","0","0","18767","","null","","","null","6","","","","","","","","","","","","","","","",""
"","time_out","","html-keyboard-response","51","242820","0.0-1.0-62.0-0.0","0","0","18767","","null","","","null","6","","","","","","","","","","","","","","","",""
"","ITI","","html-keyboard-response","52","243828","0.0-1.0-63.0","0","0","18767","","null","","","null","6","","","","","","","","","","","","","","","NaN",""
"","S1","","html-keyboard-response","53","244083","0.0-1.0-65.0","0","0","18767","","null","","","null","7","","","","","","","","","","","","","","","",""
"","ISI","","html-keyboard-response","54","245090","0.0-1.0-66.0","0","0","18767","","null","","","null","7","NaN","","","","","","","","","","","","","","",""
"","S2","","html-keyboard-response","55","245345","0.0-1.0-67.0","0","0","18767","","null","","","null","7","","NaN","","","","","","","","","","","","","",""
"","response","","html-keyboard-response","56","245375","0.0-1.0-68.0-0.0","0","0","18767","","29","","","75","7","","","1","7","training","adjacent","BC","2","3","Q.jpg","M.jpg","1","1","1","",""
"","feedback","","html-keyboard-response","57","246383","0.0-1.0-69.0-0.0","0","0","18767","","null","","","null","7","","","","","","","","","","","","","","","",""
"","ITI","","html-keyboard-response","58","247388","0.0-1.0-72.0","0","0","18767","","null","","","null","7","","","","","","","","","","","","","","","NaN",""
"","S1","","html-keyboard-response","59","247642","0.0-1.0-74.0","0","0","18767","","null","","","null","8","","","","","","","","","","","","","","","",""
"","ISI","","html-keyboard-response","60","248648","0.0-1.0-75.0","0","0","18767","","null","","","null","8","NaN","","","","","","","","","","","","","","",""
"","S2","","html-keyboard-response","61","248903","0.0-1.0-76.0","0","0","18767","","null","","","null","8","","NaN","","","","","","","","","","","","","",""
"","response","","html-keyboard-response","62","248963","0.0-1.0-77.0-0.0","0","0","18767","","58","","","68","8","","","1","8","training","adjacent","FE","6","5","P.jpg","R.jpg","0","0","1","",""
"","feedback","","html-keyboard-response","63","249968","0.0-1.0-78.0-0.0","0","0","18767","","null","","","null","8","","","","","","","","","","","","","","","",""
"","ITI","","html-keyboard-response","64","250975","0.0-1.0-81.0","0","0","18767","","null","","","null","8","","","","","","","","","","","","","","","NaN",""
"","S1","","html-keyboard-response","65","251233","0.0-1.0-83.0","0","0","18767","","null","","","null","9","","","","","","","","","","","","","","","",""
"","ISI","","html-keyboard-response","66","252236","0.0-1.0-84.0","0","0","18767","","null","","","null","9","NaN","","","","","","","","","","","","","","",""
"","S2","","html-keyboard-response","67","252491","0.0-1.0-85.0","0","0","18767","","null","","","null","9","","NaN","","","","","","","","","","","","","",""
"","response","","html-keyboard-response","68","252511","0.0-1.0-86.0-0.0","0","0","18767","","17","","","68","9","","","1","9","training","adjacent","FG","6","7","P.jpg","O.jpg","0","1","0","",""
"","feedback","","html-keyboard-response","69","253519","0.0-1.0-87.0-0.0","0","0","18767","","null","","","null","9","","","","","","","","","","","","","","","",""
"","time_out","","html-keyboard-response","70","255521","0.0-1.0-89.0-0.0","0","0","18767","","null","","","null","9","","","","","","","","","","","","","","","",""
"","ITI","","html-keyboard-response","71","256526","0.0-1.0-90.0","0","0","18767","","null","","","null","9","","","","","","","","","","","","","","","NaN",""
"","S1","","html-keyboard-response","72","256781","0.0-1.0-92.0","0","0","18767","","null","","","null","10","","","","","","","","","","","","","","","",""
"","ISI","","html-keyboard-response","73","257785","0.0-1.0-93.0","0","0","18767","","null","","","null","10","NaN","","","","","","","","","","","","","","",""
"","S2","","html-keyboard-response","74","258041","0.0-1.0-94.0","0","0","18767","","null","","","null","10","","NaN","","","","","","","","","","","","","",""
"","response","","html-keyboard-response","75","258336","0.0-1.0-95.0-0.0","0","0","18767","","293","","","68","10","","","1","10","training","adjacent","EF","5","6","R.jpg","P.jpg","0","1","0","",""
"","feedback","","html-keyboard-response","76","259341","0.0-1.0-96.0-0.0","0","0","18767","","null","","","null","10","","","","","","","","","","","","","","","",""
"","time_out","","html-keyboard-response","77","261346","0.0-1.0-98.0-0.0","0","0","18767","","null","","","null","10","","","","","","","","","","","","","","","",""
"","ITI","","html-keyboard-response","78","262353","0.0-1.0-99.0","0","0","18767","","null","","","null","10","","","","","","","","","","","","","","","NaN",""
"","S1","","html-keyboard-response","79","262609","0.0-1.0-101.0","0","0","18767","","null","","","null","11","","","","","","","","","","","","","","","",""
"","ISI","","html-keyboard-response","80","263616","0.0-1.0-102.0","0","0","18767","","null","","","null","11","NaN","","","","","","","","","","","","","","",""
"","S2","","html-keyboard-response","81","263874","0.0-1.0-103.0","0","0","18767","","null","","","null","11","","NaN","","","","","","","","","","","","","",""
"","response","","html-keyboard-response","82","264232","0.0-1.0-104.0-0.0","0","0","18767","","356","","","75","11","","","1","11","training","adjacent","CD","3","4","M.jpg","L.jpg","1","1","1","",""
"","feedback","","html-keyboard-response","83","265239","0.0-1.0-105.0-0.0","0","0","18767","","null","","","null","11","","","","","","","","","","","","","","","",""
"","ITI","","html-keyboard-response","84","266249","0.0-1.0-108.0","0","0","18767","","null","","","null","11","","","","","","","","","","","","","","","NaN",""
"","S1","","html-keyboard-response","85","266504","0.0-1.0-110.0","0","0","18767","","null","","","null","12","","","","","","","","","","","","","","","",""
"","ISI","","html-keyboard-response","86","267509","0.0-1.0-111.0","0","0","18767","","null","","","null","12","NaN","","","","","","","","","","","","","","",""
"","S2","","html-keyboard-response","87","267764","0.0-1.0-112.0","0","0","18767","","null","","","null","12","","NaN","","","","","","","","","","","","","",""
"","response","","html-keyboard-response","88","268362","0.0-1.0-113.0-0.0","0","0","18767","","596","","","75","12","","","1","12","training","adjacent","BA","2","1","Q.jpg","N.jpg","1","0","0","",""
"","feedback","","html-keyboard-response","89","269366","0.0-1.0-114.0-0.0","0","0","18767","","null","","","null","12","","","","","","","","","","","","","","","",""
"","time_out","","html-keyboard-response","90","271372","0.0-1.0-116.0-0.0","0","0","18767","","null","","","null","12","","","","","","","","","","","","","","","",""
"","ITI","","html-keyboard-response","91","272379","0.0-1.0-117.0","0","0","18767","","null","","","null","12","","","","","","","","","","","","","","","NaN",""
"","S1","","html-keyboard-response","92","272634","0.0-1.0-119.0","0","0","18767","","null","","","null","13","","","","","","","","","","","","","","","",""
"","ISI","","html-keyboard-response","93","273640","0.0-1.0-120.0","0","0","18767","","null","","","null","13","NaN","","","","","","","","","","","","","","",""
"","S2","","html-keyboard-response","94","273894","0.0-1.0-121.0","0","0","18767","","null","","","null","13","","NaN","","","","","","","","","","","","","",""
"","response","","html-keyboard-response","95","274258","0.0-1.0-122.0-0.0","0","0","18767","","361","","","75","13","","","1","13","training","adjacent","GF","7","6","O.jpg","P.jpg","1","0","0","",""
"","feedback","","html-keyboard-response","96","275264","0.0-1.0-123.0-0.0","0","0","18767","","null","","","null","13","","","","","","","","","","","","","","","",""
"","time_out","","html-keyboard-response","97","277266","0.0-1.0-125.0-0.0","0","0","18767","","null","","","null","13","","","","","","","","","","","","","","","",""
"","ITI","","html-keyboard-response","98","278273","0.0-1.0-126.0","0","0","18767","","null","","","null","13","","","","","","","","","","","","","","","NaN",""
"","S1","","html-keyboard-response","99","278529","0.0-1.0-128.0","0","0","18767","","null","","","null","14","","","","","","","","","","","","","","","",""
"","ISI","","html-keyboard-response","100","279535","0.0-1.0-129.0","0","0","18767","","null","","","null","14","NaN","","","","","","","","","","","","","","",""
"","S2","","html-keyboard-response","101","279792","0.0-1.0-130.0","0","0","18767","","null","","","null","14","","NaN","","","","","","","","","","","","","",""
"","response","","html-keyboard-response","102","279828","0.0-1.0-131.0-0.0","0","0","18767","","35","","","75","14","","","1","14","training","adjacent","ED","5","4","R.jpg","L.jpg","1","0","0","",""
"","feedback","","html-keyboard-response","103","280835","0.0-1.0-132.0-0.0","0","0","18767","","null","","","null","14","","","","","","","","","","","","","","","",""
"","time_out","","html-keyboard-response","104","282840","0.0-1.0-134.0-0.0","0","0","18767","","null","","","null","14","","","","","","","","","","","","","","","",""
"","ITI","","html-keyboard-response","105","283843","0.0-1.0-135.0","0","0","18767","","null","","","null","14","","","","","","","","","","","","","","","NaN",""
"","S1","","html-keyboard-response","106","284101","0.0-1.0-137.0","0","0","18767","","null","","","null","15","","","","","","","","","","","","","","","",""
"","ISI","","html-keyboard-response","107","285103","0.0-1.0-138.0","0","0","18767","","null","","","null","15","NaN","","","","","","","","","","","","","","",""
"","S2","","html-keyboard-response","108","285362","0.0-1.0-139.0","0","0","18767","","null","","","null","15","","NaN","","","","","","","","","","","","","",""
"","response","","html-keyboard-response","109","285451","0.0-1.0-140.0-0.0","0","0","18767","","87","","","68","15","","","1","15","training","adjacent","AB","1","2","N.jpg","Q.jpg","0","1","0","",""
"","feedback","","html-keyboard-response","110","286454","0.0-1.0-141.0-0.0","0","0","18767","","null","","","null","15","","","","","","","","","","","","","","","",""
"","time_out","","html-keyboard-response","111","288464","0.0-1.0-143.0-0.0","0","0","18767","","null","","","null","15","","","","","","","","","","","","","","","",""
"","ITI","","html-keyboard-response","112","289470","0.0-1.0-144.0","0","0","18767","","null","","","null","15","","","","","","","","","","","","","","","NaN",""
"","S1","","html-keyboard-response","113","289724","0.0-1.0-146.0","0","0","18767","","null","","","null","16","","","","","","","","","","","","","","","",""
"","ISI","","html-keyboard-response","114","290728","0.0-1.0-147.0","0","0","18767","","null","","","null","16","NaN","","","","","","","","","","","","","","",""
"","S2","","html-keyboard-response","115","290985","0.0-1.0-148.0","0","0","18767","","null","","","null","16","","NaN","","","","","","","","","","","","","",""
"","response","","html-keyboard-response","116","291422","0.0-1.0-149.0-0.0","0","0","18767","","434","","","68","16","","","1","16","training","adjacent","FE","6","5","P.jpg","R.jpg","0","0","1","",""
"","feedback","","html-keyboard-response","117","292430","0.0-1.0-150.0-0.0","0","0","18767","","null","","","null","16","","","","","","","","","","","","","","","",""
"","ITI","","html-keyboard-response","118","293437","0.0-1.0-153.0","0","0","18767","","null","","","null","16","","","","","","","","","","","","","","","NaN",""
"","S1","","html-keyboard-response","119","293695","0.0-1.0-155.0","0","0","18767","","null","","","null","17","","","","","","","","","","","","","","","",""
"","ISI","","html-keyboard-response","120","294699","0.0-1.0-156.0","0","0","18767","","null","","","null","17","NaN","","","","","","","","","","","","","","",""
"","S2","","html-keyboard-response","121","294955","0.0-1.0-157.0","0","0","18767","","null","","","null","17","","NaN","","","","","","","","","","","","","",""
"","response","","html-keyboard-response","122","295245","0.0-1.0-158.0-0.0","0","0","18767","","288","","","68","17","","","1","17","training","adjacent","AB","1","2","N.jpg","Q.jpg","0","1","0","",""
"","feedback","","html-keyboard-response","123","296249","0.0-1.0-159.0-0.0","0","0","18767","","null","","","null","17","","","","","","","","","","","","","","","",""
"","time_out","","html-keyboard-response","124","298253","0.0-1.0-161.0-0.0","0","0","18767","","null","","","null","17","","","","","","","","","","","","","","","",""
"","ITI","","html-keyboard-response","125","299260","0.0-1.0-162.0","0","0","18767","","null","","","null","17","","","","","","","","","","","","","","","NaN",""
"","S1","","html-keyboard-response","126","299517","0.0-1.0-164.0","0","0","18767","","null","","","null","18","","","","","","","","","","","","","","","",""
"","ISI","","html-keyboard-response","127","300521","0.0-1.0-165.0","0","0","18767","","null","","","null","18","NaN","","","","","","","","","","","","","","",""
"","S2","","html-keyboard-response","128","300779","0.0-1.0-166.0","0","0","18767","","null","","","null","18","","NaN","","","","","","","","","","","","","",""
"","response","","html-keyboard-response","129","301174","0.0-1.0-167.0-0.0","0","0","18767","","393","","","68","18","","","1","18","training","adjacent","FE","6","5","P.jpg","R.jpg","0","0","1","",""
"","feedback","","html-keyboard-response","130","302182","0.0-1.0-168.0-0.0","0","0","18767","","null","","","null","18","","","","","","","","","","","","","","","",""
"","ITI","","html-keyboard-response","131","303189","0.0-1.0-171.0","0","0","18767","","null","","","null","18","","","","","","","","","","","","","","","NaN",""
"","S1","","html-keyboard-response","132","303441","0.0-1.0-173.0","0","0","18767","","null","","","null","19","","","","","","","","","","","","","","","",""
"","ISI","","html-keyboard-response","133","304446","0.0-1.0-174.0","0","0","18767","","null","","","null","19","NaN","","","","","","","","","","","","","","",""
"","S2","","html-keyboard-response","134","304681","0.0-1.0-175.0","0","0","18767","","232","","","75","19","","k","1","19","training","adjacent","BA","2","1","Q.jpg","N.jpg","1","0","0","",""
"","feedback","","html-keyboard-response","135","305688","0.0-1.0-177.0-0.0","0","0","18767","","null","","","null","19","","","","","","","","","","","","","","","",""
"","time_out","","html-keyboard-response","136","307691","0.0-1.0-179.0-0.0","0","0","18767","","null","","","null","19","","","","","","","","","","","","","","","",""
"","ITI","","html-keyboard-response","137","308698","0.0-1.0-180.0","0","0","18767","","null","","","null","19","","","","","","","","","","","","","","","NaN",""
"","S1","","html-keyboard-response","138","308955","0.0-1.0-182.0","0","0","18767","","null","","","null","20","","","","","","","","","","","","","","","",""
"","ISI","","html-keyboard-response","139","309963","0.0-1.0-183.0","0","0","18767","","null","","","null","20","NaN","","","","","","","","","","","","","","",""
"","S2","","html-keyboard-response","140","310215","0.0-1.0-184.0","0","0","18767","","null","","","null","20","","NaN","","","","","","","","","","","","","",""
"","response","","html-keyboard-response","141","310443","0.0-1.0-185.0-0.0","0","0","18767","","226","","","68","20","","","1","20","training","adjacent","CB","3","2","M.jpg","Q.jpg","0","0","1","",""
"","feedback","","html-keyboard-response","142","311446","0.0-1.0-186.0-0.0","0","0","18767","","null","","","null","20","","","","","","","","","","","","","","","",""
"","ITI","","html-keyboard-response","143","312451","0.0-1.0-189.0","0","0","18767","","null","","","null","20","","","","","","","","","","","","","","","NaN",""
"","S1","","html-keyboard-response","144","312706","0.0-1.0-191.0","0","0","18767","","null","","","null","21","","","","","","","","","","","","","","","",""
"","ISI","","html-keyboard-response","145","313710","0.0-1.0-192.0","0","0","18767","","null","","","null","21","NaN","","","","","","","","","","","","","","",""
"","S2","","html-keyboard-response","146","313966","0.0-1.0-193.0","0","0","18767","","null","","","null","21","","NaN","","","","","","","","","","","","","",""
"","response","","html-keyboard-response","147","314005","0.0-1.0-194.0-0.0","0","0","18767","","37","","","68","21","","","1","21","training","adjacent","ED","5","4","R.jpg","L.jpg","0","0","1","",""
"","feedback","","html-keyboard-response","148","315011","0.0-1.0-195.0-0.0","0","0","18767","","null","","","null","21","","","","","","","","","","","","","","","",""
"","ITI","","html-keyboard-response","149","316018","0.0-1.0-198.0","0","0","18767","","null","","","null","21","","","","","","","","","","","","","","","NaN",""
"","S1","","html-keyboard-response","150","316274","0.0-1.0-200.0","0","0","18767","","null","","","null","22","","","","","","","","","","","","","","","",""
"","ISI","","html-keyboard-response","151","317280","0.0-1.0-201.0","0","0","18767","","null","","","null","22","NaN","","","","","","","","","","","","","","",""
"","S2","","html-keyboard-response","152","317536","0.0-1.0-202.0","0","0","18767","","null","","","null","22","","NaN","","","","","","","","","","","","","",""
"","response","","html-keyboard-response","153","317557","0.0-1.0-203.0-0.0","0","0","18767","","19","","","75","22","","","1","22","training","adjacent","FE","6","5","P.jpg","R.jpg","1","0","0","",""
"","feedback","","html-keyboard-response","154","318563","0.0-1.0-204.0-0.0","0","0","18767","","null","","","null","22","","","","","","","","","","","","","","","",""
"","time_out","","html-keyboard-response","155","320566","0.0-1.0-206.0-0.0","0","0","18767","","null","","","null","22","","","","","","","","","","","","","","","",""
"","ITI","","html-keyboard-response","156","321570","0.0-1.0-207.0","0","0","18767","","null","","","null","22","","","","","","","","","","","","","","","NaN",""
"","S1","","html-keyboard-response","157","321826","0.0-1.0-209.0","0","0","18767","","null","","","null","23","","","","","","","","","","","","","","","",""
"","ISI","","html-keyboard-response","158","322830","0.0-1.0-210.0","0","0","18767","","null","","","null","23","NaN","","","","","","","","","","","","","","",""
"","S2","","html-keyboard-response","159","323085","0.0-1.0-211.0","0","0","18767","","null","","","null","23","","NaN","","","","","","","","","","","","","",""
"","response","","html-keyboard-response","160","323106","0.0-1.0-212.0-0.0","0","0","18767","","18","","","68","23","","","1","23","training","adjacent","DE","4","5","L.jpg","R.jpg","0","1","0","",""
"","feedback","","html-keyboard-response","161","324112","0.0-1.0-213.0-0.0","0","0","18767","","null","","","null","23","","","","","","","","","","","","","","","",""
"","time_out","","html-keyboard-response","162","326116","0.0-1.0-215.0-0.0","0","0","18767","","null","","","null","23","","","","","","","","","","","","","","","",""
"","ITI","","html-keyboard-response","163","327123","0.0-1.0-216.0","0","0","18767","","null","","","null","23","","","","","","","","","","","","","","","NaN",""
"","S1","","html-keyboard-response","164","327379","0.0-1.0-218.0","0","0","18767","","null","","","null","24","","","","","","","","","","","","","","","",""
"","ISI","","html-keyboard-response","165","328385","0.0-1.0-219.0","0","0","18767","","null","","","null","24","NaN","","","","","","","","","","","","","","",""
"","S2","","html-keyboard-response","166","328641","0.0-1.0-220.0","0","0","18767","","null","","","null","24","","NaN","","","","","","","","","","","","","",""
"","response","","html-keyboard-response","167","328747","0.0-1.0-221.0-0.0","0","0","18767","","103","","","75","24","","","1","24","training","adjacent","CB","3","2","M.jpg","Q.jpg","1","0","0","",""
"","feedback","","html-keyboard-response","168","329754","0.0-1.0-222.0-0.0","0","0","18767","","null","","","null","24","","","","","","","","","","","","","","","",""
"","time_out","","html-keyboard-response","169","331757","0.0-1.0-224.0-0.0","0","0","18767","","null","","","null","24","","","","","","","","","","","","","","","",""
"","ITI","","html-keyboard-response","170","332762","0.0-1.0-225.0","0","0","18767","","null","","","null","24","","","","","","","","","","","","","","","NaN",""
"","S1","","html-keyboard-response","171","333018","0.0-1.0-227.0","0","0","18767","","null","","","null","25","","","","","","","","","","","","","","","",""
"","ISI","","html-keyboard-response","172","334022","0.0-1.0-228.0","0","0","18767","","null","","","null","25","NaN","","","","","","","","","","","","","","",""
"","S2","","html-keyboard-response","173","334280","0.0-1.0-229.0","0","0","18767","","null","","","null","25","","NaN","","","","","","","","","","","","","",""
"","response","","html-keyboard-response","174","334676","0.0-1.0-230.0-0.0","0","0","18767","","394","","","68","25","","","1","25","training","adjacent","GF","7","6","O.jpg","P.jpg","0","0","1","",""
"","feedback","","html-keyboard-response","175","335682","0.0-1.0-231.0-0.0","0","0","18767","","null","","","null","25","","","","","","","","","","","","","","","",""
"","ITI","","html-keyboard-response","176","336691","0.0-1.0-234.0","0","0","18767","","null","","","null","25","","","","","","","","","","","","","","","NaN",""
"","S1","","html-keyboard-response","177","336948","0.0-1.0-236.0","0","0","18767","","null","","","null","26","","","","","","","","","","","","","","","",""
"","ISI","","html-keyboard-response","178","337952","0.0-1.0-237.0","0","0","18767","","null","","","null","26","NaN","","","","","","","","","","","","","","",""
"","S2","","html-keyboard-response","179","338206","0.0-1.0-238.0","0","0","18767","","null","","","null","26","","NaN","","","","","","","","","","","","","",""
"","response","","html-keyboard-response","180","338465","0.0-1.0-239.0-0.0","0","0","18767","","257","","","75","26","","","1","26","training","adjacent","CD","3","4","M.jpg","L.jpg","1","1","1","",""
"","feedback","","html-keyboard-response","181","339473","0.0-1.0-240.0-0.0","0","0","18767","","null","","","null","26","","","","","","","","","","","","","","","",""
"","ITI","","html-keyboard-response","182","340479","0.0-1.0-243.0","0","0","18767","","null","","","null","26","","","","","","","","","","","","","","","NaN",""
"","S1","","html-keyboard-response","183","340735","0.0-1.0-245.0","0","0","18767","","null","","","null","27","","","","","","","","","","","","","","","",""
"","ISI","","html-keyboard-response","184","341743","0.0-1.0-246.0","0","0","18767","","null","","","null","27","NaN","","","","","","","","","","","","","","",""
"","S2","","html-keyboard-response","185","341998","0.0-1.0-247.0","0","0","18767","","null","","","null","27","","NaN","","","","","","","","","","","","","",""
"","response","","html-keyboard-response","186","342362","0.0-1.0-248.0-0.0","0","0","18767","","361","","","75","27","","","1","27","training","adjacent","DE","4","5","L.jpg","R.jpg","1","1","1","",""
"","feedback","","html-keyboard-response","187","343369","0.0-1.0-249.0-0.0","0","0","18767","","null","","","null","27","","","","","","","","","","","","","","","",""
"","ITI","","html-keyboard-response","188","344375","0.0-1.0-252.0","0","0","18767","","null","","","null","27","","","","","","","","","","","","","","","NaN",""
"","S1","","html-keyboard-response","189","344628","0.0-1.0-254.0","0","0","18767","","null","","","null","28","","","","","","","","","","","","","","","",""
"","ISI","","html-keyboard-response","190","345632","0.0-1.0-255.0","0","0","18767","","null","","","null","28","NaN","","","","","","","","","","","","","","",""
"","S2","","html-keyboard-response","191","345887","0.0-1.0-256.0","0","0","18767","","null","","","null","28","","NaN","","","","","","","","","","","","","",""
"","response","","html-keyboard-response","192","346194","0.0-1.0-257.0-0.0","0","0","18767","","304","","","68","28","","","1","28","training","adjacent","AB","1","2","N.jpg","Q.jpg","0","1","0","",""
"","feedback","","html-keyboard-response","193","347199","0.0-1.0-258.0-0.0","0","0","18767","","null","","","null","28","","","","","","","","","","","","","","","",""
"","time_out","","html-keyboard-response","194","349203","0.0-1.0-260.0-0.0","0","0","18767","","null","","","null","28","","","","","","","","","","","","","","","",""
"","ITI","","html-keyboard-response","195","350207","0.0-1.0-261.0","0","0","18767","","null","","","null","28","","","","","","","","","","","","","","","NaN",""
"","S1","","html-keyboard-response","196","350462","0.0-1.0-263.0","0","0","18767","","null","","","null","29","","","","","","","","","","","","","","","",""
"","ISI","","html-keyboard-response","197","351466","0.0-1.0-264.0","0","0","18767","","null","","","null","29","NaN","","","","","","","","","","","","","","",""
"","S2","","html-keyboard-response","198","351722","0.0-1.0-265.0","0","0","18767","","null","","","null","29","","NaN","","","","","","","","","","","","","",""
"","response","","html-keyboard-response","199","351767","0.0-1.0-266.0-0.0","0","0","18767","","43","","","75","29","","","1","29","training","adjacent","EF","5","6","R.jpg","P.jpg","1","1","1","",""
"","feedback","","html-keyboard-response","200","352772","0.0-1.0-267.0-0.0","0","0","18767","","null","","","null","29","","","","","","","","","","","","","","","",""
"","ITI","","html-keyboard-response","201","353779","0.0-1.0-270.0","0","0","18767","","null","","","null","29","","","","","","","","","","","","","","","NaN",""
"","S1","","html-keyboard-response","202","354032","0.0-1.0-272.0","0","0","18767","","null","","","null","30","","","","","","","","","","","","","","","",""
"","ISI","","html-keyboard-response","203","355036","0.0-1.0-273.0","0","0","18767","","null","","","null","30","NaN","","","","","","","","","","","","","","",""
"","S2","","html-keyboard-response","204","355292","0.0-1.0-274.0","0","0","18767","","null","","","null","30","","NaN","","","","","","","","","","","","","",""
"","response","","html-keyboard-response","205","355469","0.0-1.0-275.0-0.0","0","0","18767","","175","","","75","30","","","1","30","training","adjacent","CB","3","2","M.jpg","Q.jpg","1","0","0","",""
"","feedback","","html-keyboard-response","206","356476","0.0-1.0-276.0-0.0","0","0","18767","","null","","","null","30","","","","","","","","","","","","","","","",""
"","time_out","","html-keyboard-response","207","358478","0.0-1.0-278.0-0.0","0","0","18767","","null","","","null","30","","","","","","","","","","","","","","","",""
"","ITI","","html-keyboard-response","208","359485","0.0-1.0-279.0","0","0","18767","","null","","","null","30","","","","","","","","","","","","","","","NaN",""
"","S1","","html-keyboard-response","209","359741","0.0-1.0-281.0","0","0","18767","","null","","","null","31","","","","","","","","","","","","","","","",""
"","ISI","","html-keyboard-response","210","360748","0.0-1.0-282.0","0","0","18767","","null","","","null","31","NaN","","","","","","","","","","","","","","",""
"","S2","","html-keyboard-response","211","361004","0.0-1.0-283.0","0","0","18767","","null","","","null","31","","NaN","","","","","","","","","","","","","",""
"","response","","html-keyboard-response","212","361270","0.0-1.0-284.0-0.0","0","0","18767","","264","","","68","31","","","1","31","training","adjacent","DC","4","3","L.jpg","M.jpg","0","0","1","",""
"","feedback","","html-keyboard-response","213","362277","0.0-1.0-285.0-0.0","0","0","18767","","null","","","null","31","","","","","","","","","","","","","","","",""
"","ITI","","html-keyboard-response","214","363285","0.0-1.0-288.0","0","0","18767","","null","","","null","31","","","","","","","","","","","","","","","NaN",""
"","S1","","html-keyboard-response","215","363540","0.0-1.0-290.0","0","0","18767","","null","","","null","32","","","","","","","","","","","","","","","",""
"","ISI","","html-keyboard-response","216","364545","0.0-1.0-291.0","0","0","18767","","null","","","null","32","NaN","","","","","","","","","","","","","","",""
"","S2","","html-keyboard-response","217","364802","0.0-1.0-292.0","0","0","18767","","null","","","null","32","","NaN","","","","","","","","","","","","","",""
"","response","","html-keyboard-response","218","365074","0.0-1.0-293.0-0.0","0","0","18767","","269","","","68","32","","","1","32","training","adjacent","BC","2","3","Q.jpg","M.jpg","0","1","0","",""
"","feedback","","html-keyboard-response","219","366077","0.0-1.0-294.0-0.0","0","0","18767","","null","","","null","32","","","","","","","","","","","","","","","",""
"","time_out","","html-keyboard-response","220","368086","0.0-1.0-296.0-0.0","0","0","18767","","null","","","null","32","","","","","","","","","","","","","","","",""
"","ITI","","html-keyboard-response","221","369090","0.0-1.0-297.0","0","0","18767","","null","","","null","32","","","","","","","","","","","","","","","NaN",""
"","S1","","html-keyboard-response","222","369345","0.0-1.0-299.0","0","0","18767","","null","","","null","33","","","","","","","","","","","","","","","",""
"","ISI","","html-keyboard-response","223","370350","0.0-1.0-300.0","0","0","18767","","null","","","null","33","NaN","","","","","","","","","","","","","","",""
"","S2","","html-keyboard-response","224","370605","0.0-1.0-301.0","0","0","18767","","null","","","null","33","","NaN","","","","","","","","","","","","","",""
"","response","","html-keyboard-response","225","370838","0.0-1.0-302.0-0.0","0","0","18767","","231","","","68","33","","","1","33","training","adjacent","FG","6","7","P.jpg","O.jpg","0","1","0","",""
"","feedback","","html-keyboard-response","226","371842","0.0-1.0-303.0-0.0","0","0","18767","","null","","","null","33","","","","","","","","","","","","","","","",""
"","time_out","","html-keyboard-response","227","373847","0.0-1.0-305.0-0.0","0","0","18767","","null","","","null","33","","","","","","","","","","","","","","","",""
"","ITI","","html-keyboard-response","228","374854","0.0-1.0-306.0","0","0","18767","","null","","","null","33","","","","","","","","","","","","","","","NaN",""
"","S1","","html-keyboard-response","229","375110","0.0-1.0-308.0","0","0","18767","","null","","","null","34","","","","","","","","","","","","","","","",""
"","ISI","","html-keyboard-response","230","376115","0.0-1.0-309.0","0","0","18767","","null","","","null","34","NaN","","","","","","","","","","","","","","",""
"","S2","","html-keyboard-response","231","376370","0.0-1.0-310.0","0","0","18767","","null","","","null","34","","NaN","","","","","","","","","","","","","",""
"","response","","html-keyboard-response","232","376488","0.0-1.0-311.0-0.0","0","0","18767","","116","","","75","34","","","1","34","training","adjacent","EF","5","6","R.jpg","P.jpg","1","1","1","",""
"","feedback","","html-keyboard-response","233","377496","0.0-1.0-312.0-0.0","0","0","18767","","null","","","null","34","","","","","","","","","","","","","","","",""
"","ITI","","html-keyboard-response","234","378503","0.0-1.0-315.0","0","0","18767","","null","","","null","34","","","","","","","","","","","","","","","NaN",""
"","S1","","html-keyboard-response","235","378757","0.0-1.0-317.0","0","0","18767","","null","","","null","35","","","","","","","","","","","","","","","",""
"","ISI","","html-keyboard-response","236","379764","0.0-1.0-318.0","0","0","18767","","null","","","null","35","NaN","","","","","","","","","","","","","","",""
"","S2","","html-keyboard-response","237","380020","0.0-1.0-319.0","0","0","18767","","null","","","null","35","","NaN","","","","","","","","","","","","","",""
"","response","","html-keyboard-response","238","380047","0.0-1.0-320.0-0.0","0","0","18767","","25","","","68","35","","","1","35","training","adjacent","BA","2","1","Q.jpg","N.jpg","0","0","1","",""
"","feedback","","html-keyboard-response","239","381059","0.0-1.0-321.0-0.0","0","0","18767","","null","","","null","35","","","","","","","","","","","","","","","",""
"","ITI","","html-keyboard-response","240","382065","0.0-1.0-324.0","0","0","18767","","null","","","null","35","","","","","","","","","","","","","","","NaN",""
"","S1","","html-keyboard-response","241","382320","0.0-1.0-326.0","0","0","18767","","null","","","null","36","","","","","","","","","","","","","","","",""
"","ISI","","html-keyboard-response","242","383324","0.0-1.0-327.0","0","0","18767","","null","","","null","36","NaN","","","","","","","","","","","","","","",""
"","S2","","html-keyboard-response","243","383579","0.0-1.0-328.0","0","0","18767","","null","","","null","36","","NaN","","","","","","","","","","","","","",""
"","response","","html-keyboard-response","244","383620","0.0-1.0-329.0-0.0","0","0","18767","","39","","","75","36","","","1","36","training","adjacent","FG","6","7","P.jpg","O.jpg","1","1","1","",""
"","feedback","","html-keyboard-response","245","384624","0.0-1.0-330.0-0.0","0","0","18767","","null","","","null","36","","","","","","","","","","","","","","","",""
"","ITI","","html-keyboard-response","246","385633","0.0-1.0-333.0","0","0","18767","","null","","","null","36","","","","","","","","","","","","","","","NaN",""
"","S1","","html-keyboard-response","247","385890","0.0-1.0-335.0","0","0","18767","","null","","","null","37","","","","","","","","","","","","","","","",""
"","ISI","","html-keyboard-response","248","386894","0.0-1.0-336.0","0","0","18767","","null","","","null","37","NaN","","","","","","","","","","","","","","",""
"","S2","","html-keyboard-response","249","387149","0.0-1.0-337.0","0","0","18767","","null","","","null","37","","NaN","","","","","","","","","","","","","",""
"","response","","html-keyboard-response","250","387437","0.0-1.0-338.0-0.0","0","0","18767","","285","","","68","37","","","1","37","training","adjacent","FG","6","7","P.jpg","O.jpg","0","1","0","",""
"","feedback","","html-keyboard-response","251","388444","0.0-1.0-339.0-0.0","0","0","18767","","null","","","null","37","","","","","","","","","","","","","","","",""
"","time_out","","html-keyboard-response","252","390447","0.0-1.0-341.0-0.0","0","0","18767","","null","","","null","37","","","","","","","","","","","","","","","",""
"","ITI","","html-keyboard-response","253","391453","0.0-1.0-342.0","0","0","18767","","null","","","null","37","","","","","","","","","","","","","","","NaN",""
"","S1","","html-keyboard-response","254","391711","0.0-1.0-344.0","0","0","18767","","null","","","null","38","","","","","","","","","","","","","","","",""
"","ISI","","html-keyboard-response","255","392717","0.0-1.0-345.0","0","0","18767","","193","","","68","38","d","","","","","","","","","","","","","","",""
"","S2","","html-keyboard-response","256","392975","0.0-1.0-346.0","0","0","18767","","null","","","null","38","","NaN","","","","","","","","","","","","","",""
"","response","","html-keyboard-response","257","393021","0.0-1.0-347.0-0.0","0","0","18767","","44","","","75","38","","","1","38","training","adjacent","ED","5","4","R.jpg","L.jpg","1","0","0","",""
"","feedback","","html-keyboard-response","258","394028","0.0-1.0-348.0-0.0","0","0","18767","","null","","","null","38","","","","","","","","","","","","","","","",""
"","time_out","","html-keyboard-response","259","396034","0.0-1.0-350.0-0.0","0","0","18767","","null","","","null","38","","","","","","","","","","","","","","","",""
"","ITI","","html-keyboard-response","260","397041","0.0-1.0-351.0","0","0","18767","","null","","","null","38","","","","","","","","","","","","","","","NaN",""
"","S1","","html-keyboard-response","261","397297","0.0-1.0-353.0","0","0","18767","","null","","","null","39","","","","","","","","","","","","","","","",""
"","ISI","","html-keyboard-response","262","398303","0.0-1.0-354.0","0","0","18767","","null","","","null","39","NaN","","","","","","","","","","","","","","",""
"","S2","","html-keyboard-response","263","398313","0.0-1.0-355.0","0","0","18767","","7","","","75","39","","k","1","39","training","adjacent","ED","5","4","R.jpg","L.jpg","1","0","0","",""
"","feedback","","html-keyboard-response","264","399317","0.0-1.0-357.0-0.0","0","0","18767","","null","","","null","39","","","","","","","","","","","","","","","",""
"","time_out","","html-keyboard-response","265","401320","0.0-1.0-359.0-0.0","0","0","18767","","null","","","null","39","","","","","","","","","","","","","","","",""
"","ITI","","html-keyboard-response","266","402325","0.0-1.0-360.0","0","0","18767","","null","","","null","39","","","","","","","","","","","","","","","NaN",""
"","S1","","html-keyboard-response","267","402583","0.0-1.0-362.0","0","0","18767","","null","","","null","40","","","","","","","","","","","","","","","",""
"","ISI","","html-keyboard-response","268","403594","0.0-1.0-363.0","0","0","18767","","null","","","null","40","NaN","","","","","","","","","","","","","","",""
"","S2","","html-keyboard-response","269","403848","0.0-1.0-364.0","0","0","18767","","null","","","null","40","","NaN","","","","","","","","","","","","","",""
"","response","","html-keyboard-response","270","404134","0.0-1.0-365.0-0.0","0","0","18767","","284","","","75","40","","","1","40","training","adjacent","DC","4","3","L.jpg","M.jpg","1","0","0","",""
"","feedback","","html-keyboard-response","271","405139","0.0-1.0-366.0-0.0","0","0","18767","","null","","","null","40","","","","","","","","","","","","","","","",""
"","time_out","","html-keyboard-response","272","407142","0.0-1.0-368.0-0.0","0","0","18767","","null","","","null","40","","","","","","","","","","","","","","","",""
"","ITI","","html-keyboard-response","273","408149","0.0-1.0-369.0","0","0","18767","","null","","","null","40","","","","","","","","","","","","","","","NaN",""
"","S1","","html-keyboard-response","274","408405","0.0-1.0-371.0","0","0","18767","","null","","","null","41","","","","","","","","","","","","","","","",""
"","ISI","","html-keyboard-response","275","409412","0.0-1.0-372.0","0","0","18767","","null","","","null","41","NaN","","","","","","","","","","","","","","",""
"","S2","","html-keyboard-response","276","409487","0.0-1.0-373.0","0","0","18767","","72","","","68","41","","d","1","41","training","adjacent","DC","4","3","L.jpg","M.jpg","0","0","1","",""
"","feedback","","html-keyboard-response","277","410495","0.0-1.0-375.0-0.0","0","0","18767","","null","","","null","41","","","","","","","","","","","","","","","",""
"","ITI","","html-keyboard-response","278","411501","0.0-1.0-378.0","0","0","18767","","null","","","null","41","","","","","","","","","","","","","","","NaN",""
"","S1","","html-keyboard-response","279","411756","0.0-1.0-380.0","0","0","18767","","null","","","null","42","","","","","","","","","","","","","","","",""
"","ISI","","html-keyboard-response","280","412761","0.0-1.0-381.0","0","0","18767","","null","","","null","42","NaN","","","","","","","","","","","","","","",""
"","S2","","html-keyboard-response","281","413016","0.0-1.0-382.0","0","0","18767","","null","","","null","42","","NaN","","","","","","","","","","","","","",""
"","response","","html-keyboard-response","282","413290","0.0-1.0-383.0-0.0","0","0","18767","","271","","","75","42","","","1","42","training","adjacent","CD","3","4","M.jpg","L.jpg","1","1","1","",""
"","feedback","","html-keyboard-response","283","414293","0.0-1.0-384.0-0.0","0","0","18767","","null","","","null","42","","","","","","","","","","","","","","","",""
"","ITI","","html-keyboard-response","284","415300","0.0-1.0-387.0","0","0","18767","","null","","","null","42","","","","","","","","","","","","","","","NaN",""
"","S1","","html-keyboard-response","285","415555","0.0-1.0-389.0","0","0","18767","","null","","","null","43","","","","","","","","","","","","","","","",""
"","ISI","","html-keyboard-response","286","416560","0.0-1.0-390.0","0","0","18767","","null","","","null","43","NaN","","","","","","","","","","","","","","",""
"","S2","","html-keyboard-response","287","416813","0.0-1.0-391.0","0","0","18767","","null","","","null","43","","NaN","","","","","","","","","","","","","",""
"","response","","html-keyboard-response","288","417963","0.0-1.0-392.0-0.0","0","0","18767","","1147","","","68","43","","","1","43","training","adjacent","GF","7","6","O.jpg","P.jpg","0","0","1","",""
"","feedback","","html-keyboard-response","289","418971","0.0-1.0-393.0-0.0","0","0","18767","","null","","","null","43","","","","","","","","","","","","","","","",""
"","ITI","","html-keyboard-response","290","419977","0.0-1.0-396.0","0","0","18767","","null","","","null","43","","","","","","","","","","","","","","","NaN",""
"","S1","","html-keyboard-response","291","420232","0.0-1.0-398.0","0","0","18767","","null","","","null","44","","","","","","","","","","","","","","","",""
"","ISI","","html-keyboard-response","292","421238","0.0-1.0-399.0","0","0","18767","","null","","","null","44","NaN","","","","","","","","","","","","","","",""
"","S2","","html-keyboard-response","293","421492","0.0-1.0-400.0","0","0","18767","","null","","","null","44","","NaN","","","","","","","","","","","","","",""
"","response","","html-keyboard-response","294","421739","0.0-1.0-401.0-0.0","0","0","18767","","245","","","75","44","","","1","44","training","adjacent","BC","2","3","Q.jpg","M.jpg","1","1","1","",""
"","feedback","","html-keyboard-response","295","422747","0.0-1.0-402.0-0.0","0","0","18767","","null","","","null","44","","","","","","","","","","","","","","","",""
"","ITI","","html-keyboard-response","296","423753","0.0-1.0-405.0","0","0","18767","","null","","","null","44","","","","","","","","","","","","","","","NaN",""
"","S1","","html-keyboard-response","297","424007","0.0-1.0-407.0","0","0","18767","","null","","","null","45","","","","","","","","","","","","","","","",""
"","ISI","","html-keyboard-response","298","425010","0.0-1.0-408.0","0","0","18767","","null","","","null","45","NaN","","","","","","","","","","","","","","",""
"","S2","","html-keyboard-response","299","425264","0.0-1.0-409.0","0","0","18767","","null","","","null","45","","NaN","","","","","","","","","","","","","",""
"","response","","html-keyboard-response","300","425444","0.0-1.0-410.0-0.0","0","0","18767","","177","","","68","45","","","1","45","training","adjacent","DE","4","5","L.jpg","R.jpg","0","1","0","",""
"","feedback","","html-keyboard-response","301","426449","0.0-1.0-411.0-0.0","0","0","18767","","null","","","null","45","","","","","","","","","","","","","","","",""
"","time_out","","html-keyboard-response","302","428452","0.0-1.0-413.0-0.0","0","0","18767","","null","","","null","45","","","","","","","","","","","","","","","",""
"","ITI","","html-keyboard-response","303","429459","0.0-1.0-414.0","0","0","18767","","null","","","null","45","","","","","","","","","","","","","","","NaN",""
"","S1","","html-keyboard-response","304","429715","0.0-1.0-416.0","0","0","18767","","null","","","null","46","","","","","","","","","","","","","","","",""
"","ISI","","html-keyboard-response","305","430722","0.0-1.0-417.0","0","0","18767","","null","","","null","46","NaN","","","","","","","","","","","","","","",""
"","S2","","html-keyboard-response","306","430977","0.0-1.0-418.0","0","0","18767","","null","","","null","46","","NaN","","","","","","","","","","","","","",""
"","response","","html-keyboard-response","307","431444","0.0-1.0-419.0-0.0","0","0","18767","","464","","","68","46","","","1","46","training","adjacent","AB","1","2","N.jpg","Q.jpg","0","1","0","",""
"","feedback","","html-keyboard-response","308","432451","0.0-1.0-420.0-0.0","0","0","18767","","null","","","null","46","","","","","","","","","","","","","","","",""
"","time_out","","html-keyboard-response","309","434456","0.0-1.0-422.0-0.0","0","0","18767","","null","","","null","46","","","","","","","","","","","","","","","",""
"","ITI","","html-keyboard-response","310","435462","0.0-1.0-423.0","0","0","18767","","null","","","null","46","","","","","","","","","","","","","","","NaN",""
"","S1","","html-keyboard-response","311","435720","0.0-1.0-425.0","0","0","18767","","null","","","null","47","","","","","","","","","","","","","","","",""
"","ISI","","html-keyboard-response","312","436727","0.0-1.0-426.0","0","0","18767","","null","","","null","47","NaN","","","","","","","","","","","","","","",""
"","S2","","html-keyboard-response","313","436980","0.0-1.0-427.0","0","0","18767","","null","","","null","47","","NaN","","","","","","","","","","","","","",""
"","response","","html-keyboard-response","314","437469","0.0-1.0-428.0-0.0","0","0","18767","","486","","","68","47","","","1","47","training","adjacent","CB","3","2","M.jpg","Q.jpg","0","0","1","",""
"","feedback","","html-keyboard-response","315","438477","0.0-1.0-429.0-0.0","0","0","18767","","null","","","null","47","","","","","","","","","","","","","","","",""
"","ITI","","html-keyboard-response","316","439484","0.0-1.0-432.0","0","0","18767","","null","","","null","47","","","","","","","","","","","","","","","NaN",""
"","block_over","","html-keyboard-response","317","552722","0.0-1.0-433.0-0.0","0","0","18767","","113234","","","32","47","","","","","","","","","","","","","","","",""
"","S1","","html-keyboard-response","318","552980","0.0-1.0-434.0","0","0","18767","","null","","","null","48","","","","","","","","","","","","","","","",""
"","ISI","","html-keyboard-response","319","553987","0.0-1.0-435.0","0","0","18767","","null","","","null","48","NaN","","","","","","","","","","","","","","",""
"","S2","","html-keyboard-response","320","554240","0.0-1.0-436.0","0","0","18767","","null","","","null","48","","NaN","","","","","","","","","","","","","",""
"","response","","html-keyboard-response","321","554293","0.0-1.0-437.0-0.0","0","0","18767","","50","","","68","48","","","2","48","training","adjacent","CB","3","2","M.jpg","Q.jpg","0","0","1","",""
"","feedback","","html-keyboard-response","322","555297","0.0-1.0-438.0-0.0","0","0","18767","","null","","","null","48","","","","","","","","","","","","","","","",""
"","ITI","","html-keyboard-response","323","556304","0.0-1.0-441.0","0","0","18767","","null","","","null","48","","","","","","","","","","","","","","","NaN",""
"","S1","","html-keyboard-response","324","556560","0.0-1.0-443.0","0","0","18767","","null","","","null","49","","","","","","","","","","","","","","","",""
"","ISI","","html-keyboard-response","325","557566","0.0-1.0-444.0","0","0","18767","","null","","","null","49","NaN","","","","","","","","","","","","","","",""
"","S2","","html-keyboard-response","326","557822","0.0-1.0-445.0","0","0","18767","","null","","","null","49","","NaN","","","","","","","","","","","","","",""
"","response","","html-keyboard-response","327","557887","0.0-1.0-446.0-0.0","0","0","18767","","62","","","68","49","","","2","49","training","adjacent","FG","6","7","P.jpg","O.jpg","0","1","0","",""
"","feedback","","html-keyboard-response","328","558896","0.0-1.0-447.0-0.0","0","0","18767","","null","","","null","49","","","","","","","","","","","","","","","",""
"","time_out","","html-keyboard-response","329","560903","0.0-1.0-449.0-0.0","0","0","18767","","null","","","null","49","","","","","","","","","","","","","","","",""
"","ITI","","html-keyboard-response","330","561909","0.0-1.0-450.0","0","0","18767","","null","","","null","49","","","","","","","","","","","","","","","NaN",""
"","S1","","html-keyboard-response","331","562166","0.0-1.0-452.0","0","0","18767","","null","","","null","50","","","","","","","","","","","","","","","",""
"","ISI","","html-keyboard-response","332","563171","0.0-1.0-453.0","0","0","18767","","null","","","null","50","NaN","","","","","","","","","","","","","","",""
"","S2","","html-keyboard-response","333","563423","0.0-1.0-454.0","0","0","18767","","null","","","null","50","","NaN","","","","","","","","","","","","","",""
"","response","","html-keyboard-response","334","563693","0.0-1.0-455.0-0.0","0","0","18767","","267","","","68","50","","","2","50","training","adjacent","EF","5","6","R.jpg","P.jpg","0","1","0","",""
"","feedback","","html-keyboard-response","335","564696","0.0-1.0-456.0-0.0","0","0","18767","","null","","","null","50","","","","","","","","","","","","","","","",""
"","time_out","","html-keyboard-response","336","566703","0.0-1.0-458.0-0.0","0","0","18767","","null","","","null","50","","","","","","","","","","","","","","","",""
"","ITI","","html-keyboard-response","337","567709","0.0-1.0-459.0","0","0","18767","","null","","","null","50","","","","","","","","","","","","","","","NaN",""
"","S1","","html-keyboard-response","338","567963","0.0-1.0-461.0","0","0","18767","","null","","","null","51","","","","","","","","","","","","","","","",""
"","ISI","","html-keyboard-response","339","568967","0.0-1.0-462.0","0","0","18767","","null","","","null","51","NaN","","","","","","","","","","","","","","",""
"","S2","","html-keyboard-response","340","569222","0.0-1.0-463.0","0","0","18767","","null","","","null","51","","NaN","","","","","","","","","","","","","",""
"","response","","html-keyboard-response","341","569270","0.0-1.0-464.0-0.0","0","0","18767","","45","","","75","51","","","2","51","training","adjacent","ED","5","4","R.jpg","L.jpg","1","0","0","",""
"","feedback","","html-keyboard-response","342","570273","0.0-1.0-465.0-0.0","0","0","18767","","null","","","null","51","","","","","","","","","","","","","","","",""
"","time_out","","html-keyboard-response","343","572276","0.0-1.0-467.0-0.0","0","0","18767","","null","","","null","51","","","","","","","","","","","","","","","",""
"","ITI","","html-keyboard-response","344","573281","0.0-1.0-468.0","0","0","18767","","null","","","null","51","","","","","","","","","","","","","","","NaN",""
"","S1","","html-keyboard-response","345","573536","0.0-1.0-470.0","0","0","18767","","null","","","null","52","","","","","","","","","","","","","","","",""
"","ISI","","html-keyboard-response","346","574540","0.0-1.0-471.0","0","0","18767","","null","","","null","52","NaN","","","","","","","","","","","","","","",""
"","S2","","html-keyboard-response","347","574796","0.0-1.0-472.0","0","0","18767","","null","","","null","52","","NaN","","","","","","","","","","","","","",""
"","response","","html-keyboard-response","348","575164","0.0-1.0-473.0-0.0","0","0","18767","","365","","","68","52","","","2","52","training","adjacent","CD","3","4","M.jpg","L.jpg","0","1","0","",""
"","feedback","","html-keyboard-response","349","576171","0.0-1.0-474.0-0.0","0","0","18767","","null","","","null","52","","","","","","","","","","","","","","","",""
"","time_out","","html-keyboard-response","350","578174","0.0-1.0-476.0-0.0","0","0","18767","","null","","","null","52","","","","","","","","","","","","","","","",""
"","ITI","","html-keyboard-response","351","579181","0.0-1.0-477.0","0","0","18767","","null","","","null","52","","","","","","","","","","","","","","","NaN",""
"","S1","","html-keyboard-response","352","579437","0.0-1.0-479.0","0","0","18767","","null","","","null","53","","","","","","","","","","","","","","","",""
"","ISI","","html-keyboard-response","353","580444","0.0-1.0-480.0","0","0","18767","","null","","","null","53","NaN","","","","","","","","","","","","","","",""
"","S2","","html-keyboard-response","354","580699","0.0-1.0-481.0","0","0","18767","","null","","","null","53","","NaN","","","","","","","","","","","","","",""
"","response","","html-keyboard-response","355","580985","0.0-1.0-482.0-0.0","0","0","18767","","283","","","68","53","","","2","53","training","adjacent","FE","6","5","P.jpg","R.jpg","0","0","1","",""
"","feedback","","html-keyboard-response","356","581987","0.0-1.0-483.0-0.0","0","0","18767","","null","","","null","53","","","","","","","","","","","","","","","",""
"","ITI","","html-keyboard-response","357","582992","0.0-1.0-486.0","0","0","18767","","null","","","null","53","","","","","","","","","","","","","","","NaN",""
"","S1","","html-keyboard-response","358","583248","0.0-1.0-488.0","0","0","18767","","null","","","null","54","","","","","","","","","","","","","","","",""
"","ISI","","html-keyboard-response","359","584251","0.0-1.0-489.0","0","0","18767","","null","","","null","54","NaN","","","","","","","","","","","","","","",""
"","S2","","html-keyboard-response","360","584507","0.0-1.0-490.0","0","0","18767","","null","","","null","54","","NaN","","","","","","","","","","","","","",""
"","response","","html-keyboard-response","361","584832","0.0-1.0-491.0-0.0","0","0","18767","","322","","","68","54","","","2","54","training","adjacent","FE","6","5","P.jpg","R.jpg","0","0","1","",""
"","feedback","","html-keyboard-response","362","585837","0.0-1.0-492.0-0.0","0","0","18767","","null","","","null","54","","","","","","","","","","","","","","","",""
"","ITI","","html-keyboard-response","363","586843","0.0-1.0-495.0","0","0","18767","","null","","","null","54","","","","","","","","","","","","","","","NaN",""
"","S1","","html-keyboard-response","364","587096","0.0-1.0-497.0","0","0","18767","","null","","","null","55","","","","","","","","","","","","","","","",""
"","ISI","","html-keyboard-response","365","588103","0.0-1.0-498.0","0","0","18767","","null","","","null","55","NaN","","","","","","","","","","","","","","",""
"","S2","","html-keyboard-response","366","588356","0.0-1.0-499.0","0","0","18767","","null","","","null","55","","NaN","","","","","","","","","","","","","",""
"","response","","html-keyboard-response","367","588584","0.0-1.0-500.0-0.0","0","0","18767","","227","","","68","55","","","2","55","training","adjacent","AB","1","2","N.jpg","Q.jpg","0","1","0","",""
"","feedback","","html-keyboard-response","368","589588","0.0-1.0-501.0-0.0","0","0","18767","","null","","","null","55","","","","","","","","","","","","","","","",""
"","time_out","","html-keyboard-response","369","591593","0.0-1.0-503.0-0.0","0","0","18767","","null","","","null","55","","","","","","","","","","","","","","","",""
"","ITI","","html-keyboard-response","370","592600","0.0-1.0-504.0","0","0","18767","","null","","","null","55","","","","","","","","","","","","","","","NaN",""
"","S1","","html-keyboard-response","371","592855","0.0-1.0-506.0","0","0","18767","","null","","","null","56","","","","","","","","","","","","","","","",""
"","ISI","","html-keyboard-response","372","593861","0.0-1.0-507.0","0","0","18767","","null","","","null","56","NaN","","","","","","","","","","","","","","",""
"","S2","","html-keyboard-response","373","594115","0.0-1.0-508.0","0","0","18767","","null","","","null","56","","NaN","","","","","","","","","","","","","",""
"","response","","html-keyboard-response","374","594380","0.0-1.0-509.0-0.0","0","0","18767","","262","","","68","56","","","2","56","training","adjacent","DC","4","3","L.jpg","M.jpg","0","0","1","",""
"","feedback","","html-keyboard-response","375","595386","0.0-1.0-510.0-0.0","0","0","18767","","null","","","null","56","","","","","","","","","","","","","","","",""
"","ITI","","html-keyboard-response","376","596393","0.0-1.0-513.0","0","0","18767","","null","","","null","56","","","","","","","","","","","","","","","NaN",""
"","S1","","html-keyboard-response","377","596651","0.0-1.0-515.0","0","0","18767","","null","","","null","57","","","","","","","","","","","","","","","",""
"","ISI","","html-keyboard-response","378","597656","0.0-1.0-516.0","0","0","18767","","null","","","null","57","NaN","","","","","","","","","","","","","","",""
"","S2","","html-keyboard-response","379","597913","0.0-1.0-517.0","0","0","18767","","null","","","null","57","","NaN","","","","","","","","","","","","","",""
"","response","","html-keyboard-response","380","598156","0.0-1.0-518.0-0.0","0","0","18767","","241","","","68","57","","","2","57","training","adjacent","ED","5","4","R.jpg","L.jpg","0","0","1","",""
"","feedback","","html-keyboard-response","381","599164","0.0-1.0-519.0-0.0","0","0","18767","","null","","","null","57","","","","","","","","","","","","","","","",""
"","ITI","","html-keyboard-response","382","600170","0.0-1.0-522.0","0","0","18767","","null","","","null","57","","","","","","","","","","","","","","","NaN",""
"","S1","","html-keyboard-response","383","600425","0.0-1.0-524.0","0","0","18767","","null","","","null","58","","","","","","","","","","","","","","","",""
"","ISI","","html-keyboard-response","384","601429","0.0-1.0-525.0","0","0","18767","","null","","","null","58","NaN","","","","","","","","","","","","","","",""
"","S2","","html-keyboard-response","385","601684","0.0-1.0-526.0","0","0","18767","","null","","","null","58","","NaN","","","","","","","","","","","","","",""
"","response","","html-keyboard-response","386","601769","0.0-1.0-527.0-0.0","0","0","18767","","82","","","68","58","","","2","58","training","adjacent","FE","6","5","P.jpg","R.jpg","0","0","1","",""
"","feedback","","html-keyboard-response","387","602776","0.0-1.0-528.0-0.0","0","0","18767","","null","","","null","58","","","","","","","","","","","","","","","",""
"","ITI","","html-keyboard-response","388","603783","0.0-1.0-531.0","0","0","18767","","null","","","null","58","","","","","","","","","","","","","","","NaN",""
"","S1","","html-keyboard-response","389","604036","0.0-1.0-533.0","0","0","18767","","null","","","null","59","","","","","","","","","","","","","","","",""
"","ISI","","html-keyboard-response","390","605043","0.0-1.0-534.0","0","0","18767","","null","","","null","59","NaN","","","","","","","","","","","","","","",""
"","S2","","html-keyboard-response","391","605300","0.0-1.0-535.0","0","0","18767","","null","","","null","59","","NaN","","","","","","","","","","","","","",""
"","response","","html-keyboard-response","392","605527","0.0-1.0-536.0-0.0","0","0","18767","","224","","","68","59","","","2","59","training","adjacent","CD","3","4","M.jpg","L.jpg","0","1","0","",""
"","feedback","","html-keyboard-response","393","606531","0.0-1.0-537.0-0.0","0","0","18767","","null","","","null","59","","","","","","","","","","","","","","","",""
"","time_out","","html-keyboard-response","394","608534","0.0-1.0-539.0-0.0","0","0","18767","","null","","","null","59","","","","","","","","","","","","","","","",""
"","ITI","","html-keyboard-response","395","609542","0.0-1.0-540.0","0","0","18767","","null","","","null","59","","","","","","","","","","","","","","","NaN",""
"","S1","","html-keyboard-response","396","609798","0.0-1.0-542.0","0","0","18767","","null","","","null","60","","","","","","","","","","","","","","","",""
"","ISI","","html-keyboard-response","397","610804","0.0-1.0-543.0","0","0","18767","","null","","","null","60","NaN","","","","","","","","","","","","","","",""
"","S2","","html-keyboard-response","398","611059","0.0-1.0-544.0","0","0","18767","","null","","","null","60","","NaN","","","","","","","","","","","","","",""
"","response","","html-keyboard-response","399","611139","0.0-1.0-545.0-0.0","0","0","18767","","77","","","75","60","","","2","60","training","adjacent","AB","1","2","N.jpg","Q.jpg","1","1","1","",""
"","feedback","","html-keyboard-response","400","612145","0.0-1.0-546.0-0.0","0","0","18767","","null","","","null","60","","","","","","","","","","","","","","","",""
"","ITI","","html-keyboard-response","401","613152","0.0-1.0-549.0","0","0","18767","","null","","","null","60","","","","","","","","","","","","","","","NaN",""
"","S1","","html-keyboard-response","402","613407","0.0-1.0-551.0","0","0","18767","","null","","","null","61","","","","","","","","","","","","","","","",""
"","ISI","","html-keyboard-response","403","614415","0.0-1.0-552.0","0","0","18767","","null","","","null","61","NaN","","","","","","","","","","","","","","",""
"","S2","","html-keyboard-response","404","614670","0.0-1.0-553.0","0","0","18767","","null","","","null","61","","NaN","","","","","","","","","","","","","",""
"","response","","html-keyboard-response","405","614889","0.0-1.0-554.0-0.0","0","0","18767","","215","","","68","61","","","2","61","training","adjacent","FG","6","7","P.jpg","O.jpg","0","1","0","",""
"","feedback","","html-keyboard-response","406","615895","0.0-1.0-555.0-0.0","0","0","18767","","null","","","null","61","","","","","","","","","","","","","","","",""
"","time_out","","html-keyboard-response","407","617902","0.0-1.0-557.0-0.0","0","0","18767","","null","","","null","61","","","","","","","","","","","","","","","",""
"","ITI","","html-keyboard-response","408","618908","0.0-1.0-558.0","0","0","18767","","null","","","null","61","","","","","","","","","","","","","","","NaN",""
"","S1","","html-keyboard-response","409","619164","0.0-1.0-560.0","0","0","18767","","null","","","null","62","","","","","","","","","","","","","","","",""
"","ISI","","html-keyboard-response","410","620167","0.0-1.0-561.0","0","0","18767","","null","","","null","62","NaN","","","","","","","","","","","","","","",""
"","S2","","html-keyboard-response","411","620423","0.0-1.0-562.0","0","0","18767","","null","","","null","62","","NaN","","","","","","","","","","","","","",""
"","response","","html-keyboard-response","412","620469","0.0-1.0-563.0-0.0","0","0","18767","","43","","","68","62","","","2","62","training","adjacent","DE","4","5","L.jpg","R.jpg","0","1","0","",""
"","feedback","","html-keyboard-response","413","621474","0.0-1.0-564.0-0.0","0","0","18767","","null","","","null","62","","","","","","","","","","","","","","","",""
"","time_out","","html-keyboard-response","414","623476","0.0-1.0-566.0-0.0","0","0","18767","","null","","","null","62","","","","","","","","","","","","","","","",""
"","ITI","","html-keyboard-response","415","624481","0.0-1.0-567.0","0","0","18767","","null","","","null","62","","","","","","","","","","","","","","","NaN",""
"","S1","","html-keyboard-response","416","624736","0.0-1.0-569.0","0","0","18767","","null","","","null","63","","","","","","","","","","","","","","","",""
"","ISI","","html-keyboard-response","417","625740","0.0-1.0-570.0","0","0","18767","","null","","","null","63","NaN","","","","","","","","","","","","","","",""
"","S2","","html-keyboard-response","418","625998","0.0-1.0-571.0","0","0","18767","","null","","","null","63","","NaN","","","","","","","","","","","","","",""
"","response","","html-keyboard-response","419","626235","0.0-1.0-572.0-0.0","0","0","18767","","235","","","68","63","","","2","63","training","adjacent","CB","3","2","M.jpg","Q.jpg","0","0","1","",""
"","feedback","","html-keyboard-response","420","627241","0.0-1.0-573.0-0.0","0","0","18767","","null","","","null","63","","","","","","","","","","","","","","","",""
"","ITI","","html-keyboard-response","421","628248","0.0-1.0-576.0","0","0","18767","","null","","","null","63","","","","","","","","","","","","","","","NaN",""
"","S1","","html-keyboard-response","422","628504","0.0-1.0-578.0","0","0","18767","","null","","","null","64","","","","","","","","","","","","","","","",""
"","ISI","","html-keyboard-response","423","629507","0.0-1.0-579.0","0","0","18767","","null","","","null","64","NaN","","","","","","","","","","","","","","",""
"","S2","","html-keyboard-response","424","629763","0.0-1.0-580.0","0","0","18767","","null","","","null","64","","NaN","","","","","","","","","","","","","",""
"","response","","html-keyboard-response","425","630023","0.0-1.0-581.0-0.0","0","0","18767","","257","","","68","64","","","2","64","training","adjacent","FG","6","7","P.jpg","O.jpg","0","1","0","",""
"","feedback","","html-keyboard-response","426","631029","0.0-1.0-582.0-0.0","0","0","18767","","null","","","null","64","","","","","","","","","","","","","","","",""
"","time_out","","html-keyboard-response","427","633033","0.0-1.0-584.0-0.0","0","0","18767","","null","","","null","64","","","","","","","","","","","","","","","",""
"","ITI","","html-keyboard-response","428","634041","0.0-1.0-585.0","0","0","18767","","null","","","null","64","","","","","","","","","","","","","","","NaN",""
"","S1","","html-keyboard-response","429","634297","0.0-1.0-587.0","0","0","18767","","null","","","null","65","","","","","","","","","","","","","","","",""
"","ISI","","html-keyboard-response","430","635303","0.0-1.0-588.0","0","0","18767","","null","","","null","65","NaN","","","","","","","","","","","","","","",""
"","S2","","html-keyboard-response","431","635558","0.0-1.0-589.0","0","0","18767","","null","","","null","65","","NaN","","","","","","","","","","","","","",""
"","response","","html-keyboard-response","432","635847","0.0-1.0-590.0-0.0","0","0","18767","","286","","","68","65","","","2","65","training","adjacent","AB","1","2","N.jpg","Q.jpg","0","1","0","",""
"","feedback","","html-keyboard-response","433","636851","0.0-1.0-591.0-0.0","0","0","18767","","null","","","null","65","","","","","","","","","","","","","","","",""
"","time_out","","html-keyboard-response","434","638854","0.0-1.0-593.0-0.0","0","0","18767","","null","","","null","65","","","","","","","","","","","","","","","",""
"","ITI","","html-keyboard-response","435","639858","0.0-1.0-594.0","0","0","18767","","null","","","null","65","","","","","","","","","","","","","","","NaN",""
"","S1","","html-keyboard-response","436","640112","0.0-1.0-596.0","0","0","18767","","null","","","null","66","","","","","","","","","","","","","","","",""
"","ISI","","html-keyboard-response","437","641119","0.0-1.0-597.0","0","0","18767","","null","","","null","66","NaN","","","","","","","","","","","","","","",""
"","S2","","html-keyboard-response","438","641380","0.0-1.0-598.0","0","0","18767","","null","","","null","66","","NaN","","","","","","","","","","","","","",""
"","response","","html-keyboard-response","439","641650","0.0-1.0-599.0-0.0","0","0","18767","","268","","","75","66","","","2","66","training","adjacent","BA","2","1","Q.jpg","N.jpg","1","0","0","",""
"","feedback","","html-keyboard-response","440","642656","0.0-1.0-600.0-0.0","0","0","18767","","null","","","null","66","","","","","","","","","","","","","","","",""
"","time_out","","html-keyboard-response","441","644661","0.0-1.0-602.0-0.0","0","0","18767","","null","","","null","66","","","","","","","","","","","","","","","",""
"","ITI","","html-keyboard-response","442","645669","0.0-1.0-603.0","0","0","18767","","null","","","null","66","","","","","","","","","","","","","","","NaN",""
"","S1","","html-keyboard-response","443","645924","0.0-1.0-605.0","0","0","18767","","null","","","null","67","","","","","","","","","","","","","","","",""
"","ISI","","html-keyboard-response","444","646931","0.0-1.0-606.0","0","0","18767","","null","","","null","67","NaN","","","","","","","","","","","","","","",""
"","S2","","html-keyboard-response","445","647189","0.0-1.0-607.0","0","0","18767","","null","","","null","67","","NaN","","","","","","","","","","","","","",""
"","response","","html-keyboard-response","446","647547","0.0-1.0-608.0-0.0","0","0","18767","","356","","","75","67","","","2","67","training","adjacent","BC","2","3","Q.jpg","M.jpg","1","1","1","",""
"","feedback","","html-keyboard-response","447","648554","0.0-1.0-609.0-0.0","0","0","18767","","null","","","null","67","","","","","","","","","","","","","","","",""
"","ITI","","html-keyboard-response","448","649558","0.0-1.0-612.0","0","0","18767","","null","","","null","67","","","","","","","","","","","","","","","NaN",""
"","S1","","html-keyboard-response","449","649813","0.0-1.0-614.0","0","0","18767","","null","","","null","68","","","","","","","","","","","","","","","",""
"","ISI","","html-keyboard-response","450","650818","0.0-1.0-615.0","0","0","18767","","null","","","null","68","NaN","","","","","","","","","","","","","","",""
"","S2","","html-keyboard-response","451","651080","0.0-1.0-616.0","0","0","18767","","null","","","null","68","","NaN","","","","","","","","","","","","","",""
"","response","","html-keyboard-response","452","651719","0.0-1.0-617.0-0.0","0","0","18767","","636","","","75","68","","","2","68","training","adjacent","BC","2","3","Q.jpg","M.jpg","1","1","1","",""
"","feedback","","html-keyboard-response","453","652722","0.0-1.0-618.0-0.0","0","0","18767","","null","","","null","68","","","","","","","","","","","","","","","",""
"","ITI","","html-keyboard-response","454","653729","0.0-1.0-621.0","0","0","18767","","null","","","null","68","","","","","","","","","","","","","","","NaN",""
"","S1","","html-keyboard-response","455","653982","0.0-1.0-623.0","0","0","18767","","null","","","null","69","","","","","","","","","","","","","","","",""
"","ISI","","html-keyboard-response","456","654986","0.0-1.0-624.0","0","0","18767","","null","","","null","69","NaN","","","","","","","","","","","","","","",""
"","S2","","html-keyboard-response","457","655241","0.0-1.0-625.0","0","0","18767","","null","","","null","69","","NaN","","","","","","","","","","","","","",""
"","response","","html-keyboard-response","458","655687","0.0-1.0-626.0-0.0","0","0","18767","","443","","","68","69","","","2","69","training","adjacent","ED","5","4","R.jpg","L.jpg","0","0","1","",""
"","feedback","","html-keyboard-response","459","656692","0.0-1.0-627.0-0.0","0","0","18767","","null","","","null","69","","","","","","","","","","","","","","","",""
"","ITI","","html-keyboard-response","460","657700","0.0-1.0-630.0","0","0","18767","","null","","","null","69","","","","","","","","","","","","","","","NaN",""
"","S1","","html-keyboard-response","461","657952","0.0-1.0-632.0","0","0","18767","","null","","","null","70","","","","","","","","","","","","","","","",""
"","ISI","","html-keyboard-response","462","658956","0.0-1.0-633.0","0","0","18767","","null","","","null","70","NaN","","","","","","","","","","","","","","",""
"","S2","","html-keyboard-response","463","659212","0.0-1.0-634.0","0","0","18767","","null","","","null","70","","NaN","","","","","","","","","","","","","",""
"","response","","html-keyboard-response","464","660964","0.0-1.0-635.0-0.0","0","0","18767","","null","","","null","70","","","2","70","training","adjacent","GF","7","6","O.jpg","P.jpg","NaN","0","0","",""
"","too_slow_prompt","","html-keyboard-response","465","661969","0.0-1.0-637.0-0.0","1","0","18767","","null","","","null","","","","","","","","","","","","","","","","",""
"","time_out","","html-keyboard-response","466","663972","0.0-1.0-638.0-0.0","0","0","18767","","null","","","null","70","","","","","","","","","","","","","","","",""
"","ITI","","html-keyboard-response","467","664979","0.0-1.0-639.0","0","0","18767","","null","","","null","70","","","","","","","","","","","","","","","NaN",""
"","S1","","html-keyboard-response","468","665235","0.0-1.0-641.0","0","0","18767","","null","","","null","71","","","","","","","","","","","","","","","",""
"","ISI","","html-keyboard-response","469","666242","0.0-1.0-642.0","0","0","18767","","null","","","null","71","NaN","","","","","","","","","","","","","","",""
"","S2","","html-keyboard-response","470","666497","0.0-1.0-643.0","0","0","18767","","null","","","null","71","","NaN","","","","","","","","","","","","","",""
"","response","","html-keyboard-response","471","666513","0.0-1.0-644.0-0.0","0","0","18767","","13","","","68","71","","","2","71","training","adjacent","GF","7","6","O.jpg","P.jpg","0","0","1","",""
"","feedback","","html-keyboard-response","472","667519","0.0-1.0-645.0-0.0","0","0","18767","","null","","","null","71","","","","","","","","","","","","","","","",""
"","ITI","","html-keyboard-response","473","668526","0.0-1.0-648.0","0","0","18767","","null","","","null","71","","","","","","","","","","","","","","","NaN",""
"","S1","","html-keyboard-response","474","668784","0.0-1.0-650.0","0","0","18767","","null","","","null","72","","","","","","","","","","","","","","","",""
"","ISI","","html-keyboard-response","475","669788","0.0-1.0-651.0","0","0","18767","","null","","","null","72","NaN","","","","","","","","","","","","","","",""
"","S2","","html-keyboard-response","476","670044","0.0-1.0-652.0","0","0","18767","","null","","","null","72","","NaN","","","","","","","","","","","","","",""
"","response","","html-keyboard-response","477","670401","0.0-1.0-653.0-0.0","0","0","18767","","355","","","75","72","","","2","72","training","adjacent","FG","6","7","P.jpg","O.jpg","1","1","1","",""
"","feedback","","html-keyboard-response","478","671407","0.0-1.0-654.0-0.0","0","0","18767","","null","","","null","72","","","","","","","","","","","","","","","",""
"","ITI","","html-keyboard-response","479","672412","0.0-1.0-657.0","0","0","18767","","null","","","null","72","","","","","","","","","","","","","","","NaN",""
"","S1","","html-keyboard-response","480","672668","0.0-1.0-659.0","0","0","18767","","null","","","null","73","","","","","","","","","","","","","","","",""
"","ISI","","html-keyboard-response","481","673672","0.0-1.0-660.0","0","0","18767","","null","","","null","73","NaN","","","","","","","","","","","","","","",""
"","S2","","html-keyboard-response","482","673928","0.0-1.0-661.0","0","0","18767","","null","","","null","73","","NaN","","","","","","","","","","","","","",""
"","response","","html-keyboard-response","483","673936","0.0-1.0-662.0-0.0","0","0","18767","","7","","","75","73","","","2","73","training","adjacent","AB","1","2","N.jpg","Q.jpg","1","1","1","",""
"","feedback","","html-keyboard-response","484","674943","0.0-1.0-663.0-0.0","0","0","18767","","null","","","null","73","","","","","","","","","","","","","","","",""
"","ITI","","html-keyboard-response","485","675950","0.0-1.0-666.0","0","0","18767","","null","","","null","73","","","","","","","","","","","","","","","NaN",""
"","S1","","html-keyboard-response","486","676208","0.0-1.0-668.0","0","0","18767","","null","","","null","74","","","","","","","","","","","","","","","",""
"","ISI","","html-keyboard-response","487","677213","0.0-1.0-669.0","0","0","18767","","null","","","null","74","NaN","","","","","","","","","","","","","","",""
"","S2","","html-keyboard-response","488","677468","0.0-1.0-670.0","0","0","18767","","null","","","null","74","","NaN","","","","","","","","","","","","","",""
"","response","","html-keyboard-response","489","677515","0.0-1.0-671.0-0.0","0","0","18767","","44","","","75","74","","","2","74","training","adjacent","BC","2","3","Q.jpg","M.jpg","1","1","1","",""
"","feedback","","html-keyboard-response","490","678519","0.0-1.0-672.0-0.0","0","0","18767","","null","","","null","74","","","","","","","","","","","","","","","",""
"","ITI","","html-keyboard-response","491","679526","0.0-1.0-675.0","0","0","18767","","null","","","null","74","","","","","","","","","","","","","","","NaN",""
"","S1","","html-keyboard-response","492","679784","0.0-1.0-677.0","0","0","18767","","null","","","null","75","","","","","","","","","","","","","","","",""
"","ISI","","html-keyboard-response","493","680789","0.0-1.0-678.0","0","0","18767","","null","","","null","75","NaN","","","","","","","","","","","","","","",""
"","S2","","html-keyboard-response","494","681044","0.0-1.0-679.0","0","0","18767","","null","","","null","75","","NaN","","","","","","","","","","","","","",""
"","response","","html-keyboard-response","495","681049","0.0-1.0-680.0-0.0","0","0","18767","","2","","","68","75","","","2","75","training","adjacent","EF","5","6","R.jpg","P.jpg","0","1","0","",""
"","feedback","","html-keyboard-response","496","682053","0.0-1.0-681.0-0.0","0","0","18767","","null","","","null","75","","","","","","","","","","","","","","","",""
"","time_out","","html-keyboard-response","497","684057","0.0-1.0-683.0-0.0","0","0","18767","","null","","","null","75","","","","","","","","","","","","","","","",""
"","ITI","","html-keyboard-response","498","685065","0.0-1.0-684.0","0","0","18767","","null","","","null","75","","","","","","","","","","","","","","","NaN",""
"","S1","","html-keyboard-response","499","685322","0.0-1.0-686.0","0","0","18767","","null","","","null","76","","","","","","","","","","","","","","","",""
"","ISI","","html-keyboard-response","500","686327","0.0-1.0-687.0","0","0","18767","","null","","","null","76","NaN","","","","","","","","","","","","","","",""
"","S2","","html-keyboard-response","501","686584","0.0-1.0-688.0","0","0","18767","","null","","","null","76","","NaN","","","","","","","","","","","","","",""
"","response","","html-keyboard-response","502","686623","0.0-1.0-689.0-0.0","0","0","18767","","36","","","75","76","","","2","76","training","adjacent","DC","4","3","L.jpg","M.jpg","1","0","0","",""
"","feedback","","html-keyboard-response","503","687627","0.0-1.0-690.0-0.0","0","0","18767","","null","","","null","76","","","","","","","","","","","","","","","",""
"","time_out","","html-keyboard-response","504","689633","0.0-1.0-692.0-0.0","0","0","18767","","null","","","null","76","","","","","","","","","","","","","","","",""
"","ITI","","html-keyboard-response","505","690640","0.0-1.0-693.0","0","0","18767","","null","","","null","76","","","","","","","","","","","","","","","NaN",""
"","S1","","html-keyboard-response","506","690895","0.0-1.0-695.0","0","0","18767","","null","","","null","77","","","","","","","","","","","","","","","",""
"","ISI","","html-keyboard-response","507","691902","0.0-1.0-696.0","0","0","18767","","null","","","null","77","NaN","","","","","","","","","","","","","","",""
"","S2","","html-keyboard-response","508","692160","0.0-1.0-697.0","0","0","18767","","null","","","null","77","","NaN","","","","","","","","","","","","","",""
"","response","","html-keyboard-response","509","692175","0.0-1.0-698.0-0.0","0","0","18767","","12","","","68","77","","","2","77","training","adjacent","EF","5","6","R.jpg","P.jpg","0","1","0","",""
"","feedback","","html-keyboard-response","510","693183","0.0-1.0-699.0-0.0","0","0","18767","","null","","","null","77","","","","","","","","","","","","","","","",""
"","time_out","","html-keyboard-response","511","695190","0.0-1.0-701.0-0.0","0","0","18767","","null","","","null","77","","","","","","","","","","","","","","","",""
"","ITI","","html-keyboard-response","512","696198","0.0-1.0-702.0","0","0","18767","","null","","","null","77","","","","","","","","","","","","","","","NaN",""
"","S1","","html-keyboard-response","513","696455","0.0-1.0-704.0","0","0","18767","","null","","","null","78","","","","","","","","","","","","","","","",""
"","ISI","","html-keyboard-response","514","697461","0.0-1.0-705.0","0","0","18767","","null","","","null","78","NaN","","","","","","","","","","","","","","",""
"","S2","","html-keyboard-response","515","697716","0.0-1.0-706.0","0","0","18767","","null","","","null","78","","NaN","","","","","","","","","","","","","",""
"","response","","html-keyboard-response","516","697755","0.0-1.0-707.0-0.0","0","0","18767","","36","","","75","78","","","2","78","training","adjacent","CB","3","2","M.jpg","Q.jpg","1","0","0","",""
"","feedback","","html-keyboard-response","517","698761","0.0-1.0-708.0-0.0","0","0","18767","","null","","","null","78","","","","","","","","","","","","","","","",""
"","time_out","","html-keyboard-response","518","700764","0.0-1.0-710.0-0.0","0","0","18767","","null","","","null","78","","","","","","","","","","","","","","","",""
"","ITI","","html-keyboard-response","519","701772","0.0-1.0-711.0","0","0","18767","","null","","","null","78","","","","","","","","","","","","","","","NaN",""
"","S1","","html-keyboard-response","520","702028","0.0-1.0-713.0","0","0","18767","","null","","","null","79","","","","","","","","","","","","","","","",""
"","ISI","","html-keyboard-response","521","703032","0.0-1.0-714.0","0","0","18767","","null","","","null","79","NaN","","","","","","","","","","","","","","",""
"","S2","","html-keyboard-response","522","703289","0.0-1.0-715.0","0","0","18767","","null","","","null","79","","NaN","","","","","","","","","","","","","",""
"","response","","html-keyboard-response","523","703500","0.0-1.0-716.0-0.0","0","0","18767","","209","","","68","79","","","2","79","training","adjacent","CD","3","4","M.jpg","L.jpg","0","1","0","",""
"","feedback","","html-keyboard-response","524","704506","0.0-1.0-717.0-0.0","0","0","18767","","null","","","null","79","","","","","","","","","","","","","","","",""
"","time_out","","html-keyboard-response","525","706513","0.0-1.0-719.0-0.0","0","0","18767","","null","","","null","79","","","","","","","","","","","","","","","",""
"","ITI","","html-keyboard-response","526","707521","0.0-1.0-720.0","0","0","18767","","null","","","null","79","","","","","","","","","","","","","","","NaN",""
"","S1","","html-keyboard-response","527","707776","0.0-1.0-722.0","0","0","18767","","null","","","null","80","","","","","","","","","","","","","","","",""
"","ISI","","html-keyboard-response","528","708783","0.0-1.0-723.0","0","0","18767","","null","","","null","80","NaN","","","","","","","","","","","","","","",""
"","S2","","html-keyboard-response","529","709036","0.0-1.0-724.0","0","0","18767","","null","","","null","80","","NaN","","","","","","","","","","","","","",""
"","response","","html-keyboard-response","530","709039","0.0-1.0-725.0-0.0","0","0","18767","","0","","","68","80","","","2","80","training","adjacent","EF","5","6","R.jpg","P.jpg","0","1","0","",""
"","feedback","","html-keyboard-response","531","710046","0.0-1.0-726.0-0.0","0","0","18767","","null","","","null","80","","","","","","","","","","","","","","","",""
"","time_out","","html-keyboard-response","532","712054","0.0-1.0-728.0-0.0","0","0","18767","","null","","","null","80","","","","","","","","","","","","","","","",""
"","ITI","","html-keyboard-response","533","713061","0.0-1.0-729.0","0","0","18767","","null","","","null","80","","","","","","","","","","","","","","","NaN",""
"","S1","","html-keyboard-response","534","713314","0.0-1.0-731.0","0","0","18767","","null","","","null","81","","","","","","","","","","","","","","","",""
"","ISI","","html-keyboard-response","535","714322","0.0-1.0-732.0","0","0","18767","","null","","","null","81","NaN","","","","","","","","","","","","","","",""
"","S2","","html-keyboard-response","536","714586","0.0-1.0-733.0","0","0","18767","","null","","","null","81","","NaN","","","","","","","","","","","","","",""
"","response","","html-keyboard-response","537","714661","0.0-1.0-734.0-0.0","0","0","18767","","72","","","75","81","","","2","81","training","adjacent","BA","2","1","Q.jpg","N.jpg","1","0","0","",""
"","feedback","","html-keyboard-response","538","715665","0.0-1.0-735.0-0.0","0","0","18767","","null","","","null","81","","","","","","","","","","","","","","","",""
"","time_out","","html-keyboard-response","539","717668","0.0-1.0-737.0-0.0","0","0","18767","","null","","","null","81","","","","","","","","","","","","","","","",""
"","ITI","","html-keyboard-response","540","718672","0.0-1.0-738.0","0","0","18767","","null","","","null","81","","","","","","","","","","","","","","","NaN",""
"","S1","","html-keyboard-response","541","718928","0.0-1.0-740.0","0","0","18767","","null","","","null","82","","","","","","","","","","","","","","","",""
"","ISI","","html-keyboard-response","542","719931","0.0-1.0-741.0","0","0","18767","","null","","","null","82","NaN","","","","","","","","","","","","","","",""
"","S2","","html-keyboard-response","543","720187","0.0-1.0-742.0","0","0","18767","","null","","","null","82","","NaN","","","","","","","","","","","","","",""
"","response","","html-keyboard-response","544","720229","0.0-1.0-743.0-0.0","0","0","18767","","39","","","68","82","","","2","82","training","adjacent","GF","7","6","O.jpg","P.jpg","0","0","1","",""
"","feedback","","html-keyboard-response","545","721232","0.0-1.0-744.0-0.0","0","0","18767","","null","","","null","82","","","","","","","","","","","","","","","",""
"","ITI","","html-keyboard-response","546","722240","0.0-1.0-747.0","0","0","18767","","null","","","null","82","","","","","","","","","","","","","","","NaN",""
"","S1","","html-keyboard-response","547","722498","0.0-1.0-749.0","0","0","18767","","null","","","null","83","","","","","","","","","","","","","","","",""
"","ISI","","html-keyboard-response","548","723505","0.0-1.0-750.0","0","0","18767","","null","","","null","83","NaN","","","","","","","","","","","","","","",""
"","S2","","html-keyboard-response","549","723762","0.0-1.0-751.0","0","0","18767","","null","","","null","83","","NaN","","","","","","","","","","","","","",""
"","response","","html-keyboard-response","550","723825","0.0-1.0-752.0-0.0","0","0","18767","","60","","","75","83","","","2","83","training","adjacent","CB","3","2","M.jpg","Q.jpg","1","0","0","",""
"","feedback","","html-keyboard-response","551","724830","0.0-1.0-753.0-0.0","0","0","18767","","null","","","null","83","","","","","","","","","","","","","","","",""
"","time_out","","html-keyboard-response","552","726837","0.0-1.0-755.0-0.0","0","0","18767","","null","","","null","83","","","","","","","","","","","","","","","",""
"","ITI","","html-keyboard-response","553","727844","0.0-1.0-756.0","0","0","18767","","null","","","null","83","","","","","","","","","","","","","","","NaN",""
"","S1","","html-keyboard-response","554","728102","0.0-1.0-758.0","0","0","18767","","null","","","null","84","","","","","","","","","","","","","","","",""
"","ISI","","html-keyboard-response","555","729107","0.0-1.0-759.0","0","0","18767","","null","","","null","84","NaN","","","","","","","","","","","","","","",""
"","S2","","html-keyboard-response","556","729365","0.0-1.0-760.0","0","0","18767","","null","","","null","84","","NaN","","","","","","","","","","","","","",""
"","response","","html-keyboard-response","557","729379","0.0-1.0-761.0-0.0","0","0","18767","","11","","","68","84","","","2","84","training","adjacent","DE","4","5","L.jpg","R.jpg","0","1","0","",""
"","feedback","","html-keyboard-response","558","730387","0.0-1.0-762.0-0.0","0","0","18767","","null","","","null","84","","","","","","","","","","","","","","","",""
"","time_out","","html-keyboard-response","559","732394","0.0-1.0-764.0-0.0","0","0","18767","","null","","","null","84","","","","","","","","","","","","","","","",""
"","ITI","","html-keyboard-response","560","733401","0.0-1.0-765.0","0","0","18767","","null","","","null","84","","","","","","","","","","","","","","","NaN",""
"","S1","","html-keyboard-response","561","733655","0.0-1.0-767.0","0","0","18767","","null","","","null","85","","","","","","","","","","","","","","","",""
"","ISI","","html-keyboard-response","562","734661","0.0-1.0-768.0","0","0","18767","","null","","","null","85","NaN","","","","","","","","","","","","","","",""
"","S2","","html-keyboard-response","563","734925","0.0-1.0-769.0","0","0","18767","","null","","","null","85","","NaN","","","","","","","","","","","","","",""
"","response","","html-keyboard-response","564","734926","0.0-1.0-770.0-0.0","0","0","18767","","0","","","68","85","","","2","85","training","adjacent","CD","3","4","M.jpg","L.jpg","0","1","0","",""
"","feedback","","html-keyboard-response","565","735930","0.0-1.0-771.0-0.0","0","0","18767","","null","","","null","85","","","","","","","","","","","","","","","",""
"","time_out","","html-keyboard-response","566","737933","0.0-1.0-773.0-0.0","0","0","18767","","null","","","null","85","","","","","","","","","","","","","","","",""
"","ITI","","html-keyboard-response","567","738941","0.0-1.0-774.0","0","0","18767","","null","","","null","85","","","","","","","","","","","","","","","NaN",""
"","S1","","html-keyboard-response","568","739198","0.0-1.0-776.0","0","0","18767","","null","","","null","86","","","","","","","","","","","","","","","",""
"","ISI","","html-keyboard-response","569","740203","0.0-1.0-777.0","0","0","18767","","null","","","null","86","NaN","","","","","","","","","","","","","","",""
"","S2","","html-keyboard-response","570","740458","0.0-1.0-778.0","0","0","18767","","null","","","null","86","","NaN","","","","","","","","","","","","","",""
"","response","","html-keyboard-response","571","740567","0.0-1.0-779.0-0.0","0","0","18767","","106","","","75","86","","","2","86","training","adjacent","BA","2","1","Q.jpg","N.jpg","1","0","0","",""
"","feedback","","html-keyboard-response","572","741573","0.0-1.0-780.0-0.0","0","0","18767","","null","","","null","86","","","","","","","","","","","","","","","",""
"","time_out","","html-keyboard-response","573","743582","0.0-1.0-782.0-0.0","0","0","18767","","null","","","null","86","","","","","","","","","","","","","","","",""
"","ITI","","html-keyboard-response","574","744589","0.0-1.0-783.0","0","0","18767","","null","","","null","86","","","","","","","","","","","","","","","NaN",""
"","S1","","html-keyboard-response","575","744847","0.0-1.0-785.0","0","0","18767","","null","","","null","87","","","","","","","","","","","","","","","",""
"","ISI","","html-keyboard-response","576","745851","0.0-1.0-786.0","0","0","18767","","null","","","null","87","NaN","","","","","","","","","","","","","","",""
"","S2","","html-keyboard-response","577","746107","0.0-1.0-787.0","0","0","18767","","null","","","null","87","","NaN","","","","","","","","","","","","","",""
"","response","","html-keyboard-response","578","746371","0.0-1.0-788.0-0.0","0","0","18767","","261","","","68","87","","","2","87","training","adjacent","GF","7","6","O.jpg","P.jpg","0","0","1","",""
"","feedback","","html-keyboard-response","579","747378","0.0-1.0-789.0-0.0","0","0","18767","","null","","","null","87","","","","","","","","","","","","","","","",""
"","ITI","","html-keyboard-response","580","748385","0.0-1.0-792.0","0","0","18767","","null","","","null","87","","","","","","","","","","","","","","","NaN",""
"","S1","","html-keyboard-response","581","748644","0.0-1.0-794.0","0","0","18767","","null","","","null","88","","","","","","","","","","","","","","","",""
