"success","ttype","start_time","trial_type","trial_index","time_elapsed","internal_node_id","warning","missed_checkup","PID","view_history","rt","responses","repeat_instructions","key_press","index","keypress_isi","keypress_S2","block","trial_num","phase","group_type","pair_type","S1_stim","S2_stim","S1_img","S2_img","S1_chosen","S1_higher","accuracy","keypress_iti","total_bonus_tally"
"true","full_screen","d04152023hr2349","fullscreen","0","8340","0.0-0.0","0","0","40767","","","","","","","","","","","","","","","","","","","","","",""
"","instructions","","instructions","1","109867","0.0-1.0-0.0-0.0","0","0","40767","[{""page_index"":0,""viewing_time"":11651},{""page_index"":1,""viewing_time"":65446},{""page_index"":2,""viewing_time"":22441},{""page_index"":3,""viewing_time"":1985}]","101523","","","","","","","","","","","","","","","","","","","",""
"","comprehension_check","","survey-multi-choice","2","143299","0.0-1.0-0.0-1.0","0","0","40767","","33424","{""Q0"":""True"",""Q1"":""K"",""Q2"":""Once the second image appears and while the screen 'MAKE A CHOICE' is shown"",""Q3"":""Green mark"",""Q4"":""either D or K""}","0","","","","","","","","","","","","","","","","","",""
"","start_exp","","html-keyboard-response","3","153704","0.0-1.0-1.0","0","0","40767","","10401","","","32","","","","","","","","","","","","","","","","",""
"","S1","","html-keyboard-response","4","153967","0.0-1.0-2.0","0","0","40767","","null","","","null","0","","","","","","","","","","","","","","","",""
"","ISI","","html-keyboard-response","5","154972","0.0-1.0-3.0","0","0","40767","","null","","","null","0","NaN","","","","","","","","","","","","","","",""
"","S2","","html-keyboard-response","6","155227","0.0-1.0-4.0","0","0","40767","","null","","","null","0","","NaN","","","","","","","","","","","","","",""
"","response","","html-keyboard-response","7","156415","0.0-1.0-5.0-0.0","0","0","40767","","1185","","","68","0","","","1","0","training","adjacent","DE","4","5","L.jpg","N.jpg","0","1","0","",""
"","feedback","","html-keyboard-response","8","157422","0.0-1.0-6.0-0.0","0","0","40767","","null","","","null","0","","","","","","","","","","","","","","","",""
"","time_out","","html-keyboard-response","9","159437","0.0-1.0-8.0-0.0","0","0","40767","","null","","","null","0","","","","","","","","","","","","","","","",""
"","ITI","","html-keyboard-response","10","160444","0.0-1.0-9.0","0","0","40767","","670","","","75","0","","","","","","","","","","","","","","","k",""
"","S1","","html-keyboard-response","11","160708","0.0-1.0-11.0","0","0","40767","","null","","","null","1","","","","","","","","","","","","","","","",""
"","ISI","","html-keyboard-response","12","161714","0.0-1.0-12.0","0","0","40767","","null","","","null","1","NaN","","","","","","","","","","","","","","",""
"","S2","","html-keyboard-response","13","161969","0.0-1.0-13.0","0","0","40767","","null","","","null","1","","NaN","","","","","","","","","","","","","",""
"","response","","html-keyboard-response","14","162541","0.0-1.0-14.0-0.0","0","0","40767","","570","","","75","1","","","1","1","training","adjacent","BA","2","1","M.jpg","O.jpg","1","0","0","",""
"","feedback","","html-keyboard-response","15","163564","0.0-1.0-15.0-0.0","0","0","40767","","null","","","null","1","","","","","","","","","","","","","","","",""
"","time_out","","html-keyboard-response","16","165578","0.0-1.0-17.0-0.0","0","0","40767","","null","","","null","1","","","","","","","","","","","","","","","",""
"","ITI","","html-keyboard-response","17","166584","0.0-1.0-18.0","0","0","40767","","null","","","null","1","","","","","","","","","","","","","","","NaN",""
"","S1","","html-keyboard-response","18","166847","0.0-1.0-20.0","0","0","40767","","null","","","null","2","","","","","","","","","","","","","","","",""
"","ISI","","html-keyboard-response","19","167855","0.0-1.0-21.0","0","0","40767","","null","","","null","2","NaN","","","","","","","","","","","","","","",""
"","S2","","html-keyboard-response","20","168110","0.0-1.0-22.0","0","0","40767","","null","","","null","2","","NaN","","","","","","","","","","","","","",""
"","response","","html-keyboard-response","21","168909","0.0-1.0-23.0-0.0","0","0","40767","","798","","","68","2","","","1","2","training","adjacent","FE","6","5","P.jpg","N.jpg","0","0","1","",""
"","feedback","","html-keyboard-response","22","169938","0.0-1.0-24.0-0.0","0","0","40767","","null","","","null","2","","","","","","","","","","","","","","","",""
"","ITI","","html-keyboard-response","23","170944","0.0-1.0-27.0","0","0","40767","","null","","","null","2","","","","","","","","","","","","","","","NaN",""
"","S1","","html-keyboard-response","24","171214","0.0-1.0-29.0","0","0","40767","","null","","","null","3","","","","","","","","","","","","","","","",""
"","ISI","","html-keyboard-response","25","172220","0.0-1.0-30.0","0","0","40767","","null","","","null","3","NaN","","","","","","","","","","","","","","",""
"","S2","","html-keyboard-response","26","172483","0.0-1.0-31.0","0","0","40767","","null","","","null","3","","NaN","","","","","","","","","","","","","",""
"","response","","html-keyboard-response","27","173755","0.0-1.0-32.0-0.0","0","0","40767","","1270","","","68","3","","","1","3","training","adjacent","GF","7","6","Q.jpg","P.jpg","0","0","1","",""
"","feedback","","html-keyboard-response","28","174767","0.0-1.0-33.0-0.0","0","0","40767","","null","","","null","3","","","","","","","","","","","","","","","",""
"","ITI","","html-keyboard-response","29","175775","0.0-1.0-36.0","0","0","40767","","null","","","null","3","","","","","","","","","","","","","","","NaN",""
"","S1","","html-keyboard-response","30","176046","0.0-1.0-38.0","0","0","40767","","null","","","null","4","","","","","","","","","","","","","","","",""
"","ISI","","html-keyboard-response","31","177051","0.0-1.0-39.0","0","0","40767","","null","","","null","4","NaN","","","","","","","","","","","","","","",""
"","S2","","html-keyboard-response","32","177315","0.0-1.0-40.0","0","0","40767","","null","","","null","4","","NaN","","","","","","","","","","","","","",""
"","response","","html-keyboard-response","33","178100","0.0-1.0-41.0-0.0","0","0","40767","","784","","","75","4","","","1","4","training","adjacent","FG","6","7","P.jpg","Q.jpg","1","1","1","",""
"","feedback","","html-keyboard-response","34","179114","0.0-1.0-42.0-0.0","0","0","40767","","null","","","null","4","","","","","","","","","","","","","","","",""
"","ITI","","html-keyboard-response","35","180123","0.0-1.0-45.0","0","0","40767","","null","","","null","4","","","","","","","","","","","","","","","NaN",""
"","S1","","html-keyboard-response","36","180387","0.0-1.0-47.0","0","0","40767","","null","","","null","5","","","","","","","","","","","","","","","",""
"","ISI","","html-keyboard-response","37","181395","0.0-1.0-48.0","0","0","40767","","null","","","null","5","NaN","","","","","","","","","","","","","","",""
"","S2","","html-keyboard-response","38","181664","0.0-1.0-49.0","0","0","40767","","null","","","null","5","","NaN","","","","","","","","","","","","","",""
"","response","","html-keyboard-response","39","182423","0.0-1.0-50.0-0.0","0","0","40767","","757","","","75","5","","","1","5","training","adjacent","FE","6","5","P.jpg","N.jpg","1","0","0","",""
"","feedback","","html-keyboard-response","40","183446","0.0-1.0-51.0-0.0","0","0","40767","","null","","","null","5","","","","","","","","","","","","","","","",""
"","time_out","","html-keyboard-response","41","185460","0.0-1.0-53.0-0.0","0","0","40767","","null","","","null","5","","","","","","","","","","","","","","","",""
"","ITI","","html-keyboard-response","42","186468","0.0-1.0-54.0","0","0","40767","","null","","","null","5","","","","","","","","","","","","","","","NaN",""
"","S1","","html-keyboard-response","43","186732","0.0-1.0-56.0","0","0","40767","","null","","","null","6","","","","","","","","","","","","","","","",""
"","ISI","","html-keyboard-response","44","187754","0.0-1.0-57.0","0","0","40767","","null","","","null","6","NaN","","","","","","","","","","","","","","",""
"","S2","","html-keyboard-response","45","188010","0.0-1.0-58.0","0","0","40767","","null","","","null","6","","NaN","","","","","","","","","","","","","",""
"","response","","html-keyboard-response","46","188960","0.0-1.0-59.0-0.0","0","0","40767","","949","","","75","6","","","1","6","training","adjacent","ED","5","4","N.jpg","L.jpg","1","0","0","",""
"","feedback","","html-keyboard-response","47","189966","0.0-1.0-60.0-0.0","0","0","40767","","null","","","null","6","","","","","","","","","","","","","","","",""
"","time_out","","html-keyboard-response","48","191985","0.0-1.0-62.0-0.0","0","0","40767","","null","","","null","6","","","","","","","","","","","","","","","",""
"","ITI","","html-keyboard-response","49","192992","0.0-1.0-63.0","0","0","40767","","null","","","null","6","","","","","","","","","","","","","","","NaN",""
"","S1","","html-keyboard-response","50","193247","0.0-1.0-65.0","0","0","40767","","null","","","null","7","","","","","","","","","","","","","","","",""
"","ISI","","html-keyboard-response","51","194255","0.0-1.0-66.0","0","0","40767","","null","","","null","7","NaN","","","","","","","","","","","","","","",""
"","S2","","html-keyboard-response","52","194517","0.0-1.0-67.0","0","0","40767","","null","","","null","7","","NaN","","","","","","","","","","","","","",""
"","response","","html-keyboard-response","53","195978","0.0-1.0-68.0-0.0","0","0","40767","","1459","","","75","7","","","1","7","training","adjacent","GF","7","6","Q.jpg","P.jpg","1","0","0","",""
"","feedback","","html-keyboard-response","54","196994","0.0-1.0-69.0-0.0","0","0","40767","","null","","","null","7","","","","","","","","","","","","","","","",""
"","time_out","","html-keyboard-response","55","199006","0.0-1.0-71.0-0.0","0","0","40767","","null","","","null","7","","","","","","","","","","","","","","","",""
"","ITI","","html-keyboard-response","56","200013","0.0-1.0-72.0","0","0","40767","","null","","","null","7","","","","","","","","","","","","","","","NaN",""
"","S1","","html-keyboard-response","57","200276","0.0-1.0-74.0","0","0","40767","","null","","","null","8","","","","","","","","","","","","","","","",""
"","ISI","","html-keyboard-response","58","201283","0.0-1.0-75.0","0","0","40767","","null","","","null","8","NaN","","","","","","","","","","","","","","",""
"","S2","","html-keyboard-response","59","201538","0.0-1.0-76.0","0","0","40767","","null","","","null","8","","NaN","","","","","","","","","","","","","",""
"","response","","html-keyboard-response","60","202801","0.0-1.0-77.0-0.0","0","0","40767","","1261","","","68","8","","","1","8","training","adjacent","FG","6","7","P.jpg","Q.jpg","0","1","0","",""
"","feedback","","html-keyboard-response","61","203808","0.0-1.0-78.0-0.0","0","0","40767","","null","","","null","8","","","","","","","","","","","","","","","",""
"","time_out","","html-keyboard-response","62","205820","0.0-1.0-80.0-0.0","0","0","40767","","null","","","null","8","","","","","","","","","","","","","","","",""
"","ITI","","html-keyboard-response","63","206827","0.0-1.0-81.0","0","0","40767","","null","","","null","8","","","","","","","","","","","","","","","NaN",""
"","S1","","html-keyboard-response","64","207081","0.0-1.0-83.0","0","0","40767","","null","","","null","9","","","","","","","","","","","","","","","",""
"","ISI","","html-keyboard-response","65","208089","0.0-1.0-84.0","0","0","40767","","null","","","null","9","NaN","","","","","","","","","","","","","","",""
"","S2","","html-keyboard-response","66","208353","0.0-1.0-85.0","0","0","40767","","null","","","null","9","","NaN","","","","","","","","","","","","","",""
"","response","","html-keyboard-response","67","209154","0.0-1.0-86.0-0.0","0","0","40767","","798","","","75","9","","","1","9","training","adjacent","CD","3","4","R.jpg","L.jpg","1","1","1","",""
"","feedback","","html-keyboard-response","68","210163","0.0-1.0-87.0-0.0","0","0","40767","","null","","","null","9","","","","","","","","","","","","","","","",""
"","ITI","","html-keyboard-response","69","211169","0.0-1.0-90.0","0","0","40767","","null","","","null","9","","","","","","","","","","","","","","","NaN",""
"","S1","","html-keyboard-response","70","211424","0.0-1.0-92.0","0","0","40767","","null","","","null","10","","","","","","","","","","","","","","","",""
"","ISI","","html-keyboard-response","71","212431","0.0-1.0-93.0","0","0","40767","","null","","","null","10","NaN","","","","","","","","","","","","","","",""
"","S2","","html-keyboard-response","72","212685","0.0-1.0-94.0","0","0","40767","","null","","","null","10","","NaN","","","","","","","","","","","","","",""
"","response","","html-keyboard-response","73","213845","0.0-1.0-95.0-0.0","0","0","40767","","1157","","","68","10","","","1","10","training","adjacent","BC","2","3","M.jpg","R.jpg","0","1","0","",""
"","feedback","","html-keyboard-response","74","214848","0.0-1.0-96.0-0.0","0","0","40767","","null","","","null","10","","","","","","","","","","","","","","","",""
"","time_out","","html-keyboard-response","75","216861","0.0-1.0-98.0-0.0","0","0","40767","","null","","","null","10","","","","","","","","","","","","","","","",""
"","ITI","","html-keyboard-response","76","217866","0.0-1.0-99.0","0","0","40767","","null","","","null","10","","","","","","","","","","","","","","","NaN",""
"","S1","","html-keyboard-response","77","218137","0.0-1.0-101.0","0","0","40767","","null","","","null","11","","","","","","","","","","","","","","","",""
"","ISI","","html-keyboard-response","78","219144","0.0-1.0-102.0","0","0","40767","","null","","","null","11","NaN","","","","","","","","","","","","","","",""
"","S2","","html-keyboard-response","79","219408","0.0-1.0-103.0","0","0","40767","","null","","","null","11","","NaN","","","","","","","","","","","","","",""
"","response","","html-keyboard-response","80","219933","0.0-1.0-104.0-0.0","0","0","40767","","523","","","75","11","","","1","11","training","adjacent","AB","1","2","O.jpg","M.jpg","1","1","1","",""
"","feedback","","html-keyboard-response","81","220955","0.0-1.0-105.0-0.0","0","0","40767","","null","","","null","11","","","","","","","","","","","","","","","",""
"","ITI","","html-keyboard-response","82","221964","0.0-1.0-108.0","0","0","40767","","null","","","null","11","","","","","","","","","","","","","","","NaN",""
"","S1","","html-keyboard-response","83","222226","0.0-1.0-110.0","0","0","40767","","null","","","null","12","","","","","","","","","","","","","","","",""
"","ISI","","html-keyboard-response","84","223232","0.0-1.0-111.0","0","0","40767","","null","","","null","12","NaN","","","","","","","","","","","","","","",""
"","S2","","html-keyboard-response","85","223487","0.0-1.0-112.0","0","0","40767","","null","","","null","12","","NaN","","","","","","","","","","","","","",""
"","response","","html-keyboard-response","86","224033","0.0-1.0-113.0-0.0","0","0","40767","","545","","","75","12","","","1","12","training","adjacent","FE","6","5","P.jpg","N.jpg","1","0","0","",""
"","feedback","","html-keyboard-response","87","225045","0.0-1.0-114.0-0.0","0","0","40767","","null","","","null","12","","","","","","","","","","","","","","","",""
"","time_out","","html-keyboard-response","88","227059","0.0-1.0-116.0-0.0","0","0","40767","","null","","","null","12","","","","","","","","","","","","","","","",""
"","ITI","","html-keyboard-response","89","228064","0.0-1.0-117.0","0","0","40767","","null","","","null","12","","","","","","","","","","","","","","","NaN",""
"","S1","","html-keyboard-response","90","228317","0.0-1.0-119.0","0","0","40767","","null","","","null","13","","","","","","","","","","","","","","","",""
"","ISI","","html-keyboard-response","91","229322","0.0-1.0-120.0","0","0","40767","","null","","","null","13","NaN","","","","","","","","","","","","","","",""
"","S2","","html-keyboard-response","92","229587","0.0-1.0-121.0","0","0","40767","","null","","","null","13","","NaN","","","","","","","","","","","","","",""
"","response","","html-keyboard-response","93","230372","0.0-1.0-122.0-0.0","0","0","40767","","781","","","68","13","","","1","13","training","adjacent","BA","2","1","M.jpg","O.jpg","0","0","1","",""
"","feedback","","html-keyboard-response","94","231383","0.0-1.0-123.0-0.0","0","0","40767","","null","","","null","13","","","","","","","","","","","","","","","",""
"","ITI","","html-keyboard-response","95","232389","0.0-1.0-126.0","0","0","40767","","null","","","null","13","","","","","","","","","","","","","","","NaN",""
"","S1","","html-keyboard-response","96","232644","0.0-1.0-128.0","0","0","40767","","null","","","null","14","","","","","","","","","","","","","","","",""
"","ISI","","html-keyboard-response","97","233662","0.0-1.0-129.0","0","0","40767","","null","","","null","14","NaN","","","","","","","","","","","","","","",""
"","S2","","html-keyboard-response","98","233933","0.0-1.0-130.0","0","0","40767","","null","","","null","14","","NaN","","","","","","","","","","","","","",""
"","response","","html-keyboard-response","99","234722","0.0-1.0-131.0-0.0","0","0","40767","","787","","","68","14","","","1","14","training","adjacent","ED","5","4","N.jpg","L.jpg","0","0","1","",""
"","feedback","","html-keyboard-response","100","235744","0.0-1.0-132.0-0.0","0","0","40767","","null","","","null","14","","","","","","","","","","","","","","","",""
"","ITI","","html-keyboard-response","101","236752","0.0-1.0-135.0","0","0","40767","","null","","","null","14","","","","","","","","","","","","","","","NaN",""
"","S1","","html-keyboard-response","102","237016","0.0-1.0-137.0","0","0","40767","","null","","","null","15","","","","","","","","","","","","","","","",""
"","ISI","","html-keyboard-response","103","238022","0.0-1.0-138.0","0","0","40767","","null","","","null","15","NaN","","","","","","","","","","","","","","",""
"","S2","","html-keyboard-response","104","238277","0.0-1.0-139.0","0","0","40767","","null","","","null","15","","NaN","","","","","","","","","","","","","",""
"","response","","html-keyboard-response","105","238756","0.0-1.0-140.0-0.0","0","0","40767","","478","","","68","15","","","1","15","training","adjacent","EF","5","6","N.jpg","P.jpg","0","1","0","",""
"","feedback","","html-keyboard-response","106","239770","0.0-1.0-141.0-0.0","0","0","40767","","null","","","null","15","","","","","","","","","","","","","","","",""
"","time_out","","html-keyboard-response","107","241784","0.0-1.0-143.0-0.0","0","0","40767","","null","","","null","15","","","","","","","","","","","","","","","",""
"","ITI","","html-keyboard-response","108","242791","0.0-1.0-144.0","0","0","40767","","null","","","null","15","","","","","","","","","","","","","","","NaN",""
"","S1","","html-keyboard-response","109","243055","0.0-1.0-146.0","0","0","40767","","null","","","null","16","","","","","","","","","","","","","","","",""
"","ISI","","html-keyboard-response","110","244062","0.0-1.0-147.0","0","0","40767","","null","","","null","16","NaN","","","","","","","","","","","","","","",""
"","S2","","html-keyboard-response","111","244317","0.0-1.0-148.0","0","0","40767","","null","","","null","16","","NaN","","","","","","","","","","","","","",""
"","response","","html-keyboard-response","112","245133","0.0-1.0-149.0-0.0","0","0","40767","","813","","","75","16","","","1","16","training","adjacent","FG","6","7","P.jpg","Q.jpg","1","1","1","",""
"","feedback","","html-keyboard-response","113","246145","0.0-1.0-150.0-0.0","0","0","40767","","null","","","null","16","","","","","","","","","","","","","","","",""
"","ITI","","html-keyboard-response","114","247151","0.0-1.0-153.0","0","0","40767","","null","","","null","16","","","","","","","","","","","","","","","NaN",""
"","S1","","html-keyboard-response","115","247423","0.0-1.0-155.0","0","0","40767","","null","","","null","17","","","","","","","","","","","","","","","",""
"","ISI","","html-keyboard-response","116","248430","0.0-1.0-156.0","0","0","40767","","null","","","null","17","NaN","","","","","","","","","","","","","","",""
"","S2","","html-keyboard-response","117","248692","0.0-1.0-157.0","0","0","40767","","null","","","null","17","","NaN","","","","","","","","","","","","","",""
"","response","","html-keyboard-response","118","249894","0.0-1.0-158.0-0.0","0","0","40767","","1200","","","68","17","","","1","17","training","adjacent","DE","4","5","L.jpg","N.jpg","0","1","0","",""
"","feedback","","html-keyboard-response","119","250907","0.0-1.0-159.0-0.0","0","0","40767","","null","","","null","17","","","","","","","","","","","","","","","",""
"","time_out","","html-keyboard-response","120","252919","0.0-1.0-161.0-0.0","0","0","40767","","null","","","null","17","","","","","","","","","","","","","","","",""
"","ITI","","html-keyboard-response","121","253926","0.0-1.0-162.0","0","0","40767","","null","","","null","17","","","","","","","","","","","","","","","NaN",""
"","S1","","html-keyboard-response","122","254180","0.0-1.0-164.0","0","0","40767","","null","","","null","18","","","","","","","","","","","","","","","",""
"","ISI","","html-keyboard-response","123","255189","0.0-1.0-165.0","0","0","40767","","null","","","null","18","NaN","","","","","","","","","","","","","","",""
"","S2","","html-keyboard-response","124","255452","0.0-1.0-166.0","0","0","40767","","null","","","null","18","","NaN","","","","","","","","","","","","","",""
"","response","","html-keyboard-response","125","256284","0.0-1.0-167.0-0.0","0","0","40767","","830","","","75","18","","","1","18","training","adjacent","ED","5","4","N.jpg","L.jpg","1","0","0","",""
"","feedback","","html-keyboard-response","126","257287","0.0-1.0-168.0-0.0","0","0","40767","","null","","","null","18","","","","","","","","","","","","","","","",""
"","time_out","","html-keyboard-response","127","259300","0.0-1.0-170.0-0.0","0","0","40767","","null","","","null","18","","","","","","","","","","","","","","","",""
"","ITI","","html-keyboard-response","128","260307","0.0-1.0-171.0","0","0","40767","","null","","","null","18","","","","","","","","","","","","","","","NaN",""
"","S1","","html-keyboard-response","129","260570","0.0-1.0-173.0","0","0","40767","","null","","","null","19","","","","","","","","","","","","","","","",""
"","ISI","","html-keyboard-response","130","261578","0.0-1.0-174.0","0","0","40767","","null","","","null","19","NaN","","","","","","","","","","","","","","",""
"","S2","","html-keyboard-response","131","261832","0.0-1.0-175.0","0","0","40767","","null","","","null","19","","NaN","","","","","","","","","","","","","",""
"","response","","html-keyboard-response","132","263073","0.0-1.0-176.0-0.0","0","0","40767","","1239","","","68","19","","","1","19","training","adjacent","CD","3","4","R.jpg","L.jpg","0","1","0","",""
"","feedback","","html-keyboard-response","133","264079","0.0-1.0-177.0-0.0","0","0","40767","","null","","","null","19","","","","","","","","","","","","","","","",""
"","time_out","","html-keyboard-response","134","266093","0.0-1.0-179.0-0.0","0","0","40767","","null","","","null","19","","","","","","","","","","","","","","","",""
"","ITI","","html-keyboard-response","135","267100","0.0-1.0-180.0","0","0","40767","","null","","","null","19","","","","","","","","","","","","","","","NaN",""
"","S1","","html-keyboard-response","136","267356","0.0-1.0-182.0","0","0","40767","","null","","","null","20","","","","","","","","","","","","","","","",""
"","ISI","","html-keyboard-response","137","268362","0.0-1.0-183.0","0","0","40767","","null","","","null","20","NaN","","","","","","","","","","","","","","",""
"","S2","","html-keyboard-response","138","268625","0.0-1.0-184.0","0","0","40767","","null","","","null","20","","NaN","","","","","","","","","","","","","",""
"","response","","html-keyboard-response","139","268987","0.0-1.0-185.0-0.0","0","0","40767","","360","","","75","20","","","1","20","training","adjacent","CB","3","2","R.jpg","M.jpg","1","0","0","",""
"","feedback","","html-keyboard-response","140","270001","0.0-1.0-186.0-0.0","0","0","40767","","null","","","null","20","","","","","","","","","","","","","","","",""
"","time_out","","html-keyboard-response","141","272014","0.0-1.0-188.0-0.0","0","0","40767","","null","","","null","20","","","","","","","","","","","","","","","",""
"","ITI","","html-keyboard-response","142","273021","0.0-1.0-189.0","0","0","40767","","null","","","null","20","","","","","","","","","","","","","","","NaN",""
"","S1","","html-keyboard-response","143","273292","0.0-1.0-191.0","0","0","40767","","null","","","null","21","","","","","","","","","","","","","","","",""
"","ISI","","html-keyboard-response","144","274299","0.0-1.0-192.0","0","0","40767","","null","","","null","21","NaN","","","","","","","","","","","","","","",""
"","S2","","html-keyboard-response","145","274562","0.0-1.0-193.0","0","0","40767","","null","","","null","21","","NaN","","","","","","","","","","","","","",""
"","response","","html-keyboard-response","146","275835","0.0-1.0-194.0-0.0","0","0","40767","","1271","","","68","21","","","1","21","training","adjacent","CD","3","4","R.jpg","L.jpg","0","1","0","",""
"","feedback","","html-keyboard-response","147","276847","0.0-1.0-195.0-0.0","0","0","40767","","null","","","null","21","","","","","","","","","","","","","","","",""
"","time_out","","html-keyboard-response","148","278851","0.0-1.0-197.0-0.0","0","0","40767","","null","","","null","21","","","","","","","","","","","","","","","",""
"","ITI","","html-keyboard-response","149","279858","0.0-1.0-198.0","0","0","40767","","null","","","null","21","","","","","","","","","","","","","","","NaN",""
"","S1","","html-keyboard-response","150","280122","0.0-1.0-200.0","0","0","40767","","null","","","null","22","","","","","","","","","","","","","","","",""
"","ISI","","html-keyboard-response","151","281129","0.0-1.0-201.0","0","0","40767","","null","","","null","22","NaN","","","","","","","","","","","","","","",""
"","S2","","html-keyboard-response","152","281385","0.0-1.0-202.0","0","0","40767","","null","","","null","22","","NaN","","","","","","","","","","","","","",""
"","response","","html-keyboard-response","153","281836","0.0-1.0-203.0-0.0","0","0","40767","","449","","","75","22","","","1","22","training","adjacent","CB","3","2","R.jpg","M.jpg","1","0","0","",""
"","feedback","","html-keyboard-response","154","282842","0.0-1.0-204.0-0.0","0","0","40767","","null","","","null","22","","","","","","","","","","","","","","","",""
"","time_out","","html-keyboard-response","155","284853","0.0-1.0-206.0-0.0","0","0","40767","","null","","","null","22","","","","","","","","","","","","","","","",""
"","ITI","","html-keyboard-response","156","285861","0.0-1.0-207.0","0","0","40767","","null","","","null","22","","","","","","","","","","","","","","","NaN",""
"","S1","","html-keyboard-response","157","286115","0.0-1.0-209.0","0","0","40767","","null","","","null","23","","","","","","","","","","","","","","","",""
"","ISI","","html-keyboard-response","158","287122","0.0-1.0-210.0","0","0","40767","","null","","","null","23","NaN","","","","","","","","","","","","","","",""
"","S2","","html-keyboard-response","159","287386","0.0-1.0-211.0","0","0","40767","","null","","","null","23","","NaN","","","","","","","","","","","","","",""
"","response","","html-keyboard-response","160","287811","0.0-1.0-212.0-0.0","0","0","40767","","423","","","75","23","","","1","23","training","adjacent","GF","7","6","Q.jpg","P.jpg","1","0","0","",""
"","feedback","","html-keyboard-response","161","288816","0.0-1.0-213.0-0.0","0","0","40767","","null","","","null","23","","","","","","","","","","","","","","","",""
"","time_out","","html-keyboard-response","162","290831","0.0-1.0-215.0-0.0","0","0","40767","","null","","","null","23","","","","","","","","","","","","","","","",""
"","ITI","","html-keyboard-response","163","291838","0.0-1.0-216.0","0","0","40767","","null","","","null","23","","","","","","","","","","","","","","","NaN",""
"","S1","","html-keyboard-response","164","292103","0.0-1.0-218.0","0","0","40767","","null","","","null","24","","","","","","","","","","","","","","","",""
"","ISI","","html-keyboard-response","165","293109","0.0-1.0-219.0","0","0","40767","","null","","","null","24","NaN","","","","","","","","","","","","","","",""
"","S2","","html-keyboard-response","166","293363","0.0-1.0-220.0","0","0","40767","","null","","","null","24","","NaN","","","","","","","","","","","","","",""
"","response","","html-keyboard-response","167","294677","0.0-1.0-221.0-0.0","0","0","40767","","1312","","","68","24","","","1","24","training","adjacent","CD","3","4","R.jpg","L.jpg","0","1","0","",""
"","feedback","","html-keyboard-response","168","295693","0.0-1.0-222.0-0.0","0","0","40767","","null","","","null","24","","","","","","","","","","","","","","","",""
"","time_out","","html-keyboard-response","169","297697","0.0-1.0-224.0-0.0","0","0","40767","","null","","","null","24","","","","","","","","","","","","","","","",""
"","ITI","","html-keyboard-response","170","298704","0.0-1.0-225.0","0","0","40767","","null","","","null","24","","","","","","","","","","","","","","","NaN",""
"","S1","","html-keyboard-response","171","298969","0.0-1.0-227.0","0","0","40767","","null","","","null","25","","","","","","","","","","","","","","","",""
"","ISI","","html-keyboard-response","172","299976","0.0-1.0-228.0","0","0","40767","","null","","","null","25","NaN","","","","","","","","","","","","","","",""
"","S2","","html-keyboard-response","173","300229","0.0-1.0-229.0","0","0","40767","","null","","","null","25","","NaN","","","","","","","","","","","","","",""
"","response","","html-keyboard-response","174","300555","0.0-1.0-230.0-0.0","0","0","40767","","324","","","75","25","","","1","25","training","adjacent","AB","1","2","O.jpg","M.jpg","1","1","1","",""
"","feedback","","html-keyboard-response","175","301569","0.0-1.0-231.0-0.0","0","0","40767","","null","","","null","25","","","","","","","","","","","","","","","",""
"","ITI","","html-keyboard-response","176","302576","0.0-1.0-234.0","0","0","40767","","null","","","null","25","","","","","","","","","","","","","","","NaN",""
"","S1","","html-keyboard-response","177","302830","0.0-1.0-236.0","0","0","40767","","null","","","null","26","","","","","","","","","","","","","","","",""
"","ISI","","html-keyboard-response","178","303836","0.0-1.0-237.0","0","0","40767","","null","","","null","26","NaN","","","","","","","","","","","","","","",""
"","S2","","html-keyboard-response","179","304100","0.0-1.0-238.0","0","0","40767","","null","","","null","26","","NaN","","","","","","","","","","","","","",""
"","response","","html-keyboard-response","180","305675","0.0-1.0-239.0-0.0","0","0","40767","","1574","","","68","26","","","1","26","training","adjacent","CB","3","2","R.jpg","M.jpg","0","0","1","",""
"","feedback","","html-keyboard-response","181","306685","0.0-1.0-240.0-0.0","0","0","40767","","null","","","null","26","","","","","","","","","","","","","","","",""
"","ITI","","html-keyboard-response","182","307700","0.0-1.0-243.0","0","0","40767","","null","","","null","26","","","","","","","","","","","","","","","NaN",""
"","S1","","html-keyboard-response","183","307963","0.0-1.0-245.0","0","0","40767","","null","","","null","27","","","","","","","","","","","","","","","",""
"","ISI","","html-keyboard-response","184","308977","0.0-1.0-246.0","0","0","40767","","null","","","null","27","NaN","","","","","","","","","","","","","","",""
"","S2","","html-keyboard-response","185","309230","0.0-1.0-247.0","0","0","40767","","null","","","null","27","","NaN","","","","","","","","","","","","","",""
"","response","","html-keyboard-response","186","309645","0.0-1.0-248.0-0.0","0","0","40767","","413","","","75","27","","","1","27","training","adjacent","AB","1","2","O.jpg","M.jpg","1","1","1","",""
"","feedback","","html-keyboard-response","187","310657","0.0-1.0-249.0-0.0","0","0","40767","","null","","","null","27","","","","","","","","","","","","","","","",""
"","ITI","","html-keyboard-response","188","311664","0.0-1.0-252.0","0","0","40767","","null","","","null","27","","","","","","","","","","","","","","","NaN",""
"","S1","","html-keyboard-response","189","311919","0.0-1.0-254.0","0","0","40767","","null","","","null","28","","","","","","","","","","","","","","","",""
"","ISI","","html-keyboard-response","190","312927","0.0-1.0-255.0","0","0","40767","","null","","","null","28","NaN","","","","","","","","","","","","","","",""
"","S2","","html-keyboard-response","191","313191","0.0-1.0-256.0","0","0","40767","","null","","","null","28","","NaN","","","","","","","","","","","","","",""
"","response","","html-keyboard-response","192","313923","0.0-1.0-257.0-0.0","0","0","40767","","730","","","75","28","","","1","28","training","adjacent","EF","5","6","N.jpg","P.jpg","1","1","1","",""
"","feedback","","html-keyboard-response","193","314940","0.0-1.0-258.0-0.0","0","0","40767","","null","","","null","28","","","","","","","","","","","","","","","",""
"","ITI","","html-keyboard-response","194","315945","0.0-1.0-261.0","0","0","40767","","null","","","null","28","","","","","","","","","","","","","","","NaN",""
"","S1","","html-keyboard-response","195","316209","0.0-1.0-263.0","0","0","40767","","null","","","null","29","","","","","","","","","","","","","","","",""
"","ISI","","html-keyboard-response","196","317214","0.0-1.0-264.0","0","0","40767","","null","","","null","29","NaN","","","","","","","","","","","","","","",""
"","S2","","html-keyboard-response","197","317470","0.0-1.0-265.0","0","0","40767","","null","","","null","29","","NaN","","","","","","","","","","","","","",""
"","response","","html-keyboard-response","198","318900","0.0-1.0-266.0-0.0","0","0","40767","","1428","","","68","29","","","1","29","training","adjacent","BC","2","3","M.jpg","R.jpg","0","1","0","",""
"","feedback","","html-keyboard-response","199","319918","0.0-1.0-267.0-0.0","0","0","40767","","null","","","null","29","","","","","","","","","","","","","","","",""
"","time_out","","html-keyboard-response","200","321929","0.0-1.0-269.0-0.0","0","0","40767","","null","","","null","29","","","","","","","","","","","","","","","",""
"","ITI","","html-keyboard-response","201","322935","0.0-1.0-270.0","0","0","40767","","null","","","null","29","","","","","","","","","","","","","","","NaN",""
"","S1","","html-keyboard-response","202","323191","0.0-1.0-272.0","0","0","40767","","null","","","null","30","","","","","","","","","","","","","","","",""
"","ISI","","html-keyboard-response","203","324199","0.0-1.0-273.0","0","0","40767","","null","","","null","30","NaN","","","","","","","","","","","","","","",""
"","S2","","html-keyboard-response","204","324463","0.0-1.0-274.0","0","0","40767","","null","","","null","30","","NaN","","","","","","","","","","","","","",""
"","response","","html-keyboard-response","205","325551","0.0-1.0-275.0-0.0","0","0","40767","","1086","","","68","30","","","1","30","training","adjacent","BA","2","1","M.jpg","O.jpg","0","0","1","",""
"","feedback","","html-keyboard-response","206","326563","0.0-1.0-276.0-0.0","0","0","40767","","null","","","null","30","","","","","","","","","","","","","","","",""
"","ITI","","html-keyboard-response","207","327568","0.0-1.0-279.0","0","0","40767","","null","","","null","30","","","","","","","","","","","","","","","NaN",""
"","S1","","html-keyboard-response","208","327823","0.0-1.0-281.0","0","0","40767","","null","","","null","31","","","","","","","","","","","","","","","",""
"","ISI","","html-keyboard-response","209","328830","0.0-1.0-282.0","0","0","40767","","null","","","null","31","NaN","","","","","","","","","","","","","","",""
"","S2","","html-keyboard-response","210","329095","0.0-1.0-283.0","0","0","40767","","null","","","null","31","","NaN","","","","","","","","","","","","","",""
"","response","","html-keyboard-response","211","330711","0.0-1.0-284.0-0.0","0","0","40767","","1614","","","75","31","","","1","31","training","adjacent","DC","4","3","L.jpg","R.jpg","1","0","0","",""
"","feedback","","html-keyboard-response","212","331729","0.0-1.0-285.0-0.0","0","0","40767","","null","","","null","31","","","","","","","","","","","","","","","",""
"","time_out","","html-keyboard-response","213","333733","0.0-1.0-287.0-0.0","0","0","40767","","null","","","null","31","","","","","","","","","","","","","","","",""
"","ITI","","html-keyboard-response","214","334739","0.0-1.0-288.0","0","0","40767","","null","","","null","31","","","","","","","","","","","","","","","NaN",""
"","S1","","html-keyboard-response","215","334994","0.0-1.0-290.0","0","0","40767","","null","","","null","32","","","","","","","","","","","","","","","",""
"","ISI","","html-keyboard-response","216","336000","0.0-1.0-291.0","0","0","40767","","null","","","null","32","NaN","","","","","","","","","","","","","","",""
"","S2","","html-keyboard-response","217","336255","0.0-1.0-292.0","0","0","40767","","null","","","null","32","","NaN","","","","","","","","","","","","","",""
"","response","","html-keyboard-response","218","337161","0.0-1.0-293.0-0.0","0","0","40767","","904","","","68","32","","","1","32","training","adjacent","BA","2","1","M.jpg","O.jpg","0","0","1","",""
"","feedback","","html-keyboard-response","219","338167","0.0-1.0-294.0-0.0","0","0","40767","","null","","","null","32","","","","","","","","","","","","","","","",""
"","ITI","","html-keyboard-response","220","339175","0.0-1.0-297.0","0","0","40767","","null","","","null","32","","","","","","","","","","","","","","","NaN",""
"","S1","","html-keyboard-response","221","339445","0.0-1.0-299.0","0","0","40767","","null","","","null","33","","","","","","","","","","","","","","","",""
"","ISI","","html-keyboard-response","222","340452","0.0-1.0-300.0","0","0","40767","","null","","","null","33","NaN","","","","","","","","","","","","","","",""
"","S2","","html-keyboard-response","223","340716","0.0-1.0-301.0","0","0","40767","","null","","","null","33","","NaN","","","","","","","","","","","","","",""
"","response","","html-keyboard-response","224","341598","0.0-1.0-302.0-0.0","0","0","40767","","879","","","68","33","","","1","33","training","adjacent","GF","7","6","Q.jpg","P.jpg","0","0","1","",""
"","feedback","","html-keyboard-response","225","342614","0.0-1.0-303.0-0.0","0","0","40767","","null","","","null","33","","","","","","","","","","","","","","","",""
"","ITI","","html-keyboard-response","226","343621","0.0-1.0-306.0","0","0","40767","","null","","","null","33","","","","","","","","","","","","","","","NaN",""
"","S1","","html-keyboard-response","227","343876","0.0-1.0-308.0","0","0","40767","","null","","","null","34","","","","","","","","","","","","","","","",""
"","ISI","","html-keyboard-response","228","344881","0.0-1.0-309.0","0","0","40767","","null","","","null","34","NaN","","","","","","","","","","","","","","",""
"","S2","","html-keyboard-response","229","345145","0.0-1.0-310.0","0","0","40767","","null","","","null","34","","NaN","","","","","","","","","","","","","",""
"","response","","html-keyboard-response","230","346289","0.0-1.0-311.0-0.0","0","0","40767","","1141","","","68","34","","","1","34","training","adjacent","DE","4","5","L.jpg","N.jpg","0","1","0","",""
"","feedback","","html-keyboard-response","231","347297","0.0-1.0-312.0-0.0","0","0","40767","","null","","","null","34","","","","","","","","","","","","","","","",""
"","time_out","","html-keyboard-response","232","349311","0.0-1.0-314.0-0.0","0","0","40767","","null","","","null","34","","","","","","","","","","","","","","","",""
"","ITI","","html-keyboard-response","233","350317","0.0-1.0-315.0","0","0","40767","","null","","","null","34","","","","","","","","","","","","","","","NaN",""
"","S1","","html-keyboard-response","234","350581","0.0-1.0-317.0","0","0","40767","","null","","","null","35","","","","","","","","","","","","","","","",""
"","ISI","","html-keyboard-response","235","351587","0.0-1.0-318.0","0","0","40767","","null","","","null","35","NaN","","","","","","","","","","","","","","",""
"","S2","","html-keyboard-response","236","351843","0.0-1.0-319.0","0","0","40767","","null","","","null","35","","NaN","","","","","","","","","","","","","",""
"","response","","html-keyboard-response","237","353325","0.0-1.0-320.0-0.0","0","0","40767","","1480","","","68","35","","","1","35","training","adjacent","BC","2","3","M.jpg","R.jpg","0","1","0","",""
"","feedback","","html-keyboard-response","238","354344","0.0-1.0-321.0-0.0","0","0","40767","","null","","","null","35","","","","","","","","","","","","","","","",""
"","time_out","","html-keyboard-response","239","356357","0.0-1.0-323.0-0.0","0","0","40767","","null","","","null","35","","","","","","","","","","","","","","","",""
"","ITI","","html-keyboard-response","240","357364","0.0-1.0-324.0","0","0","40767","","null","","","null","35","","","","","","","","","","","","","","","NaN",""
"","S1","","html-keyboard-response","241","357628","0.0-1.0-326.0","0","0","40767","","null","","","null","36","","","","","","","","","","","","","","","",""
"","ISI","","html-keyboard-response","242","358635","0.0-1.0-327.0","0","0","40767","","null","","","null","36","NaN","","","","","","","","","","","","","","",""
"","S2","","html-keyboard-response","243","358890","0.0-1.0-328.0","0","0","40767","","null","","","null","36","","NaN","","","","","","","","","","","","","",""
"","response","","html-keyboard-response","244","360648","0.0-1.0-329.0-0.0","0","0","40767","","null","","","null","36","","","1","36","training","adjacent","DC","4","3","L.jpg","R.jpg","NaN","0","0","",""
"","too_slow_prompt","","html-keyboard-response","245","361656","0.0-1.0-331.0-0.0","1","0","40767","","null","","","null","","","","","","","","","","","","","","","","",""
"","time_out","","html-keyboard-response","246","363670","0.0-1.0-332.0-0.0","0","0","40767","","null","","","null","36","","","","","","","","","","","","","","","",""
"","ITI","","html-keyboard-response","247","364677","0.0-1.0-333.0","0","0","40767","","null","","","null","36","","","","","","","","","","","","","","","NaN",""
"","S1","","html-keyboard-response","248","364931","0.0-1.0-335.0","0","0","40767","","null","","","null","37","","","","","","","","","","","","","","","",""
"","ISI","","html-keyboard-response","249","365938","0.0-1.0-336.0","0","0","40767","","null","","","null","37","NaN","","","","","","","","","","","","","","",""
"","S2","","html-keyboard-response","250","366202","0.0-1.0-337.0","0","0","40767","","null","","","null","37","","NaN","","","","","","","","","","","","","",""
"","response","","html-keyboard-response","251","367488","0.0-1.0-338.0-0.0","0","0","40767","","1284","","","75","37","","","1","37","training","adjacent","BC","2","3","M.jpg","R.jpg","1","1","1","",""
"","feedback","","html-keyboard-response","252","368501","0.0-1.0-339.0-0.0","0","0","40767","","null","","","null","37","","","","","","","","","","","","","","","",""
"","ITI","","html-keyboard-response","253","369507","0.0-1.0-342.0","0","0","40767","","null","","","null","37","","","","","","","","","","","","","","","NaN",""
"","S1","","html-keyboard-response","254","369762","0.0-1.0-344.0","0","0","40767","","null","","","null","38","","","","","","","","","","","","","","","",""
"","ISI","","html-keyboard-response","255","370767","0.0-1.0-345.0","0","0","40767","","null","","","null","38","NaN","","","","","","","","","","","","","","",""
"","S2","","html-keyboard-response","256","371031","0.0-1.0-346.0","0","0","40767","","null","","","null","38","","NaN","","","","","","","","","","","","","",""
"","response","","html-keyboard-response","257","372121","0.0-1.0-347.0-0.0","0","0","40767","","1087","","","75","38","","","1","38","training","adjacent","CB","3","2","R.jpg","M.jpg","1","0","0","",""
"","feedback","","html-keyboard-response","258","373129","0.0-1.0-348.0-0.0","0","0","40767","","null","","","null","38","","","","","","","","","","","","","","","",""
"","time_out","","html-keyboard-response","259","375143","0.0-1.0-350.0-0.0","0","0","40767","","null","","","null","38","","","","","","","","","","","","","","","",""
"","ITI","","html-keyboard-response","260","376149","0.0-1.0-351.0","0","0","40767","","null","","","null","38","","","","","","","","","","","","","","","NaN",""
"","S1","","html-keyboard-response","261","376404","0.0-1.0-353.0","0","0","40767","","null","","","null","39","","","","","","","","","","","","","","","",""
"","ISI","","html-keyboard-response","262","377410","0.0-1.0-354.0","0","0","40767","","null","","","null","39","NaN","","","","","","","","","","","","","","",""
"","S2","","html-keyboard-response","263","377673","0.0-1.0-355.0","0","0","40767","","null","","","null","39","","NaN","","","","","","","","","","","","","",""
"","response","","html-keyboard-response","264","378440","0.0-1.0-356.0-0.0","0","0","40767","","765","","","68","39","","","1","39","training","adjacent","FG","6","7","P.jpg","Q.jpg","0","1","0","",""
"","feedback","","html-keyboard-response","265","379453","0.0-1.0-357.0-0.0","0","0","40767","","null","","","null","39","","","","","","","","","","","","","","","",""
"","time_out","","html-keyboard-response","266","381467","0.0-1.0-359.0-0.0","0","0","40767","","null","","","null","39","","","","","","","","","","","","","","","",""
"","ITI","","html-keyboard-response","267","382474","0.0-1.0-360.0","0","0","40767","","null","","","null","39","","","","","","","","","","","","","","","NaN",""
"","S1","","html-keyboard-response","268","382728","0.0-1.0-362.0","0","0","40767","","null","","","null","40","","","","","","","","","","","","","","","",""
"","ISI","","html-keyboard-response","269","383736","0.0-1.0-363.0","0","0","40767","","null","","","null","40","NaN","","","","","","","","","","","","","","",""
"","S2","","html-keyboard-response","270","383999","0.0-1.0-364.0","0","0","40767","","null","","","null","40","","NaN","","","","","","","","","","","","","",""
"","response","","html-keyboard-response","271","384527","0.0-1.0-365.0-0.0","0","0","40767","","525","","","68","40","","","1","40","training","adjacent","ED","5","4","N.jpg","L.jpg","0","0","1","",""
"","feedback","","html-keyboard-response","272","385550","0.0-1.0-366.0-0.0","0","0","40767","","null","","","null","40","","","","","","","","","","","","","","","",""
"","ITI","","html-keyboard-response","273","386557","0.0-1.0-369.0","0","0","40767","","null","","","null","40","","","","","","","","","","","","","","","NaN",""
"","S1","","html-keyboard-response","274","386818","0.0-1.0-371.0","0","0","40767","","null","","","null","41","","","","","","","","","","","","","","","",""
"","ISI","","html-keyboard-response","275","387825","0.0-1.0-372.0","0","0","40767","","null","","","null","41","NaN","","","","","","","","","","","","","","",""
"","S2","","html-keyboard-response","276","388079","0.0-1.0-373.0","0","0","40767","","null","","","null","41","","NaN","","","","","","","","","","","","","",""
"","response","","html-keyboard-response","277","389191","0.0-1.0-374.0-0.0","0","0","40767","","1110","","","68","41","","","1","41","training","adjacent","DE","4","5","L.jpg","N.jpg","0","1","0","",""
"","feedback","","html-keyboard-response","278","390209","0.0-1.0-375.0-0.0","0","0","40767","","null","","","null","41","","","","","","","","","","","","","","","",""
"","time_out","","html-keyboard-response","279","392223","0.0-1.0-377.0-0.0","0","0","40767","","null","","","null","41","","","","","","","","","","","","","","","",""
"","ITI","","html-keyboard-response","280","393230","0.0-1.0-378.0","0","0","40767","","null","","","null","41","","","","","","","","","","","","","","","NaN",""
"","S1","","html-keyboard-response","281","393500","0.0-1.0-380.0","0","0","40767","","null","","","null","42","","","","","","","","","","","","","","","",""
"","ISI","","html-keyboard-response","282","394507","0.0-1.0-381.0","0","0","40767","","null","","","null","42","NaN","","","","","","","","","","","","","","",""
"","S2","","html-keyboard-response","283","394771","0.0-1.0-382.0","0","0","40767","","null","","","null","42","","NaN","","","","","","","","","","","","","",""
"","response","","html-keyboard-response","284","396020","0.0-1.0-383.0-0.0","0","0","40767","","1248","","","68","42","","","1","42","training","adjacent","DC","4","3","L.jpg","R.jpg","0","0","1","",""
"","feedback","","html-keyboard-response","285","397044","0.0-1.0-384.0-0.0","0","0","40767","","null","","","null","42","","","","","","","","","","","","","","","",""
"","ITI","","html-keyboard-response","286","398050","0.0-1.0-387.0","0","0","40767","","null","","","null","42","","","","","","","","","","","","","","","NaN",""
"","S1","","html-keyboard-response","287","398313","0.0-1.0-389.0","0","0","40767","","null","","","null","43","","","","","","","","","","","","","","","",""
"","ISI","","html-keyboard-response","288","399320","0.0-1.0-390.0","0","0","40767","","null","","","null","43","NaN","","","","","","","","","","","","","","",""
"","S2","","html-keyboard-response","289","399575","0.0-1.0-391.0","0","0","40767","","null","","","null","43","","NaN","","","","","","","","","","","","","",""
"","response","","html-keyboard-response","290","400441","0.0-1.0-392.0-0.0","0","0","40767","","865","","","68","43","","","1","43","training","adjacent","EF","5","6","N.jpg","P.jpg","0","1","0","",""
"","feedback","","html-keyboard-response","291","401450","0.0-1.0-393.0-0.0","0","0","40767","","null","","","null","43","","","","","","","","","","","","","","","",""
"","time_out","","html-keyboard-response","292","403462","0.0-1.0-395.0-0.0","0","0","40767","","null","","","null","43","","","","","","","","","","","","","","","",""
"","ITI","","html-keyboard-response","293","404470","0.0-1.0-396.0","0","0","40767","","null","","","null","43","","","","","","","","","","","","","","","NaN",""
"","S1","","html-keyboard-response","294","404725","0.0-1.0-398.0","0","0","40767","","null","","","null","44","","","","","","","","","","","","","","","",""
"","ISI","","html-keyboard-response","295","405731","0.0-1.0-399.0","0","0","40767","","null","","","null","44","NaN","","","","","","","","","","","","","","",""
"","S2","","html-keyboard-response","296","406003","0.0-1.0-400.0","0","0","40767","","null","","","null","44","","NaN","","","","","","","","","","","","","",""
"","response","","html-keyboard-response","297","407187","0.0-1.0-401.0-0.0","0","0","40767","","1183","","","75","44","","","1","44","training","adjacent","DC","4","3","L.jpg","R.jpg","1","0","0","",""
"","feedback","","html-keyboard-response","298","408194","0.0-1.0-402.0-0.0","0","0","40767","","null","","","null","44","","","","","","","","","","","","","","","",""
"","time_out","","html-keyboard-response","299","410208","0.0-1.0-404.0-0.0","0","0","40767","","null","","","null","44","","","","","","","","","","","","","","","",""
"","ITI","","html-keyboard-response","300","411214","0.0-1.0-405.0","0","0","40767","","null","","","null","44","","","","","","","","","","","","","","","NaN",""
"","S1","","html-keyboard-response","301","411469","0.0-1.0-407.0","0","0","40767","","null","","","null","45","","","","","","","","","","","","","","","",""
"","ISI","","html-keyboard-response","302","412477","0.0-1.0-408.0","0","0","40767","","null","","","null","45","NaN","","","","","","","","","","","","","","",""
"","S2","","html-keyboard-response","303","412745","0.0-1.0-409.0","0","0","40767","","null","","","null","45","","NaN","","","","","","","","","","","","","",""
"","response","","html-keyboard-response","304","414276","0.0-1.0-410.0-0.0","0","0","40767","","1529","","","68","45","","","1","45","training","adjacent","EF","5","6","N.jpg","P.jpg","0","1","0","",""
"","feedback","","html-keyboard-response","305","415293","0.0-1.0-411.0-0.0","0","0","40767","","null","","","null","45","","","","","","","","","","","","","","","",""
"","time_out","","html-keyboard-response","306","417306","0.0-1.0-413.0-0.0","0","0","40767","","null","","","null","45","","","","","","","","","","","","","","","",""
"","ITI","","html-keyboard-response","307","418313","0.0-1.0-414.0","0","0","40767","","null","","","null","45","","","","","","","","","","","","","","","NaN",""
"","S1","","html-keyboard-response","308","418584","0.0-1.0-416.0","0","0","40767","","null","","","null","46","","","","","","","","","","","","","","","",""
"","ISI","","html-keyboard-response","309","419591","0.0-1.0-417.0","0","0","40767","","null","","","null","46","NaN","","","","","","","","","","","","","","",""
"","S2","","html-keyboard-response","310","419854","0.0-1.0-418.0","0","0","40767","","null","","","null","46","","NaN","","","","","","","","","","","","","",""
"","response","","html-keyboard-response","311","421049","0.0-1.0-419.0-0.0","0","0","40767","","1193","","","68","46","","","1","46","training","adjacent","FE","6","5","P.jpg","N.jpg","0","0","1","",""
"","feedback","","html-keyboard-response","312","422055","0.0-1.0-420.0-0.0","0","0","40767","","null","","","null","46","","","","","","","","","","","","","","","",""
"","ITI","","html-keyboard-response","313","423062","0.0-1.0-423.0","0","0","40767","","null","","","null","46","","","","","","","","","","","","","","","NaN",""
"","S1","","html-keyboard-response","314","423316","0.0-1.0-425.0","0","0","40767","","null","","","null","47","","","","","","","","","","","","","","","",""
"","ISI","","html-keyboard-response","315","424323","0.0-1.0-426.0","0","0","40767","","null","","","null","47","NaN","","","","","","","","","","","","","","",""
"","S2","","html-keyboard-response","316","424587","0.0-1.0-427.0","0","0","40767","","null","","","null","47","","NaN","","","","","","","","","","","","","",""
"","response","","html-keyboard-response","317","424862","0.0-1.0-428.0-0.0","0","0","40767","","272","","","68","47","","","1","47","training","adjacent","AB","1","2","O.jpg","M.jpg","0","1","0","",""
"","feedback","","html-keyboard-response","318","425878","0.0-1.0-429.0-0.0","0","0","40767","","null","","","null","47","","","","","","","","","","","","","","","",""
"","time_out","","html-keyboard-response","319","427894","0.0-1.0-431.0-0.0","0","0","40767","","null","","","null","47","","","","","","","","","","","","","","","",""
"","ITI","","html-keyboard-response","320","428900","0.0-1.0-432.0","0","0","40767","","null","","","null","47","","","","","","","","","","","","","","","NaN",""
"","block_over","","html-keyboard-response","321","435729","0.0-1.0-433.0-0.0","0","0","40767","","6827","","","32","47","","","","","","","","","","","","","","","",""
"","S1","","html-keyboard-response","322","435984","0.0-1.0-434.0","0","0","40767","","null","","","null","48","","","","","","","","","","","","","","","",""
"","ISI","","html-keyboard-response","323","436991","0.0-1.0-435.0","0","0","40767","","null","","","null","48","NaN","","","","","","","","","","","","","","",""
"","S2","","html-keyboard-response","324","437245","0.0-1.0-436.0","0","0","40767","","null","","","null","48","","NaN","","","","","","","","","","","","","",""
"","response","","html-keyboard-response","325","437997","0.0-1.0-437.0-0.0","0","0","40767","","749","","","68","48","","","2","48","training","adjacent","GF","7","6","Q.jpg","P.jpg","0","0","1","",""
"","feedback","","html-keyboard-response","326","439001","0.0-1.0-438.0-0.0","0","0","40767","","null","","","null","48","","","","","","","","","","","","","","","",""
"","ITI","","html-keyboard-response","327","440009","0.0-1.0-441.0","0","0","40767","","null","","","null","48","","","","","","","","","","","","","","","NaN",""
"","S1","","html-keyboard-response","328","440262","0.0-1.0-443.0","0","0","40767","","null","","","null","49","","","","","","","","","","","","","","","",""
"","ISI","","html-keyboard-response","329","441270","0.0-1.0-444.0","0","0","40767","","null","","","null","49","NaN","","","","","","","","","","","","","","",""
"","S2","","html-keyboard-response","330","441534","0.0-1.0-445.0","0","0","40767","","null","","","null","49","","NaN","","","","","","","","","","","","","",""
"","response","","html-keyboard-response","331","441758","0.0-1.0-446.0-0.0","0","0","40767","","221","","","68","49","","","2","49","training","adjacent","AB","1","2","O.jpg","M.jpg","0","1","0","",""
"","feedback","","html-keyboard-response","332","442765","0.0-1.0-447.0-0.0","0","0","40767","","null","","","null","49","","","","","","","","","","","","","","","",""
"","time_out","","html-keyboard-response","333","444778","0.0-1.0-449.0-0.0","0","0","40767","","null","","","null","49","","","","","","","","","","","","","","","",""
"","ITI","","html-keyboard-response","334","445785","0.0-1.0-450.0","0","0","40767","","null","","","null","49","","","","","","","","","","","","","","","NaN",""
"","S1","","html-keyboard-response","335","446048","0.0-1.0-452.0","0","0","40767","","null","","","null","50","","","","","","","","","","","","","","","",""
"","ISI","","html-keyboard-response","336","447055","0.0-1.0-453.0","0","0","40767","","null","","","null","50","NaN","","","","","","","","","","","","","","",""
"","S2","","html-keyboard-response","337","447310","0.0-1.0-454.0","0","0","40767","","null","","","null","50","","NaN","","","","","","","","","","","","","",""
"","response","","html-keyboard-response","338","447805","0.0-1.0-455.0-0.0","0","0","40767","","491","","","68","50","","","2","50","training","adjacent","AB","1","2","O.jpg","M.jpg","0","1","0","",""
"","feedback","","html-keyboard-response","339","448820","0.0-1.0-456.0-0.0","0","0","40767","","null","","","null","50","","","","","","","","","","","","","","","",""
"","time_out","","html-keyboard-response","340","450832","0.0-1.0-458.0-0.0","0","0","40767","","null","","","null","50","","","","","","","","","","","","","","","",""
"","ITI","","html-keyboard-response","341","451839","0.0-1.0-459.0","0","0","40767","","null","","","null","50","","","","","","","","","","","","","","","NaN",""
"","S1","","html-keyboard-response","342","452103","0.0-1.0-461.0","0","0","40767","","null","","","null","51","","","","","","","","","","","","","","","",""
"","ISI","","html-keyboard-response","343","453110","0.0-1.0-462.0","0","0","40767","","null","","","null","51","NaN","","","","","","","","","","","","","","",""
"","S2","","html-keyboard-response","344","453363","0.0-1.0-463.0","0","0","40767","","null","","","null","51","","NaN","","","","","","","","","","","","","",""
"","response","","html-keyboard-response","345","454365","0.0-1.0-464.0-0.0","0","0","40767","","999","","","68","51","","","2","51","training","adjacent","DC","4","3","L.jpg","R.jpg","0","0","1","",""
"","feedback","","html-keyboard-response","346","455379","0.0-1.0-465.0-0.0","0","0","40767","","null","","","null","51","","","","","","","","","","","","","","","",""
"","ITI","","html-keyboard-response","347","456385","0.0-1.0-468.0","0","0","40767","","null","","","null","51","","","","","","","","","","","","","","","NaN",""
"","S1","","html-keyboard-response","348","456655","0.0-1.0-470.0","0","0","40767","","null","","","null","52","","","","","","","","","","","","","","","",""
"","ISI","","html-keyboard-response","349","457662","0.0-1.0-471.0","0","0","40767","","null","","","null","52","NaN","","","","","","","","","","","","","","",""
"","S2","","html-keyboard-response","350","457925","0.0-1.0-472.0","0","0","40767","","null","","","null","52","","NaN","","","","","","","","","","","","","",""
"","response","","html-keyboard-response","351","458858","0.0-1.0-473.0-0.0","0","0","40767","","929","","","68","52","","","2","52","training","adjacent","BA","2","1","M.jpg","O.jpg","0","0","1","",""
"","feedback","","html-keyboard-response","352","459875","0.0-1.0-474.0-0.0","0","0","40767","","null","","","null","52","","","","","","","","","","","","","","","",""
"","ITI","","html-keyboard-response","353","460882","0.0-1.0-477.0","0","0","40767","","null","","","null","52","","","","","","","","","","","","","","","NaN",""
"","S1","","html-keyboard-response","354","461145","0.0-1.0-479.0","0","0","40767","","null","","","null","53","","","","","","","","","","","","","","","",""
"","ISI","","html-keyboard-response","355","462158","0.0-1.0-480.0","0","0","40767","","null","","","null","53","NaN","","","","","","","","","","","","","","",""
"","S2","","html-keyboard-response","356","462412","0.0-1.0-481.0","0","0","40767","","null","","","null","53","","NaN","","","","","","","","","","","","","",""
"","response","","html-keyboard-response","357","463437","0.0-1.0-482.0-0.0","0","0","40767","","1023","","","75","53","","","2","53","training","adjacent","BC","2","3","M.jpg","R.jpg","1","1","1","",""
"","feedback","","html-keyboard-response","358","464456","0.0-1.0-483.0-0.0","0","0","40767","","null","","","null","53","","","","","","","","","","","","","","","",""
"","ITI","","html-keyboard-response","359","465463","0.0-1.0-486.0","0","0","40767","","null","","","null","53","","","","","","","","","","","","","","","NaN",""
"","S1","","html-keyboard-response","360","465733","0.0-1.0-488.0","0","0","40767","","null","","","null","54","","","","","","","","","","","","","","","",""
"","ISI","","html-keyboard-response","361","466742","0.0-1.0-489.0","0","0","40767","","null","","","null","54","NaN","","","","","","","","","","","","","","",""
"","S2","","html-keyboard-response","362","467006","0.0-1.0-490.0","0","0","40767","","null","","","null","54","","NaN","","","","","","","","","","","","","",""
"","response","","html-keyboard-response","363","467616","0.0-1.0-491.0-0.0","0","0","40767","","608","","","75","54","","","2","54","training","adjacent","EF","5","6","N.jpg","P.jpg","1","1","1","",""
"","feedback","","html-keyboard-response","364","468633","0.0-1.0-492.0-0.0","0","0","40767","","null","","","null","54","","","","","","","","","","","","","","","",""
"","ITI","","html-keyboard-response","365","469639","0.0-1.0-495.0","0","0","40767","","null","","","null","54","","","","","","","","","","","","","","","NaN",""
"","S1","","html-keyboard-response","366","469893","0.0-1.0-497.0","0","0","40767","","null","","","null","55","","","","","","","","","","","","","","","",""
"","ISI","","html-keyboard-response","367","470898","0.0-1.0-498.0","0","0","40767","","null","","","null","55","NaN","","","","","","","","","","","","","","",""
"","S2","","html-keyboard-response","368","471169","0.0-1.0-499.0","0","0","40767","","null","","","null","55","","NaN","","","","","","","","","","","","","",""
"","response","","html-keyboard-response","369","472027","0.0-1.0-500.0-0.0","0","0","40767","","855","","","68","55","","","2","55","training","adjacent","DE","4","5","L.jpg","N.jpg","0","1","0","",""
"","feedback","","html-keyboard-response","370","473035","0.0-1.0-501.0-0.0","0","0","40767","","null","","","null","55","","","","","","","","","","","","","","","",""
"","time_out","","html-keyboard-response","371","475049","0.0-1.0-503.0-0.0","0","0","40767","","null","","","null","55","","","","","","","","","","","","","","","",""
"","ITI","","html-keyboard-response","372","476056","0.0-1.0-504.0","0","0","40767","","null","","","null","55","","","","","","","","","","","","","","","NaN",""
"","S1","","html-keyboard-response","373","476327","0.0-1.0-506.0","0","0","40767","","null","","","null","56","","","","","","","","","","","","","","","",""
"","ISI","","html-keyboard-response","374","477333","0.0-1.0-507.0","0","0","40767","","null","","","null","56","NaN","","","","","","","","","","","","","","",""
"","S2","","html-keyboard-response","375","477596","0.0-1.0-508.0","0","0","40767","","null","","","null","56","","NaN","","","","","","","","","","","","","",""
"","response","","html-keyboard-response","376","478423","0.0-1.0-509.0-0.0","0","0","40767","","824","","","68","56","","","2","56","training","adjacent","CB","3","2","R.jpg","M.jpg","0","0","1","",""
"","feedback","","html-keyboard-response","377","479447","0.0-1.0-510.0-0.0","0","0","40767","","null","","","null","56","","","","","","","","","","","","","","","",""
"","ITI","","html-keyboard-response","378","480455","0.0-1.0-513.0","0","0","40767","","null","","","null","56","","","","","","","","","","","","","","","NaN",""
"","S1","","html-keyboard-response","379","480718","0.0-1.0-515.0","0","0","40767","","null","","","null","57","","","","","","","","","","","","","","","",""
"","ISI","","html-keyboard-response","380","481725","0.0-1.0-516.0","0","0","40767","","null","","","null","57","NaN","","","","","","","","","","","","","","",""
"","S2","","html-keyboard-response","381","481979","0.0-1.0-517.0","0","0","40767","","null","","","null","57","","NaN","","","","","","","","","","","","","",""
"","response","","html-keyboard-response","382","482742","0.0-1.0-518.0-0.0","0","0","40767","","761","","","68","57","","","2","57","training","adjacent","ED","5","4","N.jpg","L.jpg","0","0","1","",""
"","feedback","","html-keyboard-response","383","483758","0.0-1.0-519.0-0.0","0","0","40767","","null","","","null","57","","","","","","","","","","","","","","","",""
"","ITI","","html-keyboard-response","384","484765","0.0-1.0-522.0","0","0","40767","","null","","","null","57","","","","","","","","","","","","","","","NaN",""
"","S1","","html-keyboard-response","385","485021","0.0-1.0-524.0","0","0","40767","","null","","","null","58","","","","","","","","","","","","","","","",""
"","ISI","","html-keyboard-response","386","486027","0.0-1.0-525.0","0","0","40767","","null","","","null","58","NaN","","","","","","","","","","","","","","",""
"","S2","","html-keyboard-response","387","486290","0.0-1.0-526.0","0","0","40767","","null","","","null","58","","NaN","","","","","","","","","","","","","",""
"","response","","html-keyboard-response","388","487339","0.0-1.0-527.0-0.0","0","0","40767","","1045","","","75","58","","","2","58","training","adjacent","AB","1","2","O.jpg","M.jpg","1","1","1","",""
"","feedback","","html-keyboard-response","389","488357","0.0-1.0-528.0-0.0","0","0","40767","","null","","","null","58","","","","","","","","","","","","","","","",""
"","ITI","","html-keyboard-response","390","489364","0.0-1.0-531.0","0","0","40767","","null","","","null","58","","","","","","","","","","","","","","","NaN",""
"","S1","","html-keyboard-response","391","489634","0.0-1.0-533.0","0","0","40767","","null","","","null","59","","","","","","","","","","","","","","","",""
"","ISI","","html-keyboard-response","392","490640","0.0-1.0-534.0","0","0","40767","","null","","","null","59","NaN","","","","","","","","","","","","","","",""
"","S2","","html-keyboard-response","393","490904","0.0-1.0-535.0","0","0","40767","","null","","","null","59","","NaN","","","","","","","","","","","","","",""
"","response","","html-keyboard-response","394","492483","0.0-1.0-536.0-0.0","0","0","40767","","1577","","","68","59","","","2","59","training","adjacent","GF","7","6","Q.jpg","P.jpg","0","0","1","",""
"","feedback","","html-keyboard-response","395","493491","0.0-1.0-537.0-0.0","0","0","40767","","null","","","null","59","","","","","","","","","","","","","","","",""
"","ITI","","html-keyboard-response","396","494497","0.0-1.0-540.0","0","0","40767","","null","","","null","59","","","","","","","","","","","","","","","NaN",""
"","S1","","html-keyboard-response","397","494768","0.0-1.0-542.0","0","0","40767","","null","","","null","60","","","","","","","","","","","","","","","",""
"","ISI","","html-keyboard-response","398","495775","0.0-1.0-543.0","0","0","40767","","null","","","null","60","NaN","","","","","","","","","","","","","","",""
"","S2","","html-keyboard-response","399","496038","0.0-1.0-544.0","0","0","40767","","null","","","null","60","","NaN","","","","","","","","","","","","","",""
"","response","","html-keyboard-response","400","497115","0.0-1.0-545.0-0.0","0","0","40767","","1074","","","68","60","","","2","60","training","adjacent","FE","6","5","P.jpg","N.jpg","0","0","1","",""
"","feedback","","html-keyboard-response","401","498121","0.0-1.0-546.0-0.0","0","0","40767","","null","","","null","60","","","","","","","","","","","","","","","",""
"","ITI","","html-keyboard-response","402","499129","0.0-1.0-549.0","0","0","40767","","null","","","null","60","","","","","","","","","","","","","","","NaN",""
"","S1","","html-keyboard-response","403","499398","0.0-1.0-551.0","0","0","40767","","null","","","null","61","","","","","","","","","","","","","","","",""
"","ISI","","html-keyboard-response","404","500406","0.0-1.0-552.0","0","0","40767","","null","","","null","61","NaN","","","","","","","","","","","","","","",""
"","S2","","html-keyboard-response","405","500682","0.0-1.0-553.0","0","0","40767","","null","","","null","61","","NaN","","","","","","","","","","","","","",""
"","response","","html-keyboard-response","406","500849","0.0-1.0-554.0-0.0","0","0","40767","","165","","","75","61","","","2","61","training","adjacent","CD","3","4","R.jpg","L.jpg","1","1","1","",""
"","feedback","","html-keyboard-response","407","501861","0.0-1.0-555.0-0.0","0","0","40767","","null","","","null","61","","","","","","","","","","","","","","","",""
"","ITI","","html-keyboard-response","408","502868","0.0-1.0-558.0","0","0","40767","","null","","","null","61","","","","","","","","","","","","","","","NaN",""
"","S1","","html-keyboard-response","409","503123","0.0-1.0-560.0","0","0","40767","","null","","","null","62","","","","","","","","","","","","","","","",""
"","ISI","","html-keyboard-response","410","504131","0.0-1.0-561.0","0","0","40767","","null","","","null","62","NaN","","","","","","","","","","","","","","",""
"","S2","","html-keyboard-response","411","504396","0.0-1.0-562.0","0","0","40767","","null","","","null","62","","NaN","","","","","","","","","","","","","",""
"","response","","html-keyboard-response","412","504932","0.0-1.0-563.0-0.0","0","0","40767","","534","","","75","62","","","2","62","training","adjacent","BC","2","3","M.jpg","R.jpg","1","1","1","",""
"","feedback","","html-keyboard-response","413","505944","0.0-1.0-564.0-0.0","0","0","40767","","null","","","null","62","","","","","","","","","","","","","","","",""
"","ITI","","html-keyboard-response","414","506950","0.0-1.0-567.0","0","0","40767","","null","","","null","62","","","","","","","","","","","","","","","NaN",""
"","S1","","html-keyboard-response","415","507215","0.0-1.0-569.0","0","0","40767","","null","","","null","63","","","","","","","","","","","","","","","",""
"","ISI","","html-keyboard-response","416","508221","0.0-1.0-570.0","0","0","40767","","null","","","null","63","NaN","","","","","","","","","","","","","","",""
"","S2","","html-keyboard-response","417","508477","0.0-1.0-571.0","0","0","40767","","null","","","null","63","","NaN","","","","","","","","","","","","","",""
"","response","","html-keyboard-response","418","508956","0.0-1.0-572.0-0.0","0","0","40767","","477","","","68","63","","","2","63","training","adjacent","FG","6","7","P.jpg","Q.jpg","0","1","0","",""
"","feedback","","html-keyboard-response","419","509969","0.0-1.0-573.0-0.0","0","0","40767","","null","","","null","63","","","","","","","","","","","","","","","",""
"","time_out","","html-keyboard-response","420","511983","0.0-1.0-575.0-0.0","0","0","40767","","null","","","null","63","","","","","","","","","","","","","","","",""
"","ITI","","html-keyboard-response","421","512990","0.0-1.0-576.0","0","0","40767","","null","","","null","63","","","","","","","","","","","","","","","NaN",""
"","S1","","html-keyboard-response","422","513253","0.0-1.0-578.0","0","0","40767","","null","","","null","64","","","","","","","","","","","","","","","",""
"","ISI","","html-keyboard-response","423","514259","0.0-1.0-579.0","0","0","40767","","null","","","null","64","NaN","","","","","","","","","","","","","","",""
"","S2","","html-keyboard-response","424","514514","0.0-1.0-580.0","0","0","40767","","null","","","null","64","","NaN","","","","","","","","","","","","","",""
"","response","","html-keyboard-response","425","515397","0.0-1.0-581.0-0.0","0","0","40767","","882","","","68","64","","","2","64","training","adjacent","CB","3","2","R.jpg","M.jpg","0","0","1","",""
"","feedback","","html-keyboard-response","426","516410","0.0-1.0-582.0-0.0","0","0","40767","","null","","","null","64","","","","","","","","","","","","","","","",""
"","ITI","","html-keyboard-response","427","517414","0.0-1.0-585.0","0","0","40767","","null","","","null","64","","","","","","","","","","","","","","","NaN",""
"","S1","","html-keyboard-response","428","517670","0.0-1.0-587.0","0","0","40767","","null","","","null","65","","","","","","","","","","","","","","","",""
"","ISI","","html-keyboard-response","429","518678","0.0-1.0-588.0","0","0","40767","","null","","","null","65","NaN","","","","","","","","","","","","","","",""
"","S2","","html-keyboard-response","430","518947","0.0-1.0-589.0","0","0","40767","","null","","","null","65","","NaN","","","","","","","","","","","","","",""
"","response","","html-keyboard-response","431","519439","0.0-1.0-590.0-0.0","0","0","40767","","490","","","68","65","","","2","65","training","adjacent","FG","6","7","P.jpg","Q.jpg","0","1","0","",""
"","feedback","","html-keyboard-response","432","520458","0.0-1.0-591.0-0.0","0","0","40767","","null","","","null","65","","","","","","","","","","","","","","","",""
"","time_out","","html-keyboard-response","433","522470","0.0-1.0-593.0-0.0","0","0","40767","","null","","","null","65","","","","","","","","","","","","","","","",""
"","ITI","","html-keyboard-response","434","523478","0.0-1.0-594.0","0","0","40767","","null","","","null","65","","","","","","","","","","","","","","","NaN",""
"","S1","","html-keyboard-response","435","523740","0.0-1.0-596.0","0","0","40767","","null","","","null","66","","","","","","","","","","","","","","","",""
"","ISI","","html-keyboard-response","436","524745","0.0-1.0-597.0","0","0","40767","","null","","","null","66","NaN","","","","","","","","","","","","","","",""
"","S2","","html-keyboard-response","437","525001","0.0-1.0-598.0","0","0","40767","","null","","","null","66","","NaN","","","","","","","","","","","","","",""
"","response","","html-keyboard-response","438","525954","0.0-1.0-599.0-0.0","0","0","40767","","951","","","75","66","","","2","66","training","adjacent","DC","4","3","L.jpg","R.jpg","1","0","0","",""
"","feedback","","html-keyboard-response","439","526960","0.0-1.0-600.0-0.0","0","0","40767","","null","","","null","66","","","","","","","","","","","","","","","",""
"","time_out","","html-keyboard-response","440","528973","0.0-1.0-602.0-0.0","0","0","40767","","null","","","null","66","","","","","","","","","","","","","","","",""
"","ITI","","html-keyboard-response","441","529979","0.0-1.0-603.0","0","0","40767","","null","","","null","66","","","","","","","","","","","","","","","NaN",""
"","S1","","html-keyboard-response","442","530233","0.0-1.0-605.0","0","0","40767","","null","","","null","67","","","","","","","","","","","","","","","",""
"","ISI","","html-keyboard-response","443","531241","0.0-1.0-606.0","0","0","40767","","null","","","null","67","NaN","","","","","","","","","","","","","","",""
"","S2","","html-keyboard-response","444","531505","0.0-1.0-607.0","0","0","40767","","null","","","null","67","","NaN","","","","","","","","","","","","","",""
"","response","","html-keyboard-response","445","532441","0.0-1.0-608.0-0.0","0","0","40767","","933","","","68","67","","","2","67","training","adjacent","CB","3","2","R.jpg","M.jpg","0","0","1","",""
"","feedback","","html-keyboard-response","446","533453","0.0-1.0-609.0-0.0","0","0","40767","","null","","","null","67","","","","","","","","","","","","","","","",""
"","ITI","","html-keyboard-response","447","534471","0.0-1.0-612.0","0","0","40767","","null","","","null","67","","","","","","","","","","","","","","","NaN",""
"","S1","","html-keyboard-response","448","534740","0.0-1.0-614.0","0","0","40767","","null","","","null","68","","","","","","","","","","","","","","","",""
"","ISI","","html-keyboard-response","449","535746","0.0-1.0-615.0","0","0","40767","","null","","","null","68","NaN","","","","","","","","","","","","","","",""
"","S2","","html-keyboard-response","450","536010","0.0-1.0-616.0","0","0","40767","","null","","","null","68","","NaN","","","","","","","","","","","","","",""
"","response","","html-keyboard-response","451","537013","0.0-1.0-617.0-0.0","0","0","40767","","1001","","","68","68","","","2","68","training","adjacent","EF","5","6","N.jpg","P.jpg","0","1","0","",""
"","feedback","","html-keyboard-response","452","538019","0.0-1.0-618.0-0.0","0","0","40767","","null","","","null","68","","","","","","","","","","","","","","","",""
"","time_out","","html-keyboard-response","453","540023","0.0-1.0-620.0-0.0","0","0","40767","","null","","","null","68","","","","","","","","","","","","","","","",""
"","ITI","","html-keyboard-response","454","541037","0.0-1.0-621.0","0","0","40767","","null","","","null","68","","","","","","","","","","","","","","","NaN",""
"","S1","","html-keyboard-response","455","541309","0.0-1.0-623.0","0","0","40767","","null","","","null","69","","","","","","","","","","","","","","","",""
"","ISI","","html-keyboard-response","456","542326","0.0-1.0-624.0","0","0","40767","","null","","","null","69","NaN","","","","","","","","","","","","","","",""
"","S2","","html-keyboard-response","457","542590","0.0-1.0-625.0","0","0","40767","","null","","","null","69","","NaN","","","","","","","","","","","","","",""
"","response","","html-keyboard-response","458","543482","0.0-1.0-626.0-0.0","0","0","40767","","890","","","68","69","","","2","69","training","adjacent","FE","6","5","P.jpg","N.jpg","0","0","1","",""
"","feedback","","html-keyboard-response","459","544500","0.0-1.0-627.0-0.0","0","0","40767","","null","","","null","69","","","","","","","","","","","","","","","",""
"","ITI","","html-keyboard-response","460","545505","0.0-1.0-630.0","0","0","40767","","null","","","null","69","","","","","","","","","","","","","","","NaN",""
"","S1","","html-keyboard-response","461","545759","0.0-1.0-632.0","0","0","40767","","null","","","null","70","","","","","","","","","","","","","","","",""
"","ISI","","html-keyboard-response","462","546763","0.0-1.0-633.0","0","0","40767","","null","","","null","70","NaN","","","","","","","","","","","","","","",""
"","S2","","html-keyboard-response","463","547034","0.0-1.0-634.0","0","0","40767","","null","","","null","70","","NaN","","","","","","","","","","","","","",""
"","response","","html-keyboard-response","464","547976","0.0-1.0-635.0-0.0","0","0","40767","","939","","","68","70","","","2","70","training","adjacent","DE","4","5","L.jpg","N.jpg","0","1","0","",""
"","feedback","","html-keyboard-response","465","548992","0.0-1.0-636.0-0.0","0","0","40767","","null","","","null","70","","","","","","","","","","","","","","","",""
"","time_out","","html-keyboard-response","466","551007","0.0-1.0-638.0-0.0","0","0","40767","","null","","","null","70","","","","","","","","","","","","","","","",""
"","ITI","","html-keyboard-response","467","552012","0.0-1.0-639.0","0","0","40767","","null","","","null","70","","","","","","","","","","","","","","","NaN",""
"","S1","","html-keyboard-response","468","552281","0.0-1.0-641.0","0","0","40767","","null","","","null","71","","","","","","","","","","","","","","","",""
"","ISI","","html-keyboard-response","469","553289","0.0-1.0-642.0","0","0","40767","","null","","","null","71","NaN","","","","","","","","","","","","","","",""
"","S2","","html-keyboard-response","470","553554","0.0-1.0-643.0","0","0","40767","","null","","","null","71","","NaN","","","","","","","","","","","","","",""
"","response","","html-keyboard-response","471","554288","0.0-1.0-644.0-0.0","0","0","40767","","731","","","68","71","","","2","71","training","adjacent","CD","3","4","R.jpg","L.jpg","0","1","0","",""
"","feedback","","html-keyboard-response","472","555303","0.0-1.0-645.0-0.0","0","0","40767","","null","","","null","71","","","","","","","","","","","","","","","",""
"","time_out","","html-keyboard-response","473","557316","0.0-1.0-647.0-0.0","0","0","40767","","null","","","null","71","","","","","","","","","","","","","","","",""
"","ITI","","html-keyboard-response","474","558323","0.0-1.0-648.0","0","0","40767","","null","","","null","71","","","","","","","","","","","","","","","NaN",""
"","S1","","html-keyboard-response","475","558587","0.0-1.0-650.0","0","0","40767","","null","","","null","72","","","","","","","","","","","","","","","",""
"","ISI","","html-keyboard-response","476","559592","0.0-1.0-651.0","0","0","40767","","null","","","null","72","NaN","","","","","","","","","","","","","","",""
"","S2","","html-keyboard-response","477","559847","0.0-1.0-652.0","0","0","40767","","null","","","null","72","","NaN","","","","","","","","","","","","","",""
"","response","","html-keyboard-response","478","560635","0.0-1.0-653.0-0.0","0","0","40767","","785","","","68","72","","","2","72","training","adjacent","ED","5","4","N.jpg","L.jpg","0","0","1","",""
"","feedback","","html-keyboard-response","479","561643","0.0-1.0-654.0-0.0","0","0","40767","","null","","","null","72","","","","","","","","","","","","","","","",""
"","ITI","","html-keyboard-response","480","562648","0.0-1.0-657.0","0","0","40767","","null","","","null","72","","","","","","","","","","","","","","","NaN",""
"","S1","","html-keyboard-response","481","562912","0.0-1.0-659.0","0","0","40767","","null","","","null","73","","","","","","","","","","","","","","","",""
"","ISI","","html-keyboard-response","482","563919","0.0-1.0-660.0","0","0","40767","","null","","","null","73","NaN","","","","","","","","","","","","","","",""
"","S2","","html-keyboard-response","483","564175","0.0-1.0-661.0","0","0","40767","","null","","","null","73","","NaN","","","","","","","","","","","","","",""
"","response","","html-keyboard-response","484","565503","0.0-1.0-662.0-0.0","0","0","40767","","1326","","","75","73","","","2","73","training","adjacent","BA","2","1","M.jpg","O.jpg","1","0","0","",""
"","feedback","","html-keyboard-response","485","566521","0.0-1.0-663.0-0.0","0","0","40767","","null","","","null","73","","","","","","","","","","","","","","","",""
"","time_out","","html-keyboard-response","486","568528","0.0-1.0-665.0-0.0","0","0","40767","","null","","","null","73","","","","","","","","","","","","","","","",""
"","ITI","","html-keyboard-response","487","569533","0.0-1.0-666.0","0","0","40767","","null","","","null","73","","","","","","","","","","","","","","","NaN",""
"","S1","","html-keyboard-response","488","569804","0.0-1.0-668.0","0","0","40767","","null","","","null","74","","","","","","","","","","","","","","","",""
"","ISI","","html-keyboard-response","489","570810","0.0-1.0-669.0","0","0","40767","","null","","","null","74","NaN","","","","","","","","","","","","","","",""
"","S2","","html-keyboard-response","490","571073","0.0-1.0-670.0","0","0","40767","","null","","","null","74","","NaN","","","","","","","","","","","","","",""
"","response","","html-keyboard-response","491","572460","0.0-1.0-671.0-0.0","0","0","40767","","1384","","","68","74","","","2","74","training","adjacent","CD","3","4","R.jpg","L.jpg","0","1","0","",""
"","feedback","","html-keyboard-response","492","573473","0.0-1.0-672.0-0.0","0","0","40767","","null","","","null","74","","","","","","","","","","","","","","","",""
"","time_out","","html-keyboard-response","493","575485","0.0-1.0-674.0-0.0","0","0","40767","","null","","","null","74","","","","","","","","","","","","","","","",""
"","ITI","","html-keyboard-response","494","576492","0.0-1.0-675.0","0","0","40767","","null","","","null","74","","","","","","","","","","","","","","","NaN",""
"","S1","","html-keyboard-response","495","576747","0.0-1.0-677.0","0","0","40767","","null","","","null","75","","","","","","","","","","","","","","","",""
"","ISI","","html-keyboard-response","496","577755","0.0-1.0-678.0","0","0","40767","","null","","","null","75","NaN","","","","","","","","","","","","","","",""
"","S2","","html-keyboard-response","497","578019","0.0-1.0-679.0","0","0","40767","","null","","","null","75","","NaN","","","","","","","","","","","","","",""
"","response","","html-keyboard-response","498","578851","0.0-1.0-680.0-0.0","0","0","40767","","830","","","75","75","","","2","75","training","adjacent","DC","4","3","L.jpg","R.jpg","1","0","0","",""
"","feedback","","html-keyboard-response","499","579869","0.0-1.0-681.0-0.0","0","0","40767","","null","","","null","75","","","","","","","","","","","","","","","",""
"","time_out","","html-keyboard-response","500","581883","0.0-1.0-683.0-0.0","0","0","40767","","null","","","null","75","","","","","","","","","","","","","","","",""
"","ITI","","html-keyboard-response","501","582889","0.0-1.0-684.0","0","0","40767","","null","","","null","75","","","","","","","","","","","","","","","NaN",""
"","S1","","html-keyboard-response","502","583154","0.0-1.0-686.0","0","0","40767","","null","","","null","76","","","","","","","","","","","","","","","",""
"","ISI","","html-keyboard-response","503","584161","0.0-1.0-687.0","0","0","40767","","null","","","null","76","NaN","","","","","","","","","","","","","","",""
"","S2","","html-keyboard-response","504","584416","0.0-1.0-688.0","0","0","40767","","null","","","null","76","","NaN","","","","","","","","","","","","","",""
"","response","","html-keyboard-response","505","585398","0.0-1.0-689.0-0.0","0","0","40767","","979","","","68","76","","","2","76","training","adjacent","CB","3","2","R.jpg","M.jpg","0","0","1","",""
"","feedback","","html-keyboard-response","506","586414","0.0-1.0-690.0-0.0","0","0","40767","","null","","","null","76","","","","","","","","","","","","","","","",""
"","ITI","","html-keyboard-response","507","587420","0.0-1.0-693.0","0","0","40767","","null","","","null","76","","","","","","","","","","","","","","","NaN",""
"","S1","","html-keyboard-response","508","587684","0.0-1.0-695.0","0","0","40767","","null","","","null","77","","","","","","","","","","","","","","","",""
"","ISI","","html-keyboard-response","509","588691","0.0-1.0-696.0","0","0","40767","","null","","","null","77","NaN","","","","","","","","","","","","","","",""
"","S2","","html-keyboard-response","510","588945","0.0-1.0-697.0","0","0","40767","","null","","","null","77","","NaN","","","","","","","","","","","","","",""
"","response","","html-keyboard-response","511","589351","0.0-1.0-698.0-0.0","0","0","40767","","403","","","75","77","","","2","77","training","adjacent","AB","1","2","O.jpg","M.jpg","1","1","1","",""
"","feedback","","html-keyboard-response","512","590356","0.0-1.0-699.0-0.0","0","0","40767","","null","","","null","77","","","","","","","","","","","","","","","",""
"","ITI","","html-keyboard-response","513","591364","0.0-1.0-702.0","0","0","40767","","null","","","null","77","","","","","","","","","","","","","","","NaN",""
"","S1","","html-keyboard-response","514","591635","0.0-1.0-704.0","0","0","40767","","null","","","null","78","","","","","","","","","","","","","","","",""
"","ISI","","html-keyboard-response","515","592656","0.0-1.0-705.0","0","0","40767","","null","","","null","78","NaN","","","","","","","","","","","","","","",""
"","S2","","html-keyboard-response","516","592919","0.0-1.0-706.0","0","0","40767","","null","","","null","78","","NaN","","","","","","","","","","","","","",""
"","response","","html-keyboard-response","517","593241","0.0-1.0-707.0-0.0","0","0","40767","","319","","","75","78","","","2","78","training","adjacent","ED","5","4","N.jpg","L.jpg","1","0","0","",""
"","feedback","","html-keyboard-response","518","594265","0.0-1.0-708.0-0.0","0","0","40767","","null","","","null","78","","","","","","","","","","","","","","","",""
"","time_out","","html-keyboard-response","519","596280","0.0-1.0-710.0-0.0","0","0","40767","","null","","","null","78","","","","","","","","","","","","","","","",""
"","ITI","","html-keyboard-response","520","597286","0.0-1.0-711.0","0","0","40767","","null","","","null","78","","","","","","","","","","","","","","","NaN",""
"","S1","","html-keyboard-response","521","597551","0.0-1.0-713.0","0","0","40767","","null","","","null","79","","","","","","","","","","","","","","","",""
"","ISI","","html-keyboard-response","522","598559","0.0-1.0-714.0","0","0","40767","","null","","","null","79","NaN","","","","","","","","","","","","","","",""
"","S2","","html-keyboard-response","523","598812","0.0-1.0-715.0","0","0","40767","","null","","","null","79","","NaN","","","","","","","","","","","","","",""
"","response","","html-keyboard-response","524","599705","0.0-1.0-716.0-0.0","0","0","40767","","890","","","75","79","","","2","79","training","adjacent","DE","4","5","L.jpg","N.jpg","1","1","1","",""
"","feedback","","html-keyboard-response","525","600723","0.0-1.0-717.0-0.0","0","0","40767","","null","","","null","79","","","","","","","","","","","","","","","",""
"","ITI","","html-keyboard-response","526","601730","0.0-1.0-720.0","0","0","40767","","null","","","null","79","","","","","","","","","","","","","","","NaN",""
"","S1","","html-keyboard-response","527","601995","0.0-1.0-722.0","0","0","40767","","null","","","null","80","","","","","","","","","","","","","","","",""
"","ISI","","html-keyboard-response","528","603002","0.0-1.0-723.0","0","0","40767","","null","","","null","80","NaN","","","","","","","","","","","","","","",""
"","S2","","html-keyboard-response","529","603257","0.0-1.0-724.0","0","0","40767","","null","","","null","80","","NaN","","","","","","","","","","","","","",""
"","response","","html-keyboard-response","530","603675","0.0-1.0-725.0-0.0","0","0","40767","","415","","","68","80","","","2","80","training","adjacent","FG","6","7","P.jpg","Q.jpg","0","1","0","",""
"","feedback","","html-keyboard-response","531","604681","0.0-1.0-726.0-0.0","0","0","40767","","null","","","null","80","","","","","","","","","","","","","","","",""
"","time_out","","html-keyboard-response","532","606692","0.0-1.0-728.0-0.0","0","0","40767","","null","","","null","80","","","","","","","","","","","","","","","",""
"","ITI","","html-keyboard-response","533","607697","0.0-1.0-729.0","0","0","40767","","null","","","null","80","","","","","","","","","","","","","","","NaN",""
"","S1","","html-keyboard-response","534","607951","0.0-1.0-731.0","0","0","40767","","null","","","null","81","","","","","","","","","","","","","","","",""
"","ISI","","html-keyboard-response","535","608958","0.0-1.0-732.0","0","0","40767","","null","","","null","81","NaN","","","","","","","","","","","","","","",""
"","S2","","html-keyboard-response","536","609222","0.0-1.0-733.0","0","0","40767","","null","","","null","81","","NaN","","","","","","","","","","","","","",""
"","response","","html-keyboard-response","537","610387","0.0-1.0-734.0-0.0","0","0","40767","","1163","","","68","81","","","2","81","training","adjacent","GF","7","6","Q.jpg","P.jpg","0","0","1","",""
"","feedback","","html-keyboard-response","538","611404","0.0-1.0-735.0-0.0","0","0","40767","","null","","","null","81","","","","","","","","","","","","","","","",""
"","ITI","","html-keyboard-response","539","612411","0.0-1.0-738.0","0","0","40767","","null","","","null","81","","","","","","","","","","","","","","","NaN",""
"","S1","","html-keyboard-response","540","612682","0.0-1.0-740.0","0","0","40767","","null","","","null","82","","","","","","","","","","","","","","","",""
"","ISI","","html-keyboard-response","541","613688","0.0-1.0-741.0","0","0","40767","","null","","","null","82","NaN","","","","","","","","","","","","","","",""
"","S2","","html-keyboard-response","542","613943","0.0-1.0-742.0","0","0","40767","","null","","","null","82","","NaN","","","","","","","","","","","","","",""
"","response","","html-keyboard-response","543","614326","0.0-1.0-743.0-0.0","0","0","40767","","381","","","75","82","","","2","82","training","adjacent","ED","5","4","N.jpg","L.jpg","1","0","0","",""
"","feedback","","html-keyboard-response","544","615333","0.0-1.0-744.0-0.0","0","0","40767","","null","","","null","82","","","","","","","","","","","","","","","",""
"","time_out","","html-keyboard-response","545","617345","0.0-1.0-746.0-0.0","0","0","40767","","null","","","null","82","","","","","","","","","","","","","","","",""
"","ITI","","html-keyboard-response","546","618352","0.0-1.0-747.0","0","0","40767","","null","","","null","82","","","","","","","","","","","","","","","NaN",""
"","S1","","html-keyboard-response","547","618615","0.0-1.0-749.0","0","0","40767","","null","","","null","83","","","","","","","","","","","","","","","",""
"","ISI","","html-keyboard-response","548","619622","0.0-1.0-750.0","0","0","40767","","null","","","null","83","NaN","","","","","","","","","","","","","","",""
"","S2","","html-keyboard-response","549","619876","0.0-1.0-751.0","0","0","40767","","null","","","null","83","","NaN","","","","","","","","","","","","","",""
"","response","","html-keyboard-response","550","620275","0.0-1.0-752.0-0.0","0","0","40767","","396","","","68","83","","","2","83","training","adjacent","EF","5","6","N.jpg","P.jpg","0","1","0","",""
"","feedback","","html-keyboard-response","551","621285","0.0-1.0-753.0-0.0","0","0","40767","","null","","","null","83","","","","","","","","","","","","","","","",""
"","time_out","","html-keyboard-response","552","623299","0.0-1.0-755.0-0.0","0","0","40767","","null","","","null","83","","","","","","","","","","","","","","","",""
"","ITI","","html-keyboard-response","553","624305","0.0-1.0-756.0","0","0","40767","","null","","","null","83","","","","","","","","","","","","","","","NaN",""
"","S1","","html-keyboard-response","554","624575","0.0-1.0-758.0","0","0","40767","","null","","","null","84","","","","","","","","","","","","","","","",""
"","ISI","","html-keyboard-response","555","625582","0.0-1.0-759.0","0","0","40767","","null","","","null","84","NaN","","","","","","","","","","","","","","",""
"","S2","","html-keyboard-response","556","625845","0.0-1.0-760.0","0","0","40767","","null","","","null","84","","NaN","","","","","","","","","","","","","",""
"","response","","html-keyboard-response","557","626295","0.0-1.0-761.0-0.0","0","0","40767","","448","","","75","84","","","2","84","training","adjacent","FG","6","7","P.jpg","Q.jpg","1","1","1","",""
"","feedback","","html-keyboard-response","558","627309","0.0-1.0-762.0-0.0","0","0","40767","","null","","","null","84","","","","","","","","","","","","","","","",""
"","ITI","","html-keyboard-response","559","628314","0.0-1.0-765.0","0","0","40767","","null","","","null","84","","","","","","","","","","","","","","","NaN",""
"","S1","","html-keyboard-response","560","628577","0.0-1.0-767.0","0","0","40767","","null","","","null","85","","","","","","","","","","","","","","","",""
"","ISI","","html-keyboard-response","561","629589","0.0-1.0-768.0","0","0","40767","","null","","","null","85","NaN","","","","","","","","","","","","","","",""
"","S2","","html-keyboard-response","562","629844","0.0-1.0-769.0","0","0","40767","","null","","","null","85","","NaN","","","","","","","","","","","","","",""
"","response","","html-keyboard-response","563","630798","0.0-1.0-770.0-0.0","0","0","40767","","952","","","68","85","","","2","85","training","adjacent","CD","3","4","R.jpg","L.jpg","0","1","0","",""
"","feedback","","html-keyboard-response","564","631815","0.0-1.0-771.0-0.0","0","0","40767","","null","","","null","85","","","","","","","","","","","","","","","",""
"","time_out","","html-keyboard-response","565","633833","0.0-1.0-773.0-0.0","0","0","40767","","null","","","null","85","","","","","","","","","","","","","","","",""
"","ITI","","html-keyboard-response","566","634837","0.0-1.0-774.0","0","0","40767","","null","","","null","85","","","","","","","","","","","","","","","NaN",""
"","S1","","html-keyboard-response","567","635100","0.0-1.0-776.0","0","0","40767","","null","","","null","86","","","","","","","","","","","","","","","",""
"","ISI","","html-keyboard-response","568","636107","0.0-1.0-777.0","0","0","40767","","null","","","null","86","NaN","","","","","","","","","","","","","","",""
"","S2","","html-keyboard-response","569","636377","0.0-1.0-778.0","0","0","40767","","null","","","null","86","","NaN","","","","","","","","","","","","","",""
"","response","","html-keyboard-response","570","637385","0.0-1.0-779.0-0.0","0","0","40767","","1006","","","68","86","","","2","86","training","adjacent","FE","6","5","P.jpg","N.jpg","0","0","1","",""
"","feedback","","html-keyboard-response","571","638390","0.0-1.0-780.0-0.0","0","0","40767","","null","","","null","86","","","","","","","","","","","","","","","",""
"","ITI","","html-keyboard-response","572","639396","0.0-1.0-783.0","0","0","40767","","null","","","null","86","","","","","","","","","","","","","","","NaN",""
"","S1","","html-keyboard-response","573","639668","0.0-1.0-785.0","0","0","40767","","null","","","null","87","","","","","","","","","","","","","","","",""
"","ISI","","html-keyboard-response","574","640676","0.0-1.0-786.0","0","0","40767","","null","","","null","87","NaN","","","","","","","","","","","","","","",""
"","S2","","html-keyboard-response","575","640938","0.0-1.0-787.0","0","0","40767","","null","","","null","87","","NaN","","","","","","","","","","","","","",""
"","response","","html-keyboard-response","576","642046","0.0-1.0-788.0-0.0","0","0","40767","","1106","","","68","87","","","2","87","training","adjacent","BA","2","1","M.jpg","O.jpg","0","0","1","",""
"","feedback","","html-keyboard-response","577","643052","0.0-1.0-789.0-0.0","0","0","40767","","null","","","null","87","","","","","","","","","","","","","","","",""
"","ITI","","html-keyboard-response","578","644059","0.0-1.0-792.0","0","0","40767","","null","","","null","87","","","","","","","","","","","","","","","NaN",""
"","S1","","html-keyboard-response","579","644313","0.0-1.0-794.0","0","0","40767","","null","","","null","88","","","","","","","","","","","","","","","",""
"","ISI","","html-keyboard-response","580","645318","0.0-1.0-795.0","0","0","40767","","null","","","null","88","NaN","","","","","","","","","","","","","","",""
"","S2","","html-keyboard-response","581","645581","0.0-1.0-796.0","0","0","40767","","null","","","null","88","","NaN","","","","","","","","","","","","","",""
"","response","","html-keyboard-response","582","646354","0.0-1.0-797.0-0.0","0","0","40767","","771","","","68","88","","","2","88","training","adjacent","GF","7","6","Q.jpg","P.jpg","0","0","1","",""
