"success","ttype","start_time","trial_type","trial_index","time_elapsed","internal_node_id","warning","missed_checkup","PID","view_history","rt","responses","repeat_instructions","key_press","index","keypress_isi","keypress_S2","block","trial_num","phase","group_type","pair_type","S1_stim","S2_stim","S1_img","S2_img","S1_chosen","S1_higher","accuracy","keypress_iti","total_bonus_tally"
"true","full_screen","d04062023hr2205","fullscreen","0","17229","0.0-0.0","0","0","48275","","","","","","","","","","","","","","","","","","","","","",""
"","instructions","","instructions","1","69736","0.0-1.0-0.0-0.0","0","0","48275","[{""page_index"":0,""viewing_time"":5638},{""page_index"":1,""viewing_time"":28043},{""page_index"":2,""viewing_time"":14031},{""page_index"":3,""viewing_time"":4790}]","52502","","","","","","","","","","","","","","","","","","","",""
"","comprehension_check","","survey-multi-choice","2","94633","0.0-1.0-0.0-1.0","0","0","48275","","24880","{""Q0"":""True"",""Q1"":""K"",""Q2"":""Once the second image appears and while the screen 'MAKE A CHOICE' is shown"",""Q3"":""Green mark"",""Q4"":""either D or K""}","0","","","","","","","","","","","","","","","","","",""
"","start_exp","","html-keyboard-response","3","96755","0.0-1.0-1.0","0","0","48275","","2112","","","32","","","","","","","","","","","","","","","","",""
"","S1","","html-keyboard-response","4","96917","0.0-1.0-2.0","0","0","48275","","null","","","null","0","","","","","","","","","","","","","","","",""
"","ISI","","html-keyboard-response","5","98928","0.0-1.0-3.0","0","0","48275","","null","","","null","0","NaN","","","","","","","","","","","","","","",""
"","S2","","html-keyboard-response","6","99087","0.0-1.0-4.0","0","0","48275","","null","","","null","0","","NaN","","","","","","","","","","","","","",""
"","response","","html-keyboard-response","7","100948","0.0-1.0-5.0-0.0","0","0","48275","","null","","","null","0","","","1","0","training","adjacent","CD","3","4","R.jpg","M.jpg","NaN","1","0","",""
"","too_slow_prompt","","html-keyboard-response","8","101958","0.0-1.0-7.0-0.0","1","0","48275","","null","","","null","","","","","","","","","","","","","","","","",""
"","time_out","","html-keyboard-response","9","103969","0.0-1.0-8.0-0.0","0","0","48275","","null","","","null","0","","","","","","","","","","","","","","","",""
"","ITI","","html-keyboard-response","10","104979","0.0-1.0-9.0","0","0","48275","","null","","","null","0","","","","","","","","","","","","","","","NaN",""
"","S1","","html-keyboard-response","11","105138","0.0-1.0-11.0","0","0","48275","","null","","","null","1","","","","","","","","","","","","","","","",""
"","ISI","","html-keyboard-response","12","107148","0.0-1.0-12.0","0","0","48275","","null","","","null","1","NaN","","","","","","","","","","","","","","",""
"","S2","","html-keyboard-response","13","107308","0.0-1.0-13.0","0","0","48275","","null","","","null","1","","NaN","","","","","","","","","","","","","",""
"","response","","html-keyboard-response","14","107757","0.0-1.0-14.0-0.0","0","0","48275","","444","","","75","1","","","1","1","training","adjacent","CD","3","4","R.jpg","M.jpg","1","1","1","",""
"","feedback","","html-keyboard-response","15","108768","0.0-1.0-15.0-0.0","0","0","48275","","null","","","null","1","","","","","","","","","","","","","","","",""
"","ITI","","html-keyboard-response","16","109778","0.0-1.0-18.0","0","0","48275","","null","","","null","1","","","","","","","","","","","","","","","NaN",""
"","S1","","html-keyboard-response","17","109938","0.0-1.0-20.0","0","0","48275","","null","","","null","2","","","","","","","","","","","","","","","",""
"","ISI","","html-keyboard-response","18","111948","0.0-1.0-21.0","0","0","48275","","null","","","null","2","NaN","","","","","","","","","","","","","","",""
"","S2","","html-keyboard-response","19","112108","0.0-1.0-22.0","0","0","48275","","null","","","null","2","","NaN","","","","","","","","","","","","","",""
"","response","","html-keyboard-response","20","112393","0.0-1.0-23.0-0.0","0","0","48275","","282","","","68","2","","","1","2","training","adjacent","DE","4","5","M.jpg","L.jpg","0","1","0","",""
"","feedback","","html-keyboard-response","21","113398","0.0-1.0-24.0-0.0","0","0","48275","","null","","","null","2","","","","","","","","","","","","","","","",""
"","time_out","","html-keyboard-response","22","115410","0.0-1.0-26.0-0.0","0","0","48275","","null","","","null","2","","","","","","","","","","","","","","","",""
"","ITI","","html-keyboard-response","23","116421","0.0-1.0-27.0","0","0","48275","","null","","","null","2","","","","","","","","","","","","","","","NaN",""
"","S1","","html-keyboard-response","24","116580","0.0-1.0-29.0","0","0","48275","","null","","","null","3","","","","","","","","","","","","","","","",""
"","ISI","","html-keyboard-response","25","118590","0.0-1.0-30.0","0","0","48275","","null","","","null","3","NaN","","","","","","","","","","","","","","",""
"","S2","","html-keyboard-response","26","118751","0.0-1.0-31.0","0","0","48275","","null","","","null","3","","NaN","","","","","","","","","","","","","",""
"","response","","html-keyboard-response","27","119058","0.0-1.0-32.0-0.0","0","0","48275","","304","","","75","3","","","1","3","training","adjacent","FE","6","5","P.jpg","L.jpg","1","0","0","",""
"","feedback","","html-keyboard-response","28","120071","0.0-1.0-33.0-0.0","0","0","48275","","null","","","null","3","","","","","","","","","","","","","","","",""
"","time_out","","html-keyboard-response","29","122081","0.0-1.0-35.0-0.0","0","0","48275","","null","","","null","3","","","","","","","","","","","","","","","",""
"","ITI","","html-keyboard-response","30","123091","0.0-1.0-36.0","0","0","48275","","null","","","null","3","","","","","","","","","","","","","","","NaN",""
"","S1","","html-keyboard-response","31","123251","0.0-1.0-38.0","0","0","48275","","null","","","null","4","","","","","","","","","","","","","","","",""
"","ISI","","html-keyboard-response","32","125261","0.0-1.0-39.0","0","0","48275","","null","","","null","4","NaN","","","","","","","","","","","","","","",""
"","S2","","html-keyboard-response","33","125421","0.0-1.0-40.0","0","0","48275","","null","","","null","4","","NaN","","","","","","","","","","","","","",""
"","response","","html-keyboard-response","34","125812","0.0-1.0-41.0-0.0","0","0","48275","","388","","","75","4","","","1","4","training","adjacent","GF","7","6","Q.jpg","P.jpg","1","0","0","",""
"","feedback","","html-keyboard-response","35","126821","0.0-1.0-42.0-0.0","0","0","48275","","null","","","null","4","","","","","","","","","","","","","","","",""
"","time_out","","html-keyboard-response","36","128831","0.0-1.0-44.0-0.0","0","0","48275","","null","","","null","4","","","","","","","","","","","","","","","",""
"","ITI","","html-keyboard-response","37","129841","0.0-1.0-45.0","0","0","48275","","null","","","null","4","","","","","","","","","","","","","","","NaN",""
"","S1","","html-keyboard-response","38","130001","0.0-1.0-47.0","0","0","48275","","null","","","null","5","","","","","","","","","","","","","","","",""
"","ISI","","html-keyboard-response","39","132011","0.0-1.0-48.0","0","0","48275","","null","","","null","5","NaN","","","","","","","","","","","","","","",""
"","S2","","html-keyboard-response","40","132171","0.0-1.0-49.0","0","0","48275","","null","","","null","5","","NaN","","","","","","","","","","","","","",""
"","response","","html-keyboard-response","41","132584","0.0-1.0-50.0-0.0","0","0","48275","","409","","","75","5","","","1","5","training","adjacent","ED","5","4","L.jpg","M.jpg","1","0","0","",""
"","feedback","","html-keyboard-response","42","133591","0.0-1.0-51.0-0.0","0","0","48275","","null","","","null","5","","","","","","","","","","","","","","","",""
"","time_out","","html-keyboard-response","43","135602","0.0-1.0-53.0-0.0","0","0","48275","","null","","","null","5","","","","","","","","","","","","","","","",""
"","ITI","","html-keyboard-response","44","136612","0.0-1.0-54.0","0","0","48275","","null","","","null","5","","","","","","","","","","","","","","","NaN",""
"","S1","","html-keyboard-response","45","136772","0.0-1.0-56.0","0","0","48275","","null","","","null","6","","","","","","","","","","","","","","","",""
"","ISI","","html-keyboard-response","46","138782","0.0-1.0-57.0","0","0","48275","","null","","","null","6","NaN","","","","","","","","","","","","","","",""
"","S2","","html-keyboard-response","47","138943","0.0-1.0-58.0","0","0","48275","","null","","","null","6","","NaN","","","","","","","","","","","","","",""
"","response","","html-keyboard-response","48","139110","0.0-1.0-59.0-0.0","0","0","48275","","164","","","68","6","","","1","6","training","adjacent","FG","6","7","P.jpg","Q.jpg","0","1","0","",""
"","feedback","","html-keyboard-response","49","140123","0.0-1.0-60.0-0.0","0","0","48275","","null","","","null","6","","","","","","","","","","","","","","","",""
"","time_out","","html-keyboard-response","50","142133","0.0-1.0-62.0-0.0","0","0","48275","","null","","","null","6","","","","","","","","","","","","","","","",""
"","ITI","","html-keyboard-response","51","143142","0.0-1.0-63.0","0","0","48275","","null","","","null","6","","","","","","","","","","","","","","","NaN",""
"","S1","","html-keyboard-response","52","143303","0.0-1.0-65.0","0","0","48275","","null","","","null","7","","","","","","","","","","","","","","","",""
"","ISI","","html-keyboard-response","53","145313","0.0-1.0-66.0","0","0","48275","","351","","","68","7","d","","","","","","","","","","","","","","",""
"","S2","","html-keyboard-response","54","145472","0.0-1.0-67.0","0","0","48275","","null","","","null","7","","NaN","","","","","","","","","","","","","",""
"","response","","html-keyboard-response","55","146015","0.0-1.0-68.0-0.0","0","0","48275","","539","","","68","7","","","1","7","training","adjacent","EF","5","6","L.jpg","P.jpg","0","1","0","",""
"","feedback","","html-keyboard-response","56","147023","0.0-1.0-69.0-0.0","0","0","48275","","null","","","null","7","","","","","","","","","","","","","","","",""
"","time_out","","html-keyboard-response","57","149033","0.0-1.0-71.0-0.0","0","0","48275","","null","","","null","7","","","","","","","","","","","","","","","",""
"","ITI","","html-keyboard-response","58","150044","0.0-1.0-72.0","0","0","48275","","null","","","null","7","","","","","","","","","","","","","","","NaN",""
"","S1","","html-keyboard-response","59","150203","0.0-1.0-74.0","0","0","48275","","null","","","null","8","","","","","","","","","","","","","","","",""
"","ISI","","html-keyboard-response","60","152213","0.0-1.0-75.0","0","0","48275","","null","","","null","8","NaN","","","","","","","","","","","","","","",""
"","S2","","html-keyboard-response","61","152374","0.0-1.0-76.0","0","0","48275","","null","","","null","8","","NaN","","","","","","","","","","","","","",""
"","response","","html-keyboard-response","62","152806","0.0-1.0-77.0-0.0","0","0","48275","","428","","","68","8","","","1","8","training","adjacent","DC","4","3","M.jpg","R.jpg","0","0","1","",""
"","feedback","","html-keyboard-response","63","153813","0.0-1.0-78.0-0.0","0","0","48275","","null","","","null","8","","","","","","","","","","","","","","","",""
"","ITI","","html-keyboard-response","64","154823","0.0-1.0-81.0","0","0","48275","","null","","","null","8","","","","","","","","","","","","","","","NaN",""
"","S1","","html-keyboard-response","65","154983","0.0-1.0-83.0","0","0","48275","","null","","","null","9","","","","","","","","","","","","","","","",""
"","ISI","","html-keyboard-response","66","156994","0.0-1.0-84.0","0","0","48275","","null","","","null","9","NaN","","","","","","","","","","","","","","",""
"","S2","","html-keyboard-response","67","157155","0.0-1.0-85.0","0","0","48275","","null","","","null","9","","NaN","","","","","","","","","","","","","",""
"","response","","html-keyboard-response","68","157724","0.0-1.0-86.0-0.0","0","0","48275","","564","","","68","9","","","1","9","training","adjacent","FE","6","5","P.jpg","L.jpg","0","0","1","",""
"","feedback","","html-keyboard-response","69","158735","0.0-1.0-87.0-0.0","0","0","48275","","null","","","null","9","","","","","","","","","","","","","","","",""
"","ITI","","html-keyboard-response","70","159745","0.0-1.0-90.0","0","0","48275","","null","","","null","9","","","","","","","","","","","","","","","NaN",""
"","S1","","html-keyboard-response","71","159905","0.0-1.0-92.0","0","0","48275","","null","","","null","10","","","","","","","","","","","","","","","",""
"","ISI","","html-keyboard-response","72","161915","0.0-1.0-93.0","0","0","48275","","null","","","null","10","NaN","","","","","","","","","","","","","","",""
"","S2","","html-keyboard-response","73","162075","0.0-1.0-94.0","0","0","48275","","null","","","null","10","","NaN","","","","","","","","","","","","","",""
"","response","","html-keyboard-response","74","162840","0.0-1.0-95.0-0.0","0","0","48275","","761","","","68","10","","","1","10","training","adjacent","ED","5","4","L.jpg","M.jpg","0","0","1","",""
"","feedback","","html-keyboard-response","75","163855","0.0-1.0-96.0-0.0","0","0","48275","","null","","","null","10","","","","","","","","","","","","","","","",""
"","ITI","","html-keyboard-response","76","164865","0.0-1.0-99.0","0","0","48275","","null","","","null","10","","","","","","","","","","","","","","","NaN",""
"","S1","","html-keyboard-response","77","165025","0.0-1.0-101.0","0","0","48275","","null","","","null","11","","","","","","","","","","","","","","","",""
"","ISI","","html-keyboard-response","78","167036","0.0-1.0-102.0","0","0","48275","","null","","","null","11","NaN","","","","","","","","","","","","","","",""
"","S2","","html-keyboard-response","79","167196","0.0-1.0-103.0","0","0","48275","","null","","","null","11","","NaN","","","","","","","","","","","","","",""
"","response","","html-keyboard-response","80","167607","0.0-1.0-104.0-0.0","0","0","48275","","407","","","68","11","","","1","11","training","adjacent","CD","3","4","R.jpg","M.jpg","0","1","0","",""
"","feedback","","html-keyboard-response","81","168616","0.0-1.0-105.0-0.0","0","0","48275","","null","","","null","11","","","","","","","","","","","","","","","",""
"","time_out","","html-keyboard-response","82","170626","0.0-1.0-107.0-0.0","0","0","48275","","null","","","null","11","","","","","","","","","","","","","","","",""
"","ITI","","html-keyboard-response","83","171636","0.0-1.0-108.0","0","0","48275","","null","","","null","11","","","","","","","","","","","","","","","NaN",""
"","S1","","html-keyboard-response","84","171796","0.0-1.0-110.0","0","0","48275","","null","","","null","12","","","","","","","","","","","","","","","",""
"","ISI","","html-keyboard-response","85","173806","0.0-1.0-111.0","0","0","48275","","null","","","null","12","NaN","","","","","","","","","","","","","","",""
"","S2","","html-keyboard-response","86","173966","0.0-1.0-112.0","0","0","48275","","null","","","null","12","","NaN","","","","","","","","","","","","","",""
"","response","","html-keyboard-response","87","174287","0.0-1.0-113.0-0.0","0","0","48275","","319","","","68","12","","","1","12","training","adjacent","FG","6","7","P.jpg","Q.jpg","0","1","0","",""
"","feedback","","html-keyboard-response","88","175297","0.0-1.0-114.0-0.0","0","0","48275","","null","","","null","12","","","","","","","","","","","","","","","",""
"","time_out","","html-keyboard-response","89","177307","0.0-1.0-116.0-0.0","0","0","48275","","null","","","null","12","","","","","","","","","","","","","","","",""
"","ITI","","html-keyboard-response","90","178317","0.0-1.0-117.0","0","0","48275","","null","","","null","12","","","","","","","","","","","","","","","NaN",""
"","S1","","html-keyboard-response","91","178477","0.0-1.0-119.0","0","0","48275","","null","","","null","13","","","","","","","","","","","","","","","",""
"","ISI","","html-keyboard-response","92","180488","0.0-1.0-120.0","0","0","48275","","null","","","null","13","NaN","","","","","","","","","","","","","","",""
"","S2","","html-keyboard-response","93","180647","0.0-1.0-121.0","0","0","48275","","null","","","null","13","","NaN","","","","","","","","","","","","","",""
"","response","","html-keyboard-response","94","180911","0.0-1.0-122.0-0.0","0","0","48275","","261","","","75","13","","","1","13","training","adjacent","AB","1","2","O.jpg","N.jpg","1","1","1","",""
"","feedback","","html-keyboard-response","95","181917","0.0-1.0-123.0-0.0","0","0","48275","","null","","","null","13","","","","","","","","","","","","","","","",""
"","ITI","","html-keyboard-response","96","182928","0.0-1.0-126.0","0","0","48275","","null","","","null","13","","","","","","","","","","","","","","","NaN",""
"","S1","","html-keyboard-response","97","183088","0.0-1.0-128.0","0","0","48275","","null","","","null","14","","","","","","","","","","","","","","","",""
"","ISI","","html-keyboard-response","98","185098","0.0-1.0-129.0","0","0","48275","","null","","","null","14","NaN","","","","","","","","","","","","","","",""
"","S2","","html-keyboard-response","99","185258","0.0-1.0-130.0","0","0","48275","","null","","","null","14","","NaN","","","","","","","","","","","","","",""
"","response","","html-keyboard-response","100","185724","0.0-1.0-131.0-0.0","0","0","48275","","463","","","75","14","","","1","14","training","adjacent","FE","6","5","P.jpg","L.jpg","1","0","0","",""
"","feedback","","html-keyboard-response","101","186738","0.0-1.0-132.0-0.0","0","0","48275","","null","","","null","14","","","","","","","","","","","","","","","",""
"","time_out","","html-keyboard-response","102","188748","0.0-1.0-134.0-0.0","0","0","48275","","null","","","null","14","","","","","","","","","","","","","","","",""
"","ITI","","html-keyboard-response","103","189758","0.0-1.0-135.0","0","0","48275","","null","","","null","14","","","","","","","","","","","","","","","NaN",""
"","S1","","html-keyboard-response","104","189918","0.0-1.0-137.0","0","0","48275","","null","","","null","15","","","","","","","","","","","","","","","",""
"","ISI","","html-keyboard-response","105","191928","0.0-1.0-138.0","0","0","48275","","null","","","null","15","NaN","","","","","","","","","","","","","","",""
"","S2","","html-keyboard-response","106","192088","0.0-1.0-139.0","0","0","48275","","null","","","null","15","","NaN","","","","","","","","","","","","","",""
"","response","","html-keyboard-response","107","192629","0.0-1.0-140.0-0.0","0","0","48275","","538","","","75","15","","","1","15","training","adjacent","DE","4","5","M.jpg","L.jpg","1","1","1","",""
"","feedback","","html-keyboard-response","108","193638","0.0-1.0-141.0-0.0","0","0","48275","","null","","","null","15","","","","","","","","","","","","","","","",""
"","ITI","","html-keyboard-response","109","194648","0.0-1.0-144.0","0","0","48275","","null","","","null","15","","","","","","","","","","","","","","","NaN",""
"","S1","","html-keyboard-response","110","194809","0.0-1.0-146.0","0","0","48275","","null","","","null","16","","","","","","","","","","","","","","","",""
"","ISI","","html-keyboard-response","111","196818","0.0-1.0-147.0","0","0","48275","","null","","","null","16","NaN","","","","","","","","","","","","","","",""
"","S2","","html-keyboard-response","112","196979","0.0-1.0-148.0","0","0","48275","","null","","","null","16","","NaN","","","","","","","","","","","","","",""
"","response","","html-keyboard-response","113","197156","0.0-1.0-149.0-0.0","0","0","48275","","173","","","68","16","","","1","16","training","adjacent","EF","5","6","L.jpg","P.jpg","0","1","0","",""
"","feedback","","html-keyboard-response","114","198169","0.0-1.0-150.0-0.0","0","0","48275","","null","","","null","16","","","","","","","","","","","","","","","",""
"","time_out","","html-keyboard-response","115","200178","0.0-1.0-152.0-0.0","0","0","48275","","null","","","null","16","","","","","","","","","","","","","","","",""
"","ITI","","html-keyboard-response","116","201189","0.0-1.0-153.0","0","0","48275","","null","","","null","16","","","","","","","","","","","","","","","NaN",""
"","S1","","html-keyboard-response","117","201348","0.0-1.0-155.0","0","0","48275","","null","","","null","17","","","","","","","","","","","","","","","",""
"","ISI","","html-keyboard-response","118","203360","0.0-1.0-156.0","0","0","48275","","381","","","75","17","k","","","","","","","","","","","","","","",""
"","S2","","html-keyboard-response","119","203519","0.0-1.0-157.0","0","0","48275","","null","","","null","17","","NaN","","","","","","","","","","","","","",""
"","response","","html-keyboard-response","120","203691","0.0-1.0-158.0-0.0","0","0","48275","","168","","","75","17","","","1","17","training","adjacent","AB","1","2","O.jpg","N.jpg","1","1","1","",""
"","feedback","","html-keyboard-response","121","204700","0.0-1.0-159.0-0.0","0","0","48275","","null","","","null","17","","","","","","","","","","","","","","","",""
"","ITI","","html-keyboard-response","122","205711","0.0-1.0-162.0","0","0","48275","","null","","","null","17","","","","","","","","","","","","","","","NaN",""
"","S1","","html-keyboard-response","123","205869","0.0-1.0-164.0","0","0","48275","","null","","","null","18","","","","","","","","","","","","","","","",""
"","ISI","","html-keyboard-response","124","207880","0.0-1.0-165.0","0","0","48275","","null","","","null","18","NaN","","","","","","","","","","","","","","",""
"","S2","","html-keyboard-response","125","208039","0.0-1.0-166.0","0","0","48275","","null","","","null","18","","NaN","","","","","","","","","","","","","",""
"","response","","html-keyboard-response","126","208244","0.0-1.0-167.0-0.0","0","0","48275","","200","","","68","18","","","1","18","training","adjacent","ED","5","4","L.jpg","M.jpg","0","0","1","",""
"","feedback","","html-keyboard-response","127","209250","0.0-1.0-168.0-0.0","0","0","48275","","null","","","null","18","","","","","","","","","","","","","","","",""
"","ITI","","html-keyboard-response","128","210259","0.0-1.0-171.0","0","0","48275","","null","","","null","18","","","","","","","","","","","","","","","NaN",""
"","S1","","html-keyboard-response","129","210419","0.0-1.0-173.0","0","0","48275","","null","","","null","19","","","","","","","","","","","","","","","",""
"","ISI","","html-keyboard-response","130","212430","0.0-1.0-174.0","0","0","48275","","null","","","null","19","NaN","","","","","","","","","","","","","","",""
"","S2","","html-keyboard-response","131","212590","0.0-1.0-175.0","0","0","48275","","null","","","null","19","","NaN","","","","","","","","","","","","","",""
"","response","","html-keyboard-response","132","212771","0.0-1.0-176.0-0.0","0","0","48275","","177","","","75","19","","","1","19","training","adjacent","FG","6","7","P.jpg","Q.jpg","1","1","1","",""
"","feedback","","html-keyboard-response","133","213780","0.0-1.0-177.0-0.0","0","0","48275","","null","","","null","19","","","","","","","","","","","","","","","",""
"","ITI","","html-keyboard-response","134","214790","0.0-1.0-180.0","0","0","48275","","null","","","null","19","","","","","","","","","","","","","","","NaN",""
"","S1","","html-keyboard-response","135","214950","0.0-1.0-182.0","0","0","48275","","null","","","null","20","","","","","","","","","","","","","","","",""
"","ISI","","html-keyboard-response","136","216960","0.0-1.0-183.0","0","0","48275","","null","","","null","20","NaN","","","","","","","","","","","","","","",""
"","S2","","html-keyboard-response","137","217120","0.0-1.0-184.0","0","0","48275","","null","","","null","20","","NaN","","","","","","","","","","","","","",""
"","response","","html-keyboard-response","138","217324","0.0-1.0-185.0-0.0","0","0","48275","","199","","","68","20","","","1","20","training","adjacent","DC","4","3","M.jpg","R.jpg","0","0","1","",""
"","feedback","","html-keyboard-response","139","218331","0.0-1.0-186.0-0.0","0","0","48275","","null","","","null","20","","","","","","","","","","","","","","","",""
"","ITI","","html-keyboard-response","140","219341","0.0-1.0-189.0","0","0","48275","","null","","","null","20","","","","","","","","","","","","","","","NaN",""
"","S1","","html-keyboard-response","141","219501","0.0-1.0-191.0","0","0","48275","","null","","","null","21","","","","","","","","","","","","","","","",""
"","ISI","","html-keyboard-response","142","221512","0.0-1.0-192.0","0","0","48275","","null","","","null","21","NaN","","","","","","","","","","","","","","",""
"","S2","","html-keyboard-response","143","221671","0.0-1.0-193.0","0","0","48275","","null","","","null","21","","NaN","","","","","","","","","","","","","",""
"","response","","html-keyboard-response","144","221849","0.0-1.0-194.0-0.0","0","0","48275","","174","","","75","21","","","1","21","training","adjacent","GF","7","6","Q.jpg","P.jpg","1","0","0","",""
"","feedback","","html-keyboard-response","145","222862","0.0-1.0-195.0-0.0","0","0","48275","","null","","","null","21","","","","","","","","","","","","","","","",""
"","time_out","","html-keyboard-response","146","224870","0.0-1.0-197.0-0.0","0","0","48275","","null","","","null","21","","","","","","","","","","","","","","","",""
"","ITI","","html-keyboard-response","147","225881","0.0-1.0-198.0","0","0","48275","","null","","","null","21","","","","","","","","","","","","","","","NaN",""
"","S1","","html-keyboard-response","148","226041","0.0-1.0-200.0","0","0","48275","","null","","","null","22","","","","","","","","","","","","","","","",""
"","ISI","","html-keyboard-response","149","228052","0.0-1.0-201.0","0","0","48275","","null","","","null","22","NaN","","","","","","","","","","","","","","",""
"","S2","","html-keyboard-response","150","228212","0.0-1.0-202.0","0","0","48275","","null","","","null","22","","NaN","","","","","","","","","","","","","",""
"","response","","html-keyboard-response","151","228431","0.0-1.0-203.0-0.0","0","0","48275","","215","","","68","22","","","1","22","training","adjacent","BA","2","1","N.jpg","O.jpg","0","0","1","",""
"","feedback","","html-keyboard-response","152","229442","0.0-1.0-204.0-0.0","0","0","48275","","null","","","null","22","","","","","","","","","","","","","","","",""
"","ITI","","html-keyboard-response","153","230452","0.0-1.0-207.0","0","0","48275","","null","","","null","22","","","","","","","","","","","","","","","NaN",""
"","S1","","html-keyboard-response","154","230612","0.0-1.0-209.0","0","0","48275","","null","","","null","23","","","","","","","","","","","","","","","",""
"","ISI","","html-keyboard-response","155","232622","0.0-1.0-210.0","0","0","48275","","null","","","null","23","NaN","","","","","","","","","","","","","","",""
"","S2","","html-keyboard-response","156","232781","0.0-1.0-211.0","0","0","48275","","null","","","null","23","","NaN","","","","","","","","","","","","","",""
"","response","","html-keyboard-response","157","233228","0.0-1.0-212.0-0.0","0","0","48275","","443","","","75","23","","","1","23","training","adjacent","FE","6","5","P.jpg","L.jpg","1","0","0","",""
"","feedback","","html-keyboard-response","158","234242","0.0-1.0-213.0-0.0","0","0","48275","","null","","","null","23","","","","","","","","","","","","","","","",""
"","time_out","","html-keyboard-response","159","236253","0.0-1.0-215.0-0.0","0","0","48275","","null","","","null","23","","","","","","","","","","","","","","","",""
"","ITI","","html-keyboard-response","160","237263","0.0-1.0-216.0","0","0","48275","","null","","","null","23","","","","","","","","","","","","","","","NaN",""
"","S1","","html-keyboard-response","161","237423","0.0-1.0-218.0","0","0","48275","","null","","","null","24","","","","","","","","","","","","","","","",""
"","ISI","","html-keyboard-response","162","239433","0.0-1.0-219.0","0","0","48275","","null","","","null","24","NaN","","","","","","","","","","","","","","",""
"","S2","","html-keyboard-response","163","239593","0.0-1.0-220.0","0","0","48275","","null","","","null","24","","NaN","","","","","","","","","","","","","",""
"","response","","html-keyboard-response","164","239801","0.0-1.0-221.0-0.0","0","0","48275","","204","","","68","24","","","1","24","training","adjacent","BC","2","3","N.jpg","R.jpg","0","1","0","",""
"","feedback","","html-keyboard-response","165","240812","0.0-1.0-222.0-0.0","0","0","48275","","null","","","null","24","","","","","","","","","","","","","","","",""
"","time_out","","html-keyboard-response","166","242823","0.0-1.0-224.0-0.0","0","0","48275","","null","","","null","24","","","","","","","","","","","","","","","",""
"","ITI","","html-keyboard-response","167","243833","0.0-1.0-225.0","0","0","48275","","null","","","null","24","","","","","","","","","","","","","","","NaN",""
"","S1","","html-keyboard-response","168","243993","0.0-1.0-227.0","0","0","48275","","null","","","null","25","","","","","","","","","","","","","","","",""
"","ISI","","html-keyboard-response","169","246004","0.0-1.0-228.0","0","0","48275","","null","","","null","25","NaN","","","","","","","","","","","","","","",""
"","S2","","html-keyboard-response","170","246163","0.0-1.0-229.0","0","0","48275","","null","","","null","25","","NaN","","","","","","","","","","","","","",""
"","response","","html-keyboard-response","171","246622","0.0-1.0-230.0-0.0","0","0","48275","","455","","","75","25","","","1","25","training","adjacent","CB","3","2","R.jpg","N.jpg","1","0","0","",""
"","feedback","","html-keyboard-response","172","247633","0.0-1.0-231.0-0.0","0","0","48275","","null","","","null","25","","","","","","","","","","","","","","","",""
"","time_out","","html-keyboard-response","173","249643","0.0-1.0-233.0-0.0","0","0","48275","","null","","","null","25","","","","","","","","","","","","","","","",""
"","ITI","","html-keyboard-response","174","250654","0.0-1.0-234.0","0","0","48275","","null","","","null","25","","","","","","","","","","","","","","","NaN",""
"","S1","","html-keyboard-response","175","250813","0.0-1.0-236.0","0","0","48275","","null","","","null","26","","","","","","","","","","","","","","","",""
"","ISI","","html-keyboard-response","176","252823","0.0-1.0-237.0","0","0","48275","","null","","","null","26","NaN","","","","","","","","","","","","","","",""
"","S2","","html-keyboard-response","177","252983","0.0-1.0-238.0","0","0","48275","","null","","","null","26","","NaN","","","","","","","","","","","","","",""
"","response","","html-keyboard-response","178","253254","0.0-1.0-239.0-0.0","0","0","48275","","266","","","75","26","","","1","26","training","adjacent","DE","4","5","M.jpg","L.jpg","1","1","1","",""
"","feedback","","html-keyboard-response","179","254264","0.0-1.0-240.0-0.0","0","0","48275","","null","","","null","26","","","","","","","","","","","","","","","",""
"","ITI","","html-keyboard-response","180","255274","0.0-1.0-243.0","0","0","48275","","null","","","null","26","","","","","","","","","","","","","","","NaN",""
"","S1","","html-keyboard-response","181","255435","0.0-1.0-245.0","0","0","48275","","null","","","null","27","","","","","","","","","","","","","","","",""
"","ISI","","html-keyboard-response","182","257444","0.0-1.0-246.0","0","0","48275","","null","","","null","27","NaN","","","","","","","","","","","","","","",""
"","S2","","html-keyboard-response","183","257605","0.0-1.0-247.0","0","0","48275","","null","","","null","27","","NaN","","","","","","","","","","","","","",""
"","response","","html-keyboard-response","184","258211","0.0-1.0-248.0-0.0","0","0","48275","","602","","","68","27","","","1","27","training","adjacent","CD","3","4","R.jpg","M.jpg","0","1","0","",""
"","feedback","","html-keyboard-response","185","259224","0.0-1.0-249.0-0.0","0","0","48275","","null","","","null","27","","","","","","","","","","","","","","","",""
"","time_out","","html-keyboard-response","186","261235","0.0-1.0-251.0-0.0","0","0","48275","","null","","","null","27","","","","","","","","","","","","","","","",""
"","ITI","","html-keyboard-response","187","262245","0.0-1.0-252.0","0","0","48275","","null","","","null","27","","","","","","","","","","","","","","","NaN",""
"","S1","","html-keyboard-response","188","262406","0.0-1.0-254.0","0","0","48275","","null","","","null","28","","","","","","","","","","","","","","","",""
"","ISI","","html-keyboard-response","189","264415","0.0-1.0-255.0","0","0","48275","","null","","","null","28","NaN","","","","","","","","","","","","","","",""
"","S2","","html-keyboard-response","190","264577","0.0-1.0-256.0","0","0","48275","","null","","","null","28","","NaN","","","","","","","","","","","","","",""
"","response","","html-keyboard-response","191","265305","0.0-1.0-257.0-0.0","0","0","48275","","724","","","75","28","","","1","28","training","adjacent","FG","6","7","P.jpg","Q.jpg","1","1","1","",""
"","feedback","","html-keyboard-response","192","266315","0.0-1.0-258.0-0.0","0","0","48275","","null","","","null","28","","","","","","","","","","","","","","","",""
"","ITI","","html-keyboard-response","193","267326","0.0-1.0-261.0","0","0","48275","","null","","","null","28","","","","","","","","","","","","","","","NaN",""
"","S1","","html-keyboard-response","194","267486","0.0-1.0-263.0","0","0","48275","","null","","","null","29","","","","","","","","","","","","","","","",""
"","ISI","","html-keyboard-response","195","269497","0.0-1.0-264.0","0","0","48275","","null","","","null","29","NaN","","","","","","","","","","","","","","",""
"","S2","","html-keyboard-response","196","269655","0.0-1.0-265.0","0","0","48275","","null","","","null","29","","NaN","","","","","","","","","","","","","",""
"","response","","html-keyboard-response","197","269830","0.0-1.0-266.0-0.0","0","0","48275","","170","","","75","29","","","1","29","training","adjacent","CB","3","2","R.jpg","N.jpg","1","0","0","",""
"","feedback","","html-keyboard-response","198","270836","0.0-1.0-267.0-0.0","0","0","48275","","null","","","null","29","","","","","","","","","","","","","","","",""
"","time_out","","html-keyboard-response","199","272846","0.0-1.0-269.0-0.0","0","0","48275","","null","","","null","29","","","","","","","","","","","","","","","",""
"","ITI","","html-keyboard-response","200","273856","0.0-1.0-270.0","0","0","48275","","null","","","null","29","","","","","","","","","","","","","","","NaN",""
"","S1","","html-keyboard-response","201","274017","0.0-1.0-272.0","0","0","48275","","null","","","null","30","","","","","","","","","","","","","","","",""
"","ISI","","html-keyboard-response","202","276027","0.0-1.0-273.0","0","0","48275","","null","","","null","30","NaN","","","","","","","","","","","","","","",""
"","S2","","html-keyboard-response","203","276187","0.0-1.0-274.0","0","0","48275","","null","","","null","30","","NaN","","","","","","","","","","","","","",""
"","response","","html-keyboard-response","204","276403","0.0-1.0-275.0-0.0","0","0","48275","","212","","","75","30","","","1","30","training","adjacent","BA","2","1","N.jpg","O.jpg","1","0","0","",""
"","feedback","","html-keyboard-response","205","277417","0.0-1.0-276.0-0.0","0","0","48275","","null","","","null","30","","","","","","","","","","","","","","","",""
"","time_out","","html-keyboard-response","206","279426","0.0-1.0-278.0-0.0","0","0","48275","","null","","","null","30","","","","","","","","","","","","","","","",""
"","ITI","","html-keyboard-response","207","280437","0.0-1.0-279.0","0","0","48275","","null","","","null","30","","","","","","","","","","","","","","","NaN",""
"","S1","","html-keyboard-response","208","280596","0.0-1.0-281.0","0","0","48275","","null","","","null","31","","","","","","","","","","","","","","","",""
"","ISI","","html-keyboard-response","209","282606","0.0-1.0-282.0","0","0","48275","","null","","","null","31","NaN","","","","","","","","","","","","","","",""
"","S2","","html-keyboard-response","210","282767","0.0-1.0-283.0","0","0","48275","","null","","","null","31","","NaN","","","","","","","","","","","","","",""
"","response","","html-keyboard-response","211","282980","0.0-1.0-284.0-0.0","0","0","48275","","209","","","68","31","","","1","31","training","adjacent","BC","2","3","N.jpg","R.jpg","0","1","0","",""
"","feedback","","html-keyboard-response","212","283987","0.0-1.0-285.0-0.0","0","0","48275","","null","","","null","31","","","","","","","","","","","","","","","",""
"","time_out","","html-keyboard-response","213","285997","0.0-1.0-287.0-0.0","0","0","48275","","null","","","null","31","","","","","","","","","","","","","","","",""
"","ITI","","html-keyboard-response","214","287008","0.0-1.0-288.0","0","0","48275","","null","","","null","31","","","","","","","","","","","","","","","NaN",""
"","S1","","html-keyboard-response","215","287168","0.0-1.0-290.0","0","0","48275","","null","","","null","32","","","","","","","","","","","","","","","",""
"","ISI","","html-keyboard-response","216","289177","0.0-1.0-291.0","0","0","48275","","null","","","null","32","NaN","","","","","","","","","","","","","","",""
"","S2","","html-keyboard-response","217","289337","0.0-1.0-292.0","0","0","48275","","null","","","null","32","","NaN","","","","","","","","","","","","","",""
"","response","","html-keyboard-response","218","289535","0.0-1.0-293.0-0.0","0","0","48275","","193","","","75","32","","","1","32","training","adjacent","GF","7","6","Q.jpg","P.jpg","1","0","0","",""
"","feedback","","html-keyboard-response","219","290547","0.0-1.0-294.0-0.0","0","0","48275","","null","","","null","32","","","","","","","","","","","","","","","",""
"","time_out","","html-keyboard-response","220","292557","0.0-1.0-296.0-0.0","0","0","48275","","null","","","null","32","","","","","","","","","","","","","","","",""
"","ITI","","html-keyboard-response","221","293567","0.0-1.0-297.0","0","0","48275","","null","","","null","32","","","","","","","","","","","","","","","NaN",""
"","S1","","html-keyboard-response","222","293727","0.0-1.0-299.0","0","0","48275","","null","","","null","33","","","","","","","","","","","","","","","",""
"","ISI","","html-keyboard-response","223","295738","0.0-1.0-300.0","0","0","48275","","null","","","null","33","NaN","","","","","","","","","","","","","","",""
"","S2","","html-keyboard-response","224","295899","0.0-1.0-301.0","0","0","48275","","null","","","null","33","","NaN","","","","","","","","","","","","","",""
"","response","","html-keyboard-response","225","296511","0.0-1.0-302.0-0.0","0","0","48275","","608","","","75","33","","","1","33","training","adjacent","EF","5","6","L.jpg","P.jpg","1","1","1","",""
"","feedback","","html-keyboard-response","226","297520","0.0-1.0-303.0-0.0","0","0","48275","","null","","","null","33","","","","","","","","","","","","","","","",""
"","ITI","","html-keyboard-response","227","298529","0.0-1.0-306.0","0","0","48275","","null","","","null","33","","","","","","","","","","","","","","","NaN",""
"","S1","","html-keyboard-response","228","298688","0.0-1.0-308.0","0","0","48275","","null","","","null","34","","","","","","","","","","","","","","","",""
"","ISI","","html-keyboard-response","229","300698","0.0-1.0-309.0","0","0","48275","","null","","","null","34","NaN","","","","","","","","","","","","","","",""
"","S2","","html-keyboard-response","230","300858","0.0-1.0-310.0","0","0","48275","","null","","","null","34","","NaN","","","","","","","","","","","","","",""
"","response","","html-keyboard-response","231","301138","0.0-1.0-311.0-0.0","0","0","48275","","276","","","75","34","","","1","34","training","adjacent","DC","4","3","M.jpg","R.jpg","1","0","0","",""
"","feedback","","html-keyboard-response","232","302148","0.0-1.0-312.0-0.0","0","0","48275","","null","","","null","34","","","","","","","","","","","","","","","",""
"","time_out","","html-keyboard-response","233","304160","0.0-1.0-314.0-0.0","0","0","48275","","null","","","null","34","","","","","","","","","","","","","","","",""
"","ITI","","html-keyboard-response","234","305170","0.0-1.0-315.0","0","0","48275","","null","","","null","34","","","","","","","","","","","","","","","NaN",""
"","S1","","html-keyboard-response","235","305330","0.0-1.0-317.0","0","0","48275","","null","","","null","35","","","","","","","","","","","","","","","",""
"","ISI","","html-keyboard-response","236","307340","0.0-1.0-318.0","0","0","48275","","null","","","null","35","NaN","","","","","","","","","","","","","","",""
"","S2","","html-keyboard-response","237","307499","0.0-1.0-319.0","0","0","48275","","null","","","null","35","","NaN","","","","","","","","","","","","","",""
"","response","","html-keyboard-response","238","307709","0.0-1.0-320.0-0.0","0","0","48275","","206","","","75","35","","","1","35","training","adjacent","DC","4","3","M.jpg","R.jpg","1","0","0","",""
"","feedback","","html-keyboard-response","239","308720","0.0-1.0-321.0-0.0","0","0","48275","","null","","","null","35","","","","","","","","","","","","","","","",""
"","time_out","","html-keyboard-response","240","310730","0.0-1.0-323.0-0.0","0","0","48275","","null","","","null","35","","","","","","","","","","","","","","","",""
"","ITI","","html-keyboard-response","241","311739","0.0-1.0-324.0","0","0","48275","","null","","","null","35","","","","","","","","","","","","","","","NaN",""
"","S1","","html-keyboard-response","242","311900","0.0-1.0-326.0","0","0","48275","","null","","","null","36","","","","","","","","","","","","","","","",""
"","ISI","","html-keyboard-response","243","313911","0.0-1.0-327.0","0","0","48275","","null","","","null","36","NaN","","","","","","","","","","","","","","",""
"","S2","","html-keyboard-response","244","314071","0.0-1.0-328.0","0","0","48275","","null","","","null","36","","NaN","","","","","","","","","","","","","",""
"","response","","html-keyboard-response","245","314216","0.0-1.0-329.0-0.0","0","0","48275","","141","","","68","36","","","1","36","training","adjacent","DE","4","5","M.jpg","L.jpg","0","1","0","",""
"","feedback","","html-keyboard-response","246","315231","0.0-1.0-330.0-0.0","0","0","48275","","null","","","null","36","","","","","","","","","","","","","","","",""
"","time_out","","html-keyboard-response","247","317241","0.0-1.0-332.0-0.0","0","0","48275","","null","","","null","36","","","","","","","","","","","","","","","",""
"","ITI","","html-keyboard-response","248","318251","0.0-1.0-333.0","0","0","48275","","null","","","null","36","","","","","","","","","","","","","","","NaN",""
"","S1","","html-keyboard-response","249","318411","0.0-1.0-335.0","0","0","48275","","null","","","null","37","","","","","","","","","","","","","","","",""
"","ISI","","html-keyboard-response","250","320420","0.0-1.0-336.0","0","0","48275","","null","","","null","37","NaN","","","","","","","","","","","","","","",""
"","S2","","html-keyboard-response","251","320580","0.0-1.0-337.0","0","0","48275","","null","","","null","37","","NaN","","","","","","","","","","","","","",""
"","response","","html-keyboard-response","252","320756","0.0-1.0-338.0-0.0","0","0","48275","","170","","","75","37","","","1","37","training","adjacent","BA","2","1","N.jpg","O.jpg","1","0","0","",""
"","feedback","","html-keyboard-response","253","321770","0.0-1.0-339.0-0.0","0","0","48275","","null","","","null","37","","","","","","","","","","","","","","","",""
"","time_out","","html-keyboard-response","254","323782","0.0-1.0-341.0-0.0","0","0","48275","","null","","","null","37","","","","","","","","","","","","","","","",""
"","ITI","","html-keyboard-response","255","324794","0.0-1.0-342.0","0","0","48275","","null","","","null","37","","","","","","","","","","","","","","","NaN",""
"","S1","","html-keyboard-response","256","324951","0.0-1.0-344.0","0","0","48275","","null","","","null","38","","","","","","","","","","","","","","","",""
"","ISI","","html-keyboard-response","257","326961","0.0-1.0-345.0","0","0","48275","","null","","","null","38","NaN","","","","","","","","","","","","","","",""
"","S2","","html-keyboard-response","258","327121","0.0-1.0-346.0","0","0","48275","","null","","","null","38","","NaN","","","","","","","","","","","","","",""
"","response","","html-keyboard-response","259","327274","0.0-1.0-347.0-0.0","0","0","48275","","149","","","68","38","","","1","38","training","adjacent","BC","2","3","N.jpg","R.jpg","0","1","0","",""
"","feedback","","html-keyboard-response","260","328281","0.0-1.0-348.0-0.0","0","0","48275","","null","","","null","38","","","","","","","","","","","","","","","",""
"","time_out","","html-keyboard-response","261","330293","0.0-1.0-350.0-0.0","0","0","48275","","null","","","null","38","","","","","","","","","","","","","","","",""
"","ITI","","html-keyboard-response","262","331302","0.0-1.0-351.0","0","0","48275","","null","","","null","38","","","","","","","","","","","","","","","NaN",""
"","S1","","html-keyboard-response","263","331462","0.0-1.0-353.0","0","0","48275","","null","","","null","39","","","","","","","","","","","","","","","",""
"","ISI","","html-keyboard-response","264","333473","0.0-1.0-354.0","0","0","48275","","null","","","null","39","NaN","","","","","","","","","","","","","","",""
"","S2","","html-keyboard-response","265","333632","0.0-1.0-355.0","0","0","48275","","null","","","null","39","","NaN","","","","","","","","","","","","","",""
"","response","","html-keyboard-response","266","333827","0.0-1.0-356.0-0.0","0","0","48275","","190","","","68","39","","","1","39","training","adjacent","AB","1","2","O.jpg","N.jpg","0","1","0","",""
"","feedback","","html-keyboard-response","267","334832","0.0-1.0-357.0-0.0","0","0","48275","","null","","","null","39","","","","","","","","","","","","","","","",""
"","time_out","","html-keyboard-response","268","336842","0.0-1.0-359.0-0.0","0","0","48275","","null","","","null","39","","","","","","","","","","","","","","","",""
"","ITI","","html-keyboard-response","269","337852","0.0-1.0-360.0","0","0","48275","","null","","","null","39","","","","","","","","","","","","","","","NaN",""
"","S1","","html-keyboard-response","270","338013","0.0-1.0-362.0","0","0","48275","","null","","","null","40","","","","","","","","","","","","","","","",""
"","ISI","","html-keyboard-response","271","340025","0.0-1.0-363.0","0","0","48275","","null","","","null","40","NaN","","","","","","","","","","","","","","",""
"","S2","","html-keyboard-response","272","340183","0.0-1.0-364.0","0","0","48275","","null","","","null","40","","NaN","","","","","","","","","","","","","",""
"","response","","html-keyboard-response","273","340451","0.0-1.0-365.0-0.0","0","0","48275","","264","","","75","40","","","1","40","training","adjacent","CB","3","2","R.jpg","N.jpg","1","0","0","",""
"","feedback","","html-keyboard-response","274","341463","0.0-1.0-366.0-0.0","0","0","48275","","null","","","null","40","","","","","","","","","","","","","","","",""
"","time_out","","html-keyboard-response","275","343473","0.0-1.0-368.0-0.0","0","0","48275","","null","","","null","40","","","","","","","","","","","","","","","",""
"","ITI","","html-keyboard-response","276","344483","0.0-1.0-369.0","0","0","48275","","null","","","null","40","","","","","","","","","","","","","","","NaN",""
"","S1","","html-keyboard-response","277","344643","0.0-1.0-371.0","0","0","48275","","null","","","null","41","","","","","","","","","","","","","","","",""
"","ISI","","html-keyboard-response","278","346653","0.0-1.0-372.0","0","0","48275","","null","","","null","41","NaN","","","","","","","","","","","","","","",""
"","S2","","html-keyboard-response","279","346813","0.0-1.0-373.0","0","0","48275","","null","","","null","41","","NaN","","","","","","","","","","","","","",""
"","response","","html-keyboard-response","280","346983","0.0-1.0-374.0-0.0","0","0","48275","","166","","","75","41","","","1","41","training","adjacent","BC","2","3","N.jpg","R.jpg","1","1","1","",""
"","feedback","","html-keyboard-response","281","347995","0.0-1.0-375.0-0.0","0","0","48275","","null","","","null","41","","","","","","","","","","","","","","","",""
"","ITI","","html-keyboard-response","282","349004","0.0-1.0-378.0","0","0","48275","","null","","","null","41","","","","","","","","","","","","","","","NaN",""
"","S1","","html-keyboard-response","283","349164","0.0-1.0-380.0","0","0","48275","","null","","","null","42","","","","","","","","","","","","","","","",""
"","ISI","","html-keyboard-response","284","351175","0.0-1.0-381.0","0","0","48275","","null","","","null","42","NaN","","","","","","","","","","","","","","",""
"","S2","","html-keyboard-response","285","351334","0.0-1.0-382.0","0","0","48275","","null","","","null","42","","NaN","","","","","","","","","","","","","",""
"","response","","html-keyboard-response","286","351886","0.0-1.0-383.0-0.0","0","0","48275","","546","","","75","42","","","1","42","training","adjacent","BA","2","1","N.jpg","O.jpg","1","0","0","",""
"","feedback","","html-keyboard-response","287","352894","0.0-1.0-384.0-0.0","0","0","48275","","null","","","null","42","","","","","","","","","","","","","","","",""
"","time_out","","html-keyboard-response","288","354907","0.0-1.0-386.0-0.0","0","0","48275","","null","","","null","42","","","","","","","","","","","","","","","",""
"","ITI","","html-keyboard-response","289","355916","0.0-1.0-387.0","0","0","48275","","null","","","null","42","","","","","","","","","","","","","","","NaN",""
"","S1","","html-keyboard-response","290","356076","0.0-1.0-389.0","0","0","48275","","null","","","null","43","","","","","","","","","","","","","","","",""
"","ISI","","html-keyboard-response","291","358086","0.0-1.0-390.0","0","0","48275","","null","","","null","43","NaN","","","","","","","","","","","","","","",""
"","S2","","html-keyboard-response","292","358246","0.0-1.0-391.0","0","0","48275","","null","","","null","43","","NaN","","","","","","","","","","","","","",""
"","response","","html-keyboard-response","293","358460","0.0-1.0-392.0-0.0","0","0","48275","","210","","","75","43","","","1","43","training","adjacent","AB","1","2","O.jpg","N.jpg","1","1","1","",""
"","feedback","","html-keyboard-response","294","359466","0.0-1.0-393.0-0.0","0","0","48275","","null","","","null","43","","","","","","","","","","","","","","","",""
"","ITI","","html-keyboard-response","295","360476","0.0-1.0-396.0","0","0","48275","","null","","","null","43","","","","","","","","","","","","","","","NaN",""
"","S1","","html-keyboard-response","296","360636","0.0-1.0-398.0","0","0","48275","","null","","","null","44","","","","","","","","","","","","","","","",""
"","ISI","","html-keyboard-response","297","362646","0.0-1.0-399.0","0","0","48275","","null","","","null","44","NaN","","","","","","","","","","","","","","",""
"","S2","","html-keyboard-response","298","362806","0.0-1.0-400.0","0","0","48275","","null","","","null","44","","NaN","","","","","","","","","","","","","",""
"","response","","html-keyboard-response","299","363357","0.0-1.0-401.0-0.0","0","0","48275","","546","","","75","44","","","1","44","training","adjacent","EF","5","6","L.jpg","P.jpg","1","1","1","",""
"","feedback","","html-keyboard-response","300","364367","0.0-1.0-402.0-0.0","0","0","48275","","null","","","null","44","","","","","","","","","","","","","","","",""
"","ITI","","html-keyboard-response","301","365377","0.0-1.0-405.0","0","0","48275","","null","","","null","44","","","","","","","","","","","","","","","NaN",""
"","S1","","html-keyboard-response","302","365537","0.0-1.0-407.0","0","0","48275","","null","","","null","45","","","","","","","","","","","","","","","",""
"","ISI","","html-keyboard-response","303","367546","0.0-1.0-408.0","0","0","48275","","null","","","null","45","NaN","","","","","","","","","","","","","","",""
"","S2","","html-keyboard-response","304","367707","0.0-1.0-409.0","0","0","48275","","null","","","null","45","","NaN","","","","","","","","","","","","","",""
"","response","","html-keyboard-response","305","368266","0.0-1.0-410.0-0.0","0","0","48275","","554","","","75","45","","","1","45","training","adjacent","GF","7","6","Q.jpg","P.jpg","1","0","0","",""
"","feedback","","html-keyboard-response","306","369277","0.0-1.0-411.0-0.0","0","0","48275","","null","","","null","45","","","","","","","","","","","","","","","",""
"","time_out","","html-keyboard-response","307","371288","0.0-1.0-413.0-0.0","0","0","48275","","null","","","null","45","","","","","","","","","","","","","","","",""
"","ITI","","html-keyboard-response","308","372298","0.0-1.0-414.0","0","0","48275","","null","","","null","45","","","","","","","","","","","","","","","NaN",""
"","S1","","html-keyboard-response","309","372457","0.0-1.0-416.0","0","0","48275","","null","","","null","46","","","","","","","","","","","","","","","",""
"","ISI","","html-keyboard-response","310","374467","0.0-1.0-417.0","0","0","48275","","null","","","null","46","NaN","","","","","","","","","","","","","","",""
"","S2","","html-keyboard-response","311","374628","0.0-1.0-418.0","0","0","48275","","null","","","null","46","","NaN","","","","","","","","","","","","","",""
"","response","","html-keyboard-response","312","374799","0.0-1.0-419.0-0.0","0","0","48275","","167","","","68","46","","","1","46","training","adjacent","CB","3","2","R.jpg","N.jpg","0","0","1","",""
"","feedback","","html-keyboard-response","313","375807","0.0-1.0-420.0-0.0","0","0","48275","","null","","","null","46","","","","","","","","","","","","","","","",""
"","ITI","","html-keyboard-response","314","376818","0.0-1.0-423.0","0","0","48275","","null","","","null","46","","","","","","","","","","","","","","","NaN",""
"","S1","","html-keyboard-response","315","376977","0.0-1.0-425.0","0","0","48275","","null","","","null","47","","","","","","","","","","","","","","","",""
"","ISI","","html-keyboard-response","316","378987","0.0-1.0-426.0","0","0","48275","","null","","","null","47","NaN","","","","","","","","","","","","","","",""
"","S2","","html-keyboard-response","317","379148","0.0-1.0-427.0","0","0","48275","","null","","","null","47","","NaN","","","","","","","","","","","","","",""
"","response","","html-keyboard-response","318","379302","0.0-1.0-428.0-0.0","0","0","48275","","151","","","75","47","","","1","47","training","adjacent","ED","5","4","L.jpg","M.jpg","1","0","0","",""
"","feedback","","html-keyboard-response","319","380308","0.0-1.0-429.0-0.0","0","0","48275","","null","","","null","47","","","","","","","","","","","","","","","",""
"","time_out","","html-keyboard-response","320","382318","0.0-1.0-431.0-0.0","0","0","48275","","null","","","null","47","","","","","","","","","","","","","","","",""
"","ITI","","html-keyboard-response","321","383329","0.0-1.0-432.0","0","0","48275","","null","","","null","47","","","","","","","","","","","","","","","NaN",""
"","block_over","","html-keyboard-response","322","388624","0.0-1.0-433.0-0.0","0","0","48275","","5288","","","32","47","","","","","","","","","","","","","","","",""
"","S1","","html-keyboard-response","323","388789","0.0-1.0-434.0","0","0","48275","","null","","","null","48","","","","","","","","","","","","","","","",""
"","ISI","","html-keyboard-response","324","390799","0.0-1.0-435.0","0","0","48275","","null","","","null","48","NaN","","","","","","","","","","","","","","",""
"","S2","","html-keyboard-response","325","390960","0.0-1.0-436.0","0","0","48275","","null","","","null","48","","NaN","","","","","","","","","","","","","",""
"","response","","html-keyboard-response","326","392279","0.0-1.0-437.0-0.0","0","0","48275","","1315","","","75","48","","","2","48","training","adjacent","DE","4","5","M.jpg","L.jpg","1","1","1","",""
"","feedback","","html-keyboard-response","327","393290","0.0-1.0-438.0-0.0","0","0","48275","","null","","","null","48","","","","","","","","","","","","","","","",""
"","ITI","","html-keyboard-response","328","394299","0.0-1.0-441.0","0","0","48275","","null","","","null","48","","","","","","","","","","","","","","","NaN",""
"","S1","","html-keyboard-response","329","394460","0.0-1.0-443.0","0","0","48275","","null","","","null","49","","","","","","","","","","","","","","","",""
"","ISI","","html-keyboard-response","330","396470","0.0-1.0-444.0","0","0","48275","","null","","","null","49","NaN","","","","","","","","","","","","","","",""
"","S2","","html-keyboard-response","331","396629","0.0-1.0-445.0","0","0","48275","","null","","","null","49","","NaN","","","","","","","","","","","","","",""
"","response","","html-keyboard-response","332","396907","0.0-1.0-446.0-0.0","0","0","48275","","273","","","75","49","","","2","49","training","adjacent","GF","7","6","Q.jpg","P.jpg","1","0","0","",""
"","feedback","","html-keyboard-response","333","397920","0.0-1.0-447.0-0.0","0","0","48275","","null","","","null","49","","","","","","","","","","","","","","","",""
"","time_out","","html-keyboard-response","334","399931","0.0-1.0-449.0-0.0","0","0","48275","","null","","","null","49","","","","","","","","","","","","","","","",""
"","ITI","","html-keyboard-response","335","400940","0.0-1.0-450.0","0","0","48275","","null","","","null","49","","","","","","","","","","","","","","","NaN",""
"","S1","","html-keyboard-response","336","401099","0.0-1.0-452.0","0","0","48275","","null","","","null","50","","","","","","","","","","","","","","","",""
"","ISI","","html-keyboard-response","337","403110","0.0-1.0-453.0","0","0","48275","","null","","","null","50","NaN","","","","","","","","","","","","","","",""
"","S2","","html-keyboard-response","338","403270","0.0-1.0-454.0","0","0","48275","","null","","","null","50","","NaN","","","","","","","","","","","","","",""
"","response","","html-keyboard-response","339","403440","0.0-1.0-455.0-0.0","0","0","48275","","164","","","68","50","","","2","50","training","adjacent","EF","5","6","L.jpg","P.jpg","0","1","0","",""
"","feedback","","html-keyboard-response","340","404450","0.0-1.0-456.0-0.0","0","0","48275","","null","","","null","50","","","","","","","","","","","","","","","",""
"","time_out","","html-keyboard-response","341","406461","0.0-1.0-458.0-0.0","0","0","48275","","null","","","null","50","","","","","","","","","","","","","","","",""
"","ITI","","html-keyboard-response","342","407471","0.0-1.0-459.0","0","0","48275","","null","","","null","50","","","","","","","","","","","","","","","NaN",""
"","S1","","html-keyboard-response","343","407631","0.0-1.0-461.0","0","0","48275","","null","","","null","51","","","","","","","","","","","","","","","",""
"","ISI","","html-keyboard-response","344","409641","0.0-1.0-462.0","0","0","48275","","null","","","null","51","NaN","","","","","","","","","","","","","","",""
"","S2","","html-keyboard-response","345","409801","0.0-1.0-463.0","0","0","48275","","null","","","null","51","","NaN","","","","","","","","","","","","","",""
"","response","","html-keyboard-response","346","409999","0.0-1.0-464.0-0.0","0","0","48275","","194","","","75","51","","","2","51","training","adjacent","FG","6","7","P.jpg","Q.jpg","1","1","1","",""
"","feedback","","html-keyboard-response","347","411011","0.0-1.0-465.0-0.0","0","0","48275","","null","","","null","51","","","","","","","","","","","","","","","",""
"","ITI","","html-keyboard-response","348","412021","0.0-1.0-468.0","0","0","48275","","null","","","null","51","","","","","","","","","","","","","","","NaN",""
"","S1","","html-keyboard-response","349","412180","0.0-1.0-470.0","0","0","48275","","null","","","null","52","","","","","","","","","","","","","","","",""
"","ISI","","html-keyboard-response","350","414192","0.0-1.0-471.0","0","0","48275","","null","","","null","52","NaN","","","","","","","","","","","","","","",""
"","S2","","html-keyboard-response","351","414352","0.0-1.0-472.0","0","0","48275","","null","","","null","52","","NaN","","","","","","","","","","","","","",""
"","response","","html-keyboard-response","352","414616","0.0-1.0-473.0-0.0","0","0","48275","","260","","","75","52","","","2","52","training","adjacent","DE","4","5","M.jpg","L.jpg","1","1","1","",""
"","feedback","","html-keyboard-response","353","415624","0.0-1.0-474.0-0.0","0","0","48275","","null","","","null","52","","","","","","","","","","","","","","","",""
"","ITI","","html-keyboard-response","354","416633","0.0-1.0-477.0","0","0","48275","","null","","","null","52","","","","","","","","","","","","","","","NaN",""
"","S1","","html-keyboard-response","355","416793","0.0-1.0-479.0","0","0","48275","","null","","","null","53","","","","","","","","","","","","","","","",""
"","ISI","","html-keyboard-response","356","418804","0.0-1.0-480.0","0","0","48275","","null","","","null","53","NaN","","","","","","","","","","","","","","",""
"","S2","","html-keyboard-response","357","418963","0.0-1.0-481.0","0","0","48275","","null","","","null","53","","NaN","","","","","","","","","","","","","",""
"","response","","html-keyboard-response","358","419131","0.0-1.0-482.0-0.0","0","0","48275","","164","","","75","53","","","2","53","training","adjacent","EF","5","6","L.jpg","P.jpg","1","1","1","",""
"","feedback","","html-keyboard-response","359","420143","0.0-1.0-483.0-0.0","0","0","48275","","null","","","null","53","","","","","","","","","","","","","","","",""
"","ITI","","html-keyboard-response","360","421153","0.0-1.0-486.0","0","0","48275","","null","","","null","53","","","","","","","","","","","","","","","NaN",""
"","S1","","html-keyboard-response","361","421313","0.0-1.0-488.0","0","0","48275","","null","","","null","54","","","","","","","","","","","","","","","",""
"","ISI","","html-keyboard-response","362","423324","0.0-1.0-489.0","0","0","48275","","null","","","null","54","NaN","","","","","","","","","","","","","","",""
"","S2","","html-keyboard-response","363","423484","0.0-1.0-490.0","0","0","48275","","null","","","null","54","","NaN","","","","","","","","","","","","","",""
"","response","","html-keyboard-response","364","423794","0.0-1.0-491.0-0.0","0","0","48275","","306","","","75","54","","","2","54","training","adjacent","CB","3","2","R.jpg","N.jpg","1","0","0","",""
"","feedback","","html-keyboard-response","365","424804","0.0-1.0-492.0-0.0","0","0","48275","","null","","","null","54","","","","","","","","","","","","","","","",""
"","time_out","","html-keyboard-response","366","426814","0.0-1.0-494.0-0.0","0","0","48275","","null","","","null","54","","","","","","","","","","","","","","","",""
"","ITI","","html-keyboard-response","367","427824","0.0-1.0-495.0","0","0","48275","","null","","","null","54","","","","","","","","","","","","","","","NaN",""
"","S1","","html-keyboard-response","368","427984","0.0-1.0-497.0","0","0","48275","","null","","","null","55","","","","","","","","","","","","","","","",""
"","ISI","","html-keyboard-response","369","429994","0.0-1.0-498.0","0","0","48275","","null","","","null","55","NaN","","","","","","","","","","","","","","",""
"","S2","","html-keyboard-response","370","430155","0.0-1.0-499.0","0","0","48275","","null","","","null","55","","NaN","","","","","","","","","","","","","",""
"","response","","html-keyboard-response","371","430311","0.0-1.0-500.0-0.0","0","0","48275","","152","","","68","55","","","2","55","training","adjacent","GF","7","6","Q.jpg","P.jpg","0","0","1","",""
"","feedback","","html-keyboard-response","372","431325","0.0-1.0-501.0-0.0","0","0","48275","","null","","","null","55","","","","","","","","","","","","","","","",""
"","ITI","","html-keyboard-response","373","432335","0.0-1.0-504.0","0","0","48275","","null","","","null","55","","","","","","","","","","","","","","","NaN",""
"","S1","","html-keyboard-response","374","432494","0.0-1.0-506.0","0","0","48275","","null","","","null","56","","","","","","","","","","","","","","","",""
"","ISI","","html-keyboard-response","375","434505","0.0-1.0-507.0","0","0","48275","","null","","","null","56","NaN","","","","","","","","","","","","","","",""
"","S2","","html-keyboard-response","376","434665","0.0-1.0-508.0","0","0","48275","","null","","","null","56","","NaN","","","","","","","","","","","","","",""
"","response","","html-keyboard-response","377","435046","0.0-1.0-509.0-0.0","0","0","48275","","377","","","75","56","","","2","56","training","adjacent","BC","2","3","N.jpg","R.jpg","1","1","1","",""
"","feedback","","html-keyboard-response","378","436055","0.0-1.0-510.0-0.0","0","0","48275","","null","","","null","56","","","","","","","","","","","","","","","",""
"","ITI","","html-keyboard-response","379","437065","0.0-1.0-513.0","0","0","48275","","null","","","null","56","","","","","","","","","","","","","","","NaN",""
"","S1","","html-keyboard-response","380","437225","0.0-1.0-515.0","0","0","48275","","null","","","null","57","","","","","","","","","","","","","","","",""
"","ISI","","html-keyboard-response","381","439235","0.0-1.0-516.0","0","0","48275","","null","","","null","57","NaN","","","","","","","","","","","","","","",""
"","S2","","html-keyboard-response","382","439396","0.0-1.0-517.0","0","0","48275","","null","","","null","57","","NaN","","","","","","","","","","","","","",""
"","response","","html-keyboard-response","383","439573","0.0-1.0-518.0-0.0","0","0","48275","","173","","","75","57","","","2","57","training","adjacent","DE","4","5","M.jpg","L.jpg","1","1","1","",""
"","feedback","","html-keyboard-response","384","440586","0.0-1.0-519.0-0.0","0","0","48275","","null","","","null","57","","","","","","","","","","","","","","","",""
"","ITI","","html-keyboard-response","385","441595","0.0-1.0-522.0","0","0","48275","","null","","","null","57","","","","","","","","","","","","","","","NaN",""
"","S1","","html-keyboard-response","386","441756","0.0-1.0-524.0","0","0","48275","","null","","","null","58","","","","","","","","","","","","","","","",""
"","ISI","","html-keyboard-response","387","443765","0.0-1.0-525.0","0","0","48275","","null","","","null","58","NaN","","","","","","","","","","","","","","",""
"","S2","","html-keyboard-response","388","443925","0.0-1.0-526.0","0","0","48275","","null","","","null","58","","NaN","","","","","","","","","","","","","",""
"","response","","html-keyboard-response","389","444087","0.0-1.0-527.0-0.0","0","0","48275","","157","","","68","58","","","2","58","training","adjacent","FG","6","7","P.jpg","Q.jpg","0","1","0","",""
"","feedback","","html-keyboard-response","390","445095","0.0-1.0-528.0-0.0","0","0","48275","","null","","","null","58","","","","","","","","","","","","","","","",""
"","time_out","","html-keyboard-response","391","447106","0.0-1.0-530.0-0.0","0","0","48275","","null","","","null","58","","","","","","","","","","","","","","","",""
"","ITI","","html-keyboard-response","392","448117","0.0-1.0-531.0","0","0","48275","","null","","","null","58","","","","","","","","","","","","","","","NaN",""
"","S1","","html-keyboard-response","393","448277","0.0-1.0-533.0","0","0","48275","","null","","","null","59","","","","","","","","","","","","","","","",""
"","ISI","","html-keyboard-response","394","450289","0.0-1.0-534.0","0","0","48275","","null","","","null","59","NaN","","","","","","","","","","","","","","",""
"","S2","","html-keyboard-response","395","450447","0.0-1.0-535.0","0","0","48275","","null","","","null","59","","NaN","","","","","","","","","","","","","",""
"","response","","html-keyboard-response","396","450673","0.0-1.0-536.0-0.0","0","0","48275","","222","","","75","59","","","2","59","training","adjacent","FG","6","7","P.jpg","Q.jpg","1","1","1","",""
"","feedback","","html-keyboard-response","397","451687","0.0-1.0-537.0-0.0","0","0","48275","","null","","","null","59","","","","","","","","","","","","","","","",""
"","ITI","","html-keyboard-response","398","452697","0.0-1.0-540.0","0","0","48275","","null","","","null","59","","","","","","","","","","","","","","","NaN",""
"","S1","","html-keyboard-response","399","452858","0.0-1.0-542.0","0","0","48275","","null","","","null","60","","","","","","","","","","","","","","","",""
"","ISI","","html-keyboard-response","400","454869","0.0-1.0-543.0","0","0","48275","","null","","","null","60","NaN","","","","","","","","","","","","","","",""
"","S2","","html-keyboard-response","401","455029","0.0-1.0-544.0","0","0","48275","","null","","","null","60","","NaN","","","","","","","","","","","","","",""
"","response","","html-keyboard-response","402","455373","0.0-1.0-545.0-0.0","0","0","48275","","341","","","75","60","","","2","60","training","adjacent","GF","7","6","Q.jpg","P.jpg","1","0","0","",""
"","feedback","","html-keyboard-response","403","456377","0.0-1.0-546.0-0.0","0","0","48275","","null","","","null","60","","","","","","","","","","","","","","","",""
"","time_out","","html-keyboard-response","404","458391","0.0-1.0-548.0-0.0","0","0","48275","","null","","","null","60","","","","","","","","","","","","","","","",""
"","ITI","","html-keyboard-response","405","459398","0.0-1.0-549.0","0","0","48275","","null","","","null","60","","","","","","","","","","","","","","","NaN",""
"","S1","","html-keyboard-response","406","459562","0.0-1.0-551.0","0","0","48275","","null","","","null","61","","","","","","","","","","","","","","","",""
"","ISI","","html-keyboard-response","407","461571","0.0-1.0-552.0","0","0","48275","","null","","","null","61","NaN","","","","","","","","","","","","","","",""
"","S2","","html-keyboard-response","408","461734","0.0-1.0-553.0","0","0","48275","","null","","","null","61","","NaN","","","","","","","","","","","","","",""
"","response","","html-keyboard-response","409","462271","0.0-1.0-554.0-0.0","0","0","48275","","533","","","68","61","","","2","61","training","adjacent","CD","3","4","R.jpg","M.jpg","0","1","0","",""
"","feedback","","html-keyboard-response","410","463281","0.0-1.0-555.0-0.0","0","0","48275","","null","","","null","61","","","","","","","","","","","","","","","",""
"","time_out","","html-keyboard-response","411","465291","0.0-1.0-557.0-0.0","0","0","48275","","null","","","null","61","","","","","","","","","","","","","","","",""
"","ITI","","html-keyboard-response","412","466300","0.0-1.0-558.0","0","0","48275","","null","","","null","61","","","","","","","","","","","","","","","NaN",""
"","S1","","html-keyboard-response","413","466461","0.0-1.0-560.0","0","0","48275","","null","","","null","62","","","","","","","","","","","","","","","",""
"","ISI","","html-keyboard-response","414","468470","0.0-1.0-561.0","0","0","48275","","null","","","null","62","NaN","","","","","","","","","","","","","","",""
"","S2","","html-keyboard-response","415","468630","0.0-1.0-562.0","0","0","48275","","null","","","null","62","","NaN","","","","","","","","","","","","","",""
"","response","","html-keyboard-response","416","469016","0.0-1.0-563.0-0.0","0","0","48275","","382","","","75","62","","","2","62","training","adjacent","CD","3","4","R.jpg","M.jpg","1","1","1","",""
"","feedback","","html-keyboard-response","417","470030","0.0-1.0-564.0-0.0","0","0","48275","","null","","","null","62","","","","","","","","","","","","","","","",""
"","ITI","","html-keyboard-response","418","471042","0.0-1.0-567.0","0","0","48275","","null","","","null","62","","","","","","","","","","","","","","","NaN",""
"","S1","","html-keyboard-response","419","471201","0.0-1.0-569.0","0","0","48275","","null","","","null","63","","","","","","","","","","","","","","","",""
"","ISI","","html-keyboard-response","420","473210","0.0-1.0-570.0","0","0","48275","","null","","","null","63","NaN","","","","","","","","","","","","","","",""
"","S2","","html-keyboard-response","421","473372","0.0-1.0-571.0","0","0","48275","","null","","","null","63","","NaN","","","","","","","","","","","","","",""
"","response","","html-keyboard-response","422","473564","0.0-1.0-572.0-0.0","0","0","48275","","188","","","75","63","","","2","63","training","adjacent","ED","5","4","L.jpg","M.jpg","1","0","0","",""
"","feedback","","html-keyboard-response","423","474572","0.0-1.0-573.0-0.0","0","0","48275","","null","","","null","63","","","","","","","","","","","","","","","",""
"","time_out","","html-keyboard-response","424","476582","0.0-1.0-575.0-0.0","0","0","48275","","null","","","null","63","","","","","","","","","","","","","","","",""
"","ITI","","html-keyboard-response","425","477592","0.0-1.0-576.0","0","0","48275","","null","","","null","63","","","","","","","","","","","","","","","NaN",""
"","S1","","html-keyboard-response","426","477752","0.0-1.0-578.0","0","0","48275","","null","","","null","64","","","","","","","","","","","","","","","",""
"","ISI","","html-keyboard-response","427","479762","0.0-1.0-579.0","0","0","48275","","null","","","null","64","NaN","","","","","","","","","","","","","","",""
"","S2","","html-keyboard-response","428","479922","0.0-1.0-580.0","0","0","48275","","null","","","null","64","","NaN","","","","","","","","","","","","","",""
"","response","","html-keyboard-response","429","480104","0.0-1.0-581.0-0.0","0","0","48275","","176","","","68","64","","","2","64","training","adjacent","CB","3","2","R.jpg","N.jpg","0","0","1","",""
"","feedback","","html-keyboard-response","430","481112","0.0-1.0-582.0-0.0","0","0","48275","","null","","","null","64","","","","","","","","","","","","","","","",""
"","ITI","","html-keyboard-response","431","482123","0.0-1.0-585.0","0","0","48275","","null","","","null","64","","","","","","","","","","","","","","","NaN",""
"","S1","","html-keyboard-response","432","482284","0.0-1.0-587.0","0","0","48275","","null","","","null","65","","","","","","","","","","","","","","","",""
"","ISI","","html-keyboard-response","433","484293","0.0-1.0-588.0","0","0","48275","","null","","","null","65","NaN","","","","","","","","","","","","","","",""
"","S2","","html-keyboard-response","434","484453","0.0-1.0-589.0","0","0","48275","","null","","","null","65","","NaN","","","","","","","","","","","","","",""
"","response","","html-keyboard-response","435","484777","0.0-1.0-590.0-0.0","0","0","48275","","320","","","75","65","","","2","65","training","adjacent","DC","4","3","M.jpg","R.jpg","1","0","0","",""
"","feedback","","html-keyboard-response","436","485783","0.0-1.0-591.0-0.0","0","0","48275","","null","","","null","65","","","","","","","","","","","","","","","",""
"","time_out","","html-keyboard-response","437","487793","0.0-1.0-593.0-0.0","0","0","48275","","null","","","null","65","","","","","","","","","","","","","","","",""
"","ITI","","html-keyboard-response","438","488803","0.0-1.0-594.0","0","0","48275","","null","","","null","65","","","","","","","","","","","","","","","NaN",""
"","S1","","html-keyboard-response","439","488963","0.0-1.0-596.0","0","0","48275","","null","","","null","66","","","","","","","","","","","","","","","",""
"","ISI","","html-keyboard-response","440","490973","0.0-1.0-597.0","0","0","48275","","null","","","null","66","NaN","","","","","","","","","","","","","","",""
"","S2","","html-keyboard-response","441","491133","0.0-1.0-598.0","0","0","48275","","null","","","null","66","","NaN","","","","","","","","","","","","","",""
"","response","","html-keyboard-response","442","491287","0.0-1.0-599.0-0.0","0","0","48275","","149","","","68","66","","","2","66","training","adjacent","BA","2","1","N.jpg","O.jpg","0","0","1","",""
"","feedback","","html-keyboard-response","443","492294","0.0-1.0-600.0-0.0","0","0","48275","","null","","","null","66","","","","","","","","","","","","","","","",""
"","ITI","","html-keyboard-response","444","493304","0.0-1.0-603.0","0","0","48275","","null","","","null","66","","","","","","","","","","","","","","","NaN",""
"","S1","","html-keyboard-response","445","493463","0.0-1.0-605.0","0","0","48275","","null","","","null","67","","","","","","","","","","","","","","","",""
"","ISI","","html-keyboard-response","446","495474","0.0-1.0-606.0","0","0","48275","","null","","","null","67","NaN","","","","","","","","","","","","","","",""
"","S2","","html-keyboard-response","447","495633","0.0-1.0-607.0","0","0","48275","","null","","","null","67","","NaN","","","","","","","","","","","","","",""
"","response","","html-keyboard-response","448","495821","0.0-1.0-608.0-0.0","0","0","48275","","183","","","75","67","","","2","67","training","adjacent","CD","3","4","R.jpg","M.jpg","1","1","1","",""
"","feedback","","html-keyboard-response","449","496833","0.0-1.0-609.0-0.0","0","0","48275","","null","","","null","67","","","","","","","","","","","","","","","",""
"","ITI","","html-keyboard-response","450","497844","0.0-1.0-612.0","0","0","48275","","null","","","null","67","","","","","","","","","","","","","","","NaN",""
"","S1","","html-keyboard-response","451","498003","0.0-1.0-614.0","0","0","48275","","null","","","null","68","","","","","","","","","","","","","","","",""
"","ISI","","html-keyboard-response","452","500013","0.0-1.0-615.0","0","0","48275","","null","","","null","68","NaN","","","","","","","","","","","","","","",""
"","S2","","html-keyboard-response","453","500174","0.0-1.0-616.0","0","0","48275","","null","","","null","68","","NaN","","","","","","","","","","","","","",""
"","response","","html-keyboard-response","454","500493","0.0-1.0-617.0-0.0","0","0","48275","","314","","","75","68","","","2","68","training","adjacent","ED","5","4","L.jpg","M.jpg","1","0","0","",""
"","feedback","","html-keyboard-response","455","501504","0.0-1.0-618.0-0.0","0","0","48275","","null","","","null","68","","","","","","","","","","","","","","","",""
"","time_out","","html-keyboard-response","456","503515","0.0-1.0-620.0-0.0","0","0","48275","","null","","","null","68","","","","","","","","","","","","","","","",""
"","ITI","","html-keyboard-response","457","504525","0.0-1.0-621.0","0","0","48275","","null","","","null","68","","","","","","","","","","","","","","","NaN",""
"","S1","","html-keyboard-response","458","504685","0.0-1.0-623.0","0","0","48275","","null","","","null","69","","","","","","","","","","","","","","","",""
"","ISI","","html-keyboard-response","459","506694","0.0-1.0-624.0","0","0","48275","","null","","","null","69","NaN","","","","","","","","","","","","","","",""
"","S2","","html-keyboard-response","460","506854","0.0-1.0-625.0","0","0","48275","","null","","","null","69","","NaN","","","","","","","","","","","","","",""
"","response","","html-keyboard-response","461","507134","0.0-1.0-626.0-0.0","0","0","48275","","276","","","75","69","","","2","69","training","adjacent","FE","6","5","P.jpg","L.jpg","1","0","0","",""
"","feedback","","html-keyboard-response","462","508144","0.0-1.0-627.0-0.0","0","0","48275","","null","","","null","69","","","","","","","","","","","","","","","",""
"","time_out","","html-keyboard-response","463","510154","0.0-1.0-629.0-0.0","0","0","48275","","null","","","null","69","","","","","","","","","","","","","","","",""
"","ITI","","html-keyboard-response","464","511165","0.0-1.0-630.0","0","0","48275","","null","","","null","69","","","","","","","","","","","","","","","NaN",""
"","S1","","html-keyboard-response","465","511325","0.0-1.0-632.0","0","0","48275","","null","","","null","70","","","","","","","","","","","","","","","",""
"","ISI","","html-keyboard-response","466","513335","0.0-1.0-633.0","0","0","48275","","null","","","null","70","NaN","","","","","","","","","","","","","","",""
"","S2","","html-keyboard-response","467","513495","0.0-1.0-634.0","0","0","48275","","null","","","null","70","","NaN","","","","","","","","","","","","","",""
"","response","","html-keyboard-response","468","513666","0.0-1.0-635.0-0.0","0","0","48275","","167","","","68","70","","","2","70","training","adjacent","DC","4","3","M.jpg","R.jpg","0","0","1","",""
"","feedback","","html-keyboard-response","469","514676","0.0-1.0-636.0-0.0","0","0","48275","","null","","","null","70","","","","","","","","","","","","","","","",""
"","ITI","","html-keyboard-response","470","515685","0.0-1.0-639.0","0","0","48275","","null","","","null","70","","","","","","","","","","","","","","","NaN",""
"","S1","","html-keyboard-response","471","515845","0.0-1.0-641.0","0","0","48275","","null","","","null","71","","","","","","","","","","","","","","","",""
"","ISI","","html-keyboard-response","472","517857","0.0-1.0-642.0","0","0","48275","","null","","","null","71","NaN","","","","","","","","","","","","","","",""
"","S2","","html-keyboard-response","473","518016","0.0-1.0-643.0","0","0","48275","","null","","","null","71","","NaN","","","","","","","","","","","","","",""
"","response","","html-keyboard-response","474","518410","0.0-1.0-644.0-0.0","0","0","48275","","389","","","75","71","","","2","71","training","adjacent","GF","7","6","Q.jpg","P.jpg","1","0","0","",""
"","feedback","","html-keyboard-response","475","519416","0.0-1.0-645.0-0.0","0","0","48275","","null","","","null","71","","","","","","","","","","","","","","","",""
"","time_out","","html-keyboard-response","476","521426","0.0-1.0-647.0-0.0","0","0","48275","","null","","","null","71","","","","","","","","","","","","","","","",""
"","ITI","","html-keyboard-response","477","522436","0.0-1.0-648.0","0","0","48275","","null","","","null","71","","","","","","","","","","","","","","","NaN",""
"","S1","","html-keyboard-response","478","522596","0.0-1.0-650.0","0","0","48275","","null","","","null","72","","","","","","","","","","","","","","","",""
"","ISI","","html-keyboard-response","479","524606","0.0-1.0-651.0","0","0","48275","","null","","","null","72","NaN","","","","","","","","","","","","","","",""
"","S2","","html-keyboard-response","480","524767","0.0-1.0-652.0","0","0","48275","","null","","","null","72","","NaN","","","","","","","","","","","","","",""
"","response","","html-keyboard-response","481","524959","0.0-1.0-653.0-0.0","0","0","48275","","189","","","68","72","","","2","72","training","adjacent","BC","2","3","N.jpg","R.jpg","0","1","0","",""
"","feedback","","html-keyboard-response","482","525966","0.0-1.0-654.0-0.0","0","0","48275","","null","","","null","72","","","","","","","","","","","","","","","",""
"","time_out","","html-keyboard-response","483","527977","0.0-1.0-656.0-0.0","0","0","48275","","null","","","null","72","","","","","","","","","","","","","","","",""
"","ITI","","html-keyboard-response","484","528987","0.0-1.0-657.0","0","0","48275","","null","","","null","72","","","","","","","","","","","","","","","NaN",""
"","S1","","html-keyboard-response","485","529147","0.0-1.0-659.0","0","0","48275","","null","","","null","73","","","","","","","","","","","","","","","",""
"","ISI","","html-keyboard-response","486","531156","0.0-1.0-660.0","0","0","48275","","null","","","null","73","NaN","","","","","","","","","","","","","","",""
"","S2","","html-keyboard-response","487","531317","0.0-1.0-661.0","0","0","48275","","null","","","null","73","","NaN","","","","","","","","","","","","","",""
"","response","","html-keyboard-response","488","531471","0.0-1.0-662.0-0.0","0","0","48275","","149","","","75","73","","","2","73","training","adjacent","AB","1","2","O.jpg","N.jpg","1","1","1","",""
"","feedback","","html-keyboard-response","489","532476","0.0-1.0-663.0-0.0","0","0","48275","","null","","","null","73","","","","","","","","","","","","","","","",""
"","ITI","","html-keyboard-response","490","533486","0.0-1.0-666.0","0","0","48275","","null","","","null","73","","","","","","","","","","","","","","","NaN",""
"","S1","","html-keyboard-response","491","533647","0.0-1.0-668.0","0","0","48275","","null","","","null","74","","","","","","","","","","","","","","","",""
"","ISI","","html-keyboard-response","492","535657","0.0-1.0-669.0","0","0","48275","","null","","","null","74","NaN","","","","","","","","","","","","","","",""
"","S2","","html-keyboard-response","493","535818","0.0-1.0-670.0","0","0","48275","","null","","","null","74","","NaN","","","","","","","","","","","","","",""
"","response","","html-keyboard-response","494","536254","0.0-1.0-671.0-0.0","0","0","48275","","431","","","75","74","","","2","74","training","adjacent","CB","3","2","R.jpg","N.jpg","1","0","0","",""
"","feedback","","html-keyboard-response","495","537269","0.0-1.0-672.0-0.0","0","0","48275","","null","","","null","74","","","","","","","","","","","","","","","",""
"","time_out","","html-keyboard-response","496","539278","0.0-1.0-674.0-0.0","0","0","48275","","null","","","null","74","","","","","","","","","","","","","","","",""
"","ITI","","html-keyboard-response","497","540288","0.0-1.0-675.0","0","0","48275","","null","","","null","74","","","","","","","","","","","","","","","NaN",""
"","S1","","html-keyboard-response","498","540450","0.0-1.0-677.0","0","0","48275","","null","","","null","75","","","","","","","","","","","","","","","",""
"","ISI","","html-keyboard-response","499","542458","0.0-1.0-678.0","0","0","48275","","null","","","null","75","NaN","","","","","","","","","","","","","","",""
"","S2","","html-keyboard-response","500","542619","0.0-1.0-679.0","0","0","48275","","null","","","null","75","","NaN","","","","","","","","","","","","","",""
"","response","","html-keyboard-response","501","542951","0.0-1.0-680.0-0.0","0","0","48275","","328","","","75","75","","","2","75","training","adjacent","FE","6","5","P.jpg","L.jpg","1","0","0","",""
"","feedback","","html-keyboard-response","502","543959","0.0-1.0-681.0-0.0","0","0","48275","","null","","","null","75","","","","","","","","","","","","","","","",""
"","time_out","","html-keyboard-response","503","545969","0.0-1.0-683.0-0.0","0","0","48275","","null","","","null","75","","","","","","","","","","","","","","","",""
"","ITI","","html-keyboard-response","504","546979","0.0-1.0-684.0","0","0","48275","","null","","","null","75","","","","","","","","","","","","","","","NaN",""
"","S1","","html-keyboard-response","505","547139","0.0-1.0-686.0","0","0","48275","","null","","","null","76","","","","","","","","","","","","","","","",""
"","ISI","","html-keyboard-response","506","549149","0.0-1.0-687.0","0","0","48275","","null","","","null","76","NaN","","","","","","","","","","","","","","",""
"","S2","","html-keyboard-response","507","549310","0.0-1.0-688.0","0","0","48275","","null","","","null","76","","NaN","","","","","","","","","","","","","",""
"","response","","html-keyboard-response","508","549561","0.0-1.0-689.0-0.0","0","0","48275","","246","","","75","76","","","2","76","training","adjacent","DE","4","5","M.jpg","L.jpg","1","1","1","",""
"","feedback","","html-keyboard-response","509","550570","0.0-1.0-690.0-0.0","0","0","48275","","null","","","null","76","","","","","","","","","","","","","","","",""
"","ITI","","html-keyboard-response","510","551580","0.0-1.0-693.0","0","0","48275","","null","","","null","76","","","","","","","","","","","","","","","NaN",""
"","S1","","html-keyboard-response","511","551740","0.0-1.0-695.0","0","0","48275","","null","","","null","77","","","","","","","","","","","","","","","",""
"","ISI","","html-keyboard-response","512","553750","0.0-1.0-696.0","0","0","48275","","null","","","null","77","NaN","","","","","","","","","","","","","","",""
"","S2","","html-keyboard-response","513","553910","0.0-1.0-697.0","0","0","48275","","null","","","null","77","","NaN","","","","","","","","","","","","","",""
"","response","","html-keyboard-response","514","554327","0.0-1.0-698.0-0.0","0","0","48275","","412","","","75","77","","","2","77","training","adjacent","BC","2","3","N.jpg","R.jpg","1","1","1","",""
"","feedback","","html-keyboard-response","515","555340","0.0-1.0-699.0-0.0","0","0","48275","","null","","","null","77","","","","","","","","","","","","","","","",""
"","ITI","","html-keyboard-response","516","556350","0.0-1.0-702.0","0","0","48275","","null","","","null","77","","","","","","","","","","","","","","","NaN",""
"","S1","","html-keyboard-response","517","556509","0.0-1.0-704.0","0","0","48275","","null","","","null","78","","","","","","","","","","","","","","","",""
"","ISI","","html-keyboard-response","518","558520","0.0-1.0-705.0","0","0","48275","","null","","","null","78","NaN","","","","","","","","","","","","","","",""
"","S2","","html-keyboard-response","519","558681","0.0-1.0-706.0","0","0","48275","","null","","","null","78","","NaN","","","","","","","","","","","","","",""
"","response","","html-keyboard-response","520","559054","0.0-1.0-707.0-0.0","0","0","48275","","369","","","75","78","","","2","78","training","adjacent","BA","2","1","N.jpg","O.jpg","1","0","0","",""
"","feedback","","html-keyboard-response","521","560060","0.0-1.0-708.0-0.0","0","0","48275","","null","","","null","78","","","","","","","","","","","","","","","",""
"","time_out","","html-keyboard-response","522","562070","0.0-1.0-710.0-0.0","0","0","48275","","null","","","null","78","","","","","","","","","","","","","","","",""
"","ITI","","html-keyboard-response","523","563081","0.0-1.0-711.0","0","0","48275","","null","","","null","78","","","","","","","","","","","","","","","NaN",""
"","S1","","html-keyboard-response","524","563240","0.0-1.0-713.0","0","0","48275","","null","","","null","79","","","","","","","","","","","","","","","",""
"","ISI","","html-keyboard-response","525","565251","0.0-1.0-714.0","0","0","48275","","null","","","null","79","NaN","","","","","","","","","","","","","","",""
"","S2","","html-keyboard-response","526","565411","0.0-1.0-715.0","0","0","48275","","null","","","null","79","","NaN","","","","","","","","","","","","","",""
"","response","","html-keyboard-response","527","565870","0.0-1.0-716.0-0.0","0","0","48275","","454","","","68","79","","","2","79","training","adjacent","AB","1","2","O.jpg","N.jpg","0","1","0","",""
"","feedback","","html-keyboard-response","528","566881","0.0-1.0-717.0-0.0","0","0","48275","","null","","","null","79","","","","","","","","","","","","","","","",""
"","time_out","","html-keyboard-response","529","568891","0.0-1.0-719.0-0.0","0","0","48275","","null","","","null","79","","","","","","","","","","","","","","","",""
"","ITI","","html-keyboard-response","530","569901","0.0-1.0-720.0","0","0","48275","","null","","","null","79","","","","","","","","","","","","","","","NaN",""
"","S1","","html-keyboard-response","531","570062","0.0-1.0-722.0","0","0","48275","","null","","","null","80","","","","","","","","","","","","","","","",""
"","ISI","","html-keyboard-response","532","572071","0.0-1.0-723.0","0","0","48275","","null","","","null","80","NaN","","","","","","","","","","","","","","",""
"","S2","","html-keyboard-response","533","572232","0.0-1.0-724.0","0","0","48275","","null","","","null","80","","NaN","","","","","","","","","","","","","",""
"","response","","html-keyboard-response","534","572383","0.0-1.0-725.0-0.0","0","0","48275","","147","","","75","80","","","2","80","training","adjacent","FE","6","5","P.jpg","L.jpg","1","0","0","",""
"","feedback","","html-keyboard-response","535","573391","0.0-1.0-726.0-0.0","0","0","48275","","null","","","null","80","","","","","","","","","","","","","","","",""
"","time_out","","html-keyboard-response","536","575401","0.0-1.0-728.0-0.0","0","0","48275","","null","","","null","80","","","","","","","","","","","","","","","",""
"","ITI","","html-keyboard-response","537","576413","0.0-1.0-729.0","0","0","48275","","null","","","null","80","","","","","","","","","","","","","","","NaN",""
"","S1","","html-keyboard-response","538","576572","0.0-1.0-731.0","0","0","48275","","null","","","null","81","","","","","","","","","","","","","","","",""
"","ISI","","html-keyboard-response","539","578582","0.0-1.0-732.0","0","0","48275","","null","","","null","81","NaN","","","","","","","","","","","","","","",""
"","S2","","html-keyboard-response","540","578742","0.0-1.0-733.0","0","0","48275","","null","","","null","81","","NaN","","","","","","","","","","","","","",""
"","response","","html-keyboard-response","541","578913","0.0-1.0-734.0-0.0","0","0","48275","","167","","","75","81","","","2","81","training","adjacent","BC","2","3","N.jpg","R.jpg","1","1","1","",""
"","feedback","","html-keyboard-response","542","579922","0.0-1.0-735.0-0.0","0","0","48275","","null","","","null","81","","","","","","","","","","","","","","","",""
"","ITI","","html-keyboard-response","543","580932","0.0-1.0-738.0","0","0","48275","","null","","","null","81","","","","","","","","","","","","","","","NaN",""
"","S1","","html-keyboard-response","544","581092","0.0-1.0-740.0","0","0","48275","","null","","","null","82","","","","","","","","","","","","","","","",""
"","ISI","","html-keyboard-response","545","583102","0.0-1.0-741.0","0","0","48275","","null","","","null","82","NaN","","","","","","","","","","","","","","",""
"","S2","","html-keyboard-response","546","583262","0.0-1.0-742.0","0","0","48275","","null","","","null","82","","NaN","","","","","","","","","","","","","",""
"","response","","html-keyboard-response","547","583442","0.0-1.0-743.0-0.0","0","0","48275","","176","","","75","82","","","2","82","training","adjacent","BA","2","1","N.jpg","O.jpg","1","0","0","",""
"","feedback","","html-keyboard-response","548","584453","0.0-1.0-744.0-0.0","0","0","48275","","null","","","null","82","","","","","","","","","","","","","","","",""
"","time_out","","html-keyboard-response","549","586463","0.0-1.0-746.0-0.0","0","0","48275","","null","","","null","82","","","","","","","","","","","","","","","",""
"","ITI","","html-keyboard-response","550","587473","0.0-1.0-747.0","0","0","48275","","null","","","null","82","","","","","","","","","","","","","","","NaN",""
"","S1","","html-keyboard-response","551","587634","0.0-1.0-749.0","0","0","48275","","null","","","null","83","","","","","","","","","","","","","","","",""
"","ISI","","html-keyboard-response","552","589642","0.0-1.0-750.0","0","0","48275","","null","","","null","83","NaN","","","","","","","","","","","","","","",""
"","S2","","html-keyboard-response","553","589803","0.0-1.0-751.0","0","0","48275","","null","","","null","83","","NaN","","","","","","","","","","","","","",""
"","response","","html-keyboard-response","554","590168","0.0-1.0-752.0-0.0","0","0","48275","","360","","","75","83","","","2","83","training","adjacent","ED","5","4","L.jpg","M.jpg","1","0","0","",""
"","feedback","","html-keyboard-response","555","591182","0.0-1.0-753.0-0.0","0","0","48275","","null","","","null","83","","","","","","","","","","","","","","","",""
"","time_out","","html-keyboard-response","556","593192","0.0-1.0-755.0-0.0","0","0","48275","","null","","","null","83","","","","","","","","","","","","","","","",""
"","ITI","","html-keyboard-response","557","594204","0.0-1.0-756.0","0","0","48275","","null","","","null","83","","","","","","","","","","","","","","","NaN",""
"","S1","","html-keyboard-response","558","594364","0.0-1.0-758.0","0","0","48275","","null","","","null","84","","","","","","","","","","","","","","","",""
"","ISI","","html-keyboard-response","559","596375","0.0-1.0-759.0","0","0","48275","","null","","","null","84","NaN","","","","","","","","","","","","","","",""
"","S2","","html-keyboard-response","560","596535","0.0-1.0-760.0","0","0","48275","","null","","","null","84","","NaN","","","","","","","","","","","","","",""
"","response","","html-keyboard-response","561","596798","0.0-1.0-761.0-0.0","0","0","48275","","259","","","75","84","","","2","84","training","adjacent","AB","1","2","O.jpg","N.jpg","1","1","1","",""
"","feedback","","html-keyboard-response","562","597805","0.0-1.0-762.0-0.0","0","0","48275","","null","","","null","84","","","","","","","","","","","","","","","",""
"","ITI","","html-keyboard-response","563","598815","0.0-1.0-765.0","0","0","48275","","null","","","null","84","","","","","","","","","","","","","","","NaN",""
"","S1","","html-keyboard-response","564","598975","0.0-1.0-767.0","0","0","48275","","null","","","null","85","","","","","","","","","","","","","","","",""
"","ISI","","html-keyboard-response","565","600984","0.0-1.0-768.0","0","0","48275","","null","","","null","85","NaN","","","","","","","","","","","","","","",""
"","S2","","html-keyboard-response","566","601145","0.0-1.0-769.0","0","0","48275","","null","","","null","85","","NaN","","","","","","","","","","","","","",""
"","response","","html-keyboard-response","567","601548","0.0-1.0-770.0-0.0","0","0","48275","","398","","","75","85","","","2","85","training","adjacent","BA","2","1","N.jpg","O.jpg","1","0","0","",""
"","feedback","","html-keyboard-response","568","602555","0.0-1.0-771.0-0.0","0","0","48275","","null","","","null","85","","","","","","","","","","","","","","","",""
"","time_out","","html-keyboard-response","569","604566","0.0-1.0-773.0-0.0","0","0","48275","","null","","","null","85","","","","","","","","","","","","","","","",""
"","ITI","","html-keyboard-response","570","605575","0.0-1.0-774.0","0","0","48275","","null","","","null","85","","","","","","","","","","","","","","","NaN",""
"","S1","","html-keyboard-response","571","605736","0.0-1.0-776.0","0","0","48275","","null","","","null","86","","","","","","","","","","","","","","","",""
"","ISI","","html-keyboard-response","572","607746","0.0-1.0-777.0","0","0","48275","","null","","","null","86","NaN","","","","","","","","","","","","","","",""
"","S2","","html-keyboard-response","573","607905","0.0-1.0-778.0","0","0","48275","","null","","","null","86","","NaN","","","","","","","","","","","","","",""
"","response","","html-keyboard-response","574","608154","0.0-1.0-779.0-0.0","0","0","48275","","244","","","68","86","","","2","86","training","adjacent","AB","1","2","O.jpg","N.jpg","0","1","0","",""
"","feedback","","html-keyboard-response","575","609166","0.0-1.0-780.0-0.0","0","0","48275","","null","","","null","86","","","","","","","","","","","","","","","",""
"","time_out","","html-keyboard-response","576","611175","0.0-1.0-782.0-0.0","0","0","48275","","null","","","null","86","","","","","","","","","","","","","","","",""
"","ITI","","html-keyboard-response","577","612185","0.0-1.0-783.0","0","0","48275","","null","","","null","86","","","","","","","","","","","","","","","NaN",""
"","S1","","html-keyboard-response","578","612346","0.0-1.0-785.0","0","0","48275","","null","","","null","87","","","","","","","","","","","","","","","",""
"","ISI","","html-keyboard-response","579","614357","0.0-1.0-786.0","0","0","48275","","null","","","null","87","NaN","","","","","","","","","","","","","","",""
"","S2","","html-keyboard-response","580","614517","0.0-1.0-787.0","0","0","48275","","null","","","null","87","","NaN","","","","","","","","","","","","","",""
"","response","","html-keyboard-response","581","615038","0.0-1.0-788.0-0.0","0","0","48275","","516","","","75","87","","","2","87","training","adjacent","CD","3","4","R.jpg","M.jpg","1","1","1","",""
"","feedback","","html-keyboard-response","582","616046","0.0-1.0-789.0-0.0","0","0","48275","","null","","","null","87","","","","","","","","","","","","","","","",""
