"success","ttype","start_time","trial_type","trial_index","time_elapsed","internal_node_id","warning","missed_checkup","PID","view_history","rt","responses","repeat_instructions","key_press","index","keypress_isi","keypress_S2","block","trial_num","phase","group_type","pair_type","S1_stim","S2_stim","S1_img","S2_img","S1_chosen","S1_higher","accuracy","keypress_iti","total_bonus_tally"
"true","full_screen","d04132023hr1745","fullscreen","0","103520","0.0-0.0","0","0","97805","","","","","","","","","","","","","","","","","","","","","",""
"","instructions","","instructions","1","151025","0.0-1.0-0.0-0.0","0","0","97805","[{""page_index"":0,""viewing_time"":12361},{""page_index"":1,""viewing_time"":25306},{""page_index"":2,""viewing_time"":8088},{""page_index"":3,""viewing_time"":1749}]","47504","","","","","","","","","","","","","","","","","","","",""
"","comprehension_check","","survey-multi-choice","2","173173","0.0-1.0-0.0-1.0","0","0","97805","","22145","{""Q0"":""True"",""Q1"":""D"",""Q2"":""Once the second image appears and while the screen 'MAKE A CHOICE' is shown"",""Q3"":""Green mark"",""Q4"":""either D or K""}","1","","","","","","","","","","","","","","","","","",""
"","missed_instruction_checkup","","html-keyboard-response","3","174960","0.0-1.0-0.0-2.0-0.0","0","1","97805","","1785","","","32","","","","","","","","","","","","","","","","",""
"","instructions","","instructions","4","184848","0.0-1.0-0.1-0.1","0","0","97805","[{""page_index"":0,""viewing_time"":1926},{""page_index"":1,""viewing_time"":6922},{""page_index"":2,""viewing_time"":174},{""page_index"":3,""viewing_time"":865}]","9887","","","","","","","","","","","","","","","","","","","",""
"","comprehension_check","","survey-multi-choice","5","194121","0.0-1.0-0.1-1.1","0","0","97805","","9271","{""Q0"":""True"",""Q1"":""K"",""Q2"":""Once the second image appears and while the screen 'MAKE A CHOICE' is shown"",""Q3"":""Green mark"",""Q4"":""either D or K""}","0","","","","","","","","","","","","","","","","","",""
"","start_exp","","html-keyboard-response","6","195616","0.0-1.0-1.0","0","0","97805","","1493","","","32","","","","","","","","","","","","","","","","",""
"","S1","","html-keyboard-response","7","195867","0.0-1.0-2.0","0","0","97805","","null","","","null","0","","","","","","","","","","","","","","","",""
"","ISI","","html-keyboard-response","8","196869","0.0-1.0-3.0","0","0","97805","","null","","","null","0","NaN","","","","","","","","","","","","","","",""
"","S2","","html-keyboard-response","9","197121","0.0-1.0-4.0","0","0","97805","","null","","","null","0","","NaN","","","","","","","","","","","","","",""
"","response","","html-keyboard-response","10","197864","0.0-1.0-5.0-0.0","0","0","97805","","742","","","75","0","","","1","0","training","adjacent","CB","3","2","N.jpg","O.jpg","1","0","0","",""
"","feedback","","html-keyboard-response","11","198866","0.0-1.0-6.0-0.0","0","0","97805","","null","","","null","0","","","","","","","","","","","","","","","",""
"","time_out","","html-keyboard-response","12","200867","0.0-1.0-8.0-0.0","0","0","97805","","null","","","null","0","","","","","","","","","","","","","","","",""
"","ITI","","html-keyboard-response","13","201868","0.0-1.0-9.0","0","0","97805","","724","","","32","0","","","","","","","","","","","","","","","space",""
"","S1","","html-keyboard-response","14","202120","0.0-1.0-11.0","0","0","97805","","null","","","null","1","","","","","","","","","","","","","","","",""
"","ISI","","html-keyboard-response","15","203122","0.0-1.0-12.0","0","0","97805","","null","","","null","1","NaN","","","","","","","","","","","","","","",""
"","S2","","html-keyboard-response","16","203373","0.0-1.0-13.0","0","0","97805","","null","","","null","1","","NaN","","","","","","","","","","","","","",""
"","response","","html-keyboard-response","17","203976","0.0-1.0-14.0-0.0","0","0","97805","","602","","","68","1","","","1","1","training","adjacent","FG","6","7","L.jpg","P.jpg","0","1","0","",""
"","feedback","","html-keyboard-response","18","204978","0.0-1.0-15.0-0.0","0","0","97805","","null","","","null","1","","","","","","","","","","","","","","","",""
"","time_out","","html-keyboard-response","19","206979","0.0-1.0-17.0-0.0","0","0","97805","","null","","","null","1","","","","","","","","","","","","","","","",""
"","ITI","","html-keyboard-response","20","207981","0.0-1.0-18.0","0","0","97805","","null","","","null","1","","","","","","","","","","","","","","","NaN",""
"","S1","","html-keyboard-response","21","208232","0.0-1.0-20.0","0","0","97805","","null","","","null","2","","","","","","","","","","","","","","","",""
"","ISI","","html-keyboard-response","22","209234","0.0-1.0-21.0","0","0","97805","","null","","","null","2","NaN","","","","","","","","","","","","","","",""
"","S2","","html-keyboard-response","23","209486","0.0-1.0-22.0","0","0","97805","","null","","","null","2","","NaN","","","","","","","","","","","","","",""
"","response","","html-keyboard-response","24","210120","0.0-1.0-23.0-0.0","0","0","97805","","633","","","75","2","","","1","2","training","adjacent","AB","1","2","R.jpg","O.jpg","1","1","1","",""
"","feedback","","html-keyboard-response","25","211121","0.0-1.0-24.0-0.0","0","0","97805","","null","","","null","2","","","","","","","","","","","","","","","",""
"","ITI","","html-keyboard-response","26","212122","0.0-1.0-27.0","0","0","97805","","null","","","null","2","","","","","","","","","","","","","","","NaN",""
"","S1","","html-keyboard-response","27","212375","0.0-1.0-29.0","0","0","97805","","null","","","null","3","","","","","","","","","","","","","","","",""
"","ISI","","html-keyboard-response","28","213376","0.0-1.0-30.0","0","0","97805","","null","","","null","3","NaN","","","","","","","","","","","","","","",""
"","S2","","html-keyboard-response","29","213628","0.0-1.0-31.0","0","0","97805","","null","","","null","3","","NaN","","","","","","","","","","","","","",""
"","response","","html-keyboard-response","30","214032","0.0-1.0-32.0-0.0","0","0","97805","","402","","","75","3","","","1","3","training","adjacent","FG","6","7","L.jpg","P.jpg","1","1","1","",""
"","feedback","","html-keyboard-response","31","215045","0.0-1.0-33.0-0.0","0","0","97805","","null","","","null","3","","","","","","","","","","","","","","","",""
"","ITI","","html-keyboard-response","32","216047","0.0-1.0-36.0","0","0","97805","","null","","","null","3","","","","","","","","","","","","","","","NaN",""
"","S1","","html-keyboard-response","33","216299","0.0-1.0-38.0","0","0","97805","","null","","","null","4","","","","","","","","","","","","","","","",""
"","ISI","","html-keyboard-response","34","217301","0.0-1.0-39.0","0","0","97805","","null","","","null","4","NaN","","","","","","","","","","","","","","",""
"","S2","","html-keyboard-response","35","217553","0.0-1.0-40.0","0","0","97805","","null","","","null","4","","NaN","","","","","","","","","","","","","",""
"","response","","html-keyboard-response","36","218336","0.0-1.0-41.0-0.0","0","0","97805","","782","","","75","4","","","1","4","training","adjacent","BC","2","3","O.jpg","N.jpg","1","1","1","",""
"","feedback","","html-keyboard-response","37","219338","0.0-1.0-42.0-0.0","0","0","97805","","null","","","null","4","","","","","","","","","","","","","","","",""
"","ITI","","html-keyboard-response","38","220340","0.0-1.0-45.0","0","0","97805","","null","","","null","4","","","","","","","","","","","","","","","NaN",""
"","S1","","html-keyboard-response","39","220592","0.0-1.0-47.0","0","0","97805","","null","","","null","5","","","","","","","","","","","","","","","",""
"","ISI","","html-keyboard-response","40","221594","0.0-1.0-48.0","0","0","97805","","null","","","null","5","NaN","","","","","","","","","","","","","","",""
"","S2","","html-keyboard-response","41","221845","0.0-1.0-49.0","0","0","97805","","null","","","null","5","","NaN","","","","","","","","","","","","","",""
"","response","","html-keyboard-response","42","222224","0.0-1.0-50.0-0.0","0","0","97805","","378","","","75","5","","","1","5","training","adjacent","BC","2","3","O.jpg","N.jpg","1","1","1","",""
"","feedback","","html-keyboard-response","43","223225","0.0-1.0-51.0-0.0","0","0","97805","","null","","","null","5","","","","","","","","","","","","","","","",""
"","ITI","","html-keyboard-response","44","224228","0.0-1.0-54.0","0","0","97805","","null","","","null","5","","","","","","","","","","","","","","","NaN",""
"","S1","","html-keyboard-response","45","224479","0.0-1.0-56.0","0","0","97805","","null","","","null","6","","","","","","","","","","","","","","","",""
"","ISI","","html-keyboard-response","46","225481","0.0-1.0-57.0","0","0","97805","","null","","","null","6","NaN","","","","","","","","","","","","","","",""
"","S2","","html-keyboard-response","47","225732","0.0-1.0-58.0","0","0","97805","","null","","","null","6","","NaN","","","","","","","","","","","","","",""
"","response","","html-keyboard-response","48","226280","0.0-1.0-59.0-0.0","0","0","97805","","547","","","75","6","","","1","6","training","adjacent","CB","3","2","N.jpg","O.jpg","1","0","0","",""
"","feedback","","html-keyboard-response","49","227282","0.0-1.0-60.0-0.0","0","0","97805","","null","","","null","6","","","","","","","","","","","","","","","",""
"","time_out","","html-keyboard-response","50","229283","0.0-1.0-62.0-0.0","0","0","97805","","null","","","null","6","","","","","","","","","","","","","","","",""
"","ITI","","html-keyboard-response","51","230285","0.0-1.0-63.0","0","0","97805","","null","","","null","6","","","","","","","","","","","","","","","NaN",""
"","S1","","html-keyboard-response","52","230537","0.0-1.0-65.0","0","0","97805","","null","","","null","7","","","","","","","","","","","","","","","",""
"","ISI","","html-keyboard-response","53","231538","0.0-1.0-66.0","0","0","97805","","null","","","null","7","NaN","","","","","","","","","","","","","","",""
"","S2","","html-keyboard-response","54","231790","0.0-1.0-67.0","0","0","97805","","null","","","null","7","","NaN","","","","","","","","","","","","","",""
"","response","","html-keyboard-response","55","232288","0.0-1.0-68.0-0.0","0","0","97805","","496","","","75","7","","","1","7","training","adjacent","FE","6","5","L.jpg","M.jpg","1","0","0","",""
"","feedback","","html-keyboard-response","56","233289","0.0-1.0-69.0-0.0","0","0","97805","","null","","","null","7","","","","","","","","","","","","","","","",""
"","time_out","","html-keyboard-response","57","235290","0.0-1.0-71.0-0.0","0","0","97805","","null","","","null","7","","","","","","","","","","","","","","","",""
"","ITI","","html-keyboard-response","58","236292","0.0-1.0-72.0","0","0","97805","","null","","","null","7","","","","","","","","","","","","","","","NaN",""
"","S1","","html-keyboard-response","59","236544","0.0-1.0-74.0","0","0","97805","","null","","","null","8","","","","","","","","","","","","","","","",""
"","ISI","","html-keyboard-response","60","237546","0.0-1.0-75.0","0","0","97805","","null","","","null","8","NaN","","","","","","","","","","","","","","",""
"","S2","","html-keyboard-response","61","237798","0.0-1.0-76.0","0","0","97805","","null","","","null","8","","NaN","","","","","","","","","","","","","",""
"","response","","html-keyboard-response","62","238584","0.0-1.0-77.0-0.0","0","0","97805","","785","","","68","8","","","1","8","training","adjacent","DC","4","3","Q.jpg","N.jpg","0","0","1","",""
"","feedback","","html-keyboard-response","63","239586","0.0-1.0-78.0-0.0","0","0","97805","","null","","","null","8","","","","","","","","","","","","","","","",""
"","ITI","","html-keyboard-response","64","240588","0.0-1.0-81.0","0","0","97805","","null","","","null","8","","","","","","","","","","","","","","","NaN",""
"","S1","","html-keyboard-response","65","240839","0.0-1.0-83.0","0","0","97805","","null","","","null","9","","","","","","","","","","","","","","","",""
"","ISI","","html-keyboard-response","66","241841","0.0-1.0-84.0","0","0","97805","","null","","","null","9","NaN","","","","","","","","","","","","","","",""
"","S2","","html-keyboard-response","67","242092","0.0-1.0-85.0","0","0","97805","","null","","","null","9","","NaN","","","","","","","","","","","","","",""
"","response","","html-keyboard-response","68","242440","0.0-1.0-86.0-0.0","0","0","97805","","346","","","68","9","","","1","9","training","adjacent","DC","4","3","Q.jpg","N.jpg","0","0","1","",""
"","feedback","","html-keyboard-response","69","243442","0.0-1.0-87.0-0.0","0","0","97805","","null","","","null","9","","","","","","","","","","","","","","","",""
"","ITI","","html-keyboard-response","70","244443","0.0-1.0-90.0","0","0","97805","","null","","","null","9","","","","","","","","","","","","","","","NaN",""
"","S1","","html-keyboard-response","71","244694","0.0-1.0-92.0","0","0","97805","","null","","","null","10","","","","","","","","","","","","","","","",""
"","ISI","","html-keyboard-response","72","245696","0.0-1.0-93.0","0","0","97805","","null","","","null","10","NaN","","","","","","","","","","","","","","",""
"","S2","","html-keyboard-response","73","245948","0.0-1.0-94.0","0","0","97805","","null","","","null","10","","NaN","","","","","","","","","","","","","",""
"","response","","html-keyboard-response","74","246672","0.0-1.0-95.0-0.0","0","0","97805","","722","","","68","10","","","1","10","training","adjacent","BC","2","3","O.jpg","N.jpg","0","1","0","",""
"","feedback","","html-keyboard-response","75","247674","0.0-1.0-96.0-0.0","0","0","97805","","null","","","null","10","","","","","","","","","","","","","","","",""
"","time_out","","html-keyboard-response","76","249676","0.0-1.0-98.0-0.0","0","0","97805","","null","","","null","10","","","","","","","","","","","","","","","",""
"","ITI","","html-keyboard-response","77","250678","0.0-1.0-99.0","0","0","97805","","null","","","null","10","","","","","","","","","","","","","","","NaN",""
"","S1","","html-keyboard-response","78","250929","0.0-1.0-101.0","0","0","97805","","null","","","null","11","","","","","","","","","","","","","","","",""
"","ISI","","html-keyboard-response","79","251930","0.0-1.0-102.0","0","0","97805","","null","","","null","11","NaN","","","","","","","","","","","","","","",""
"","S2","","html-keyboard-response","80","252182","0.0-1.0-103.0","0","0","97805","","null","","","null","11","","NaN","","","","","","","","","","","","","",""
"","response","","html-keyboard-response","81","253400","0.0-1.0-104.0-0.0","0","0","97805","","1217","","","75","11","","","1","11","training","adjacent","GF","7","6","P.jpg","L.jpg","1","0","0","",""
"","feedback","","html-keyboard-response","82","254402","0.0-1.0-105.0-0.0","0","0","97805","","null","","","null","11","","","","","","","","","","","","","","","",""
"","time_out","","html-keyboard-response","83","256404","0.0-1.0-107.0-0.0","0","0","97805","","null","","","null","11","","","","","","","","","","","","","","","",""
"","ITI","","html-keyboard-response","84","257406","0.0-1.0-108.0","0","0","97805","","null","","","null","11","","","","","","","","","","","","","","","NaN",""
"","S1","","html-keyboard-response","85","257658","0.0-1.0-110.0","0","0","97805","","null","","","null","12","","","","","","","","","","","","","","","",""
"","ISI","","html-keyboard-response","86","258663","0.0-1.0-111.0","0","0","97805","","null","","","null","12","NaN","","","","","","","","","","","","","","",""
"","S2","","html-keyboard-response","87","258914","0.0-1.0-112.0","0","0","97805","","null","","","null","12","","NaN","","","","","","","","","","","","","",""
"","response","","html-keyboard-response","88","260455","0.0-1.0-113.0-0.0","0","0","97805","","1541","","","68","12","","","1","12","training","adjacent","GF","7","6","P.jpg","L.jpg","0","0","1","",""
"","feedback","","html-keyboard-response","89","261457","0.0-1.0-114.0-0.0","0","0","97805","","null","","","null","12","","","","","","","","","","","","","","","",""
"","ITI","","html-keyboard-response","90","262459","0.0-1.0-117.0","0","0","97805","","null","","","null","12","","","","","","","","","","","","","","","NaN",""
"","S1","","html-keyboard-response","91","262710","0.0-1.0-119.0","0","0","97805","","null","","","null","13","","","","","","","","","","","","","","","",""
"","ISI","","html-keyboard-response","92","263711","0.0-1.0-120.0","0","0","97805","","null","","","null","13","NaN","","","","","","","","","","","","","","",""
"","S2","","html-keyboard-response","93","263963","0.0-1.0-121.0","0","0","97805","","null","","","null","13","","NaN","","","","","","","","","","","","","",""
"","response","","html-keyboard-response","94","265456","0.0-1.0-122.0-0.0","0","0","97805","","1492","","","75","13","","","1","13","training","adjacent","DE","4","5","Q.jpg","M.jpg","1","1","1","",""
"","feedback","","html-keyboard-response","95","266458","0.0-1.0-123.0-0.0","0","0","97805","","null","","","null","13","","","","","","","","","","","","","","","",""
"","ITI","","html-keyboard-response","96","267460","0.0-1.0-126.0","0","0","97805","","null","","","null","13","","","","","","","","","","","","","","","NaN",""
"","S1","","html-keyboard-response","97","267712","0.0-1.0-128.0","0","0","97805","","null","","","null","14","","","","","","","","","","","","","","","",""
"","ISI","","html-keyboard-response","98","268714","0.0-1.0-129.0","0","0","97805","","null","","","null","14","NaN","","","","","","","","","","","","","","",""
"","S2","","html-keyboard-response","99","268966","0.0-1.0-130.0","0","0","97805","","null","","","null","14","","NaN","","","","","","","","","","","","","",""
"","response","","html-keyboard-response","100","270216","0.0-1.0-131.0-0.0","0","0","97805","","1249","","","75","14","","","1","14","training","adjacent","EF","5","6","M.jpg","L.jpg","1","1","1","",""
"","feedback","","html-keyboard-response","101","271218","0.0-1.0-132.0-0.0","0","0","97805","","null","","","null","14","","","","","","","","","","","","","","","",""
"","ITI","","html-keyboard-response","102","272219","0.0-1.0-135.0","0","0","97805","","null","","","null","14","","","","","","","","","","","","","","","NaN",""
"","S1","","html-keyboard-response","103","272470","0.0-1.0-137.0","0","0","97805","","null","","","null","15","","","","","","","","","","","","","","","",""
"","ISI","","html-keyboard-response","104","273481","0.0-1.0-138.0","0","0","97805","","null","","","null","15","NaN","","","","","","","","","","","","","","",""
"","S2","","html-keyboard-response","105","273733","0.0-1.0-139.0","0","0","97805","","null","","","null","15","","NaN","","","","","","","","","","","","","",""
"","response","","html-keyboard-response","106","274392","0.0-1.0-140.0-0.0","0","0","97805","","658","","","68","15","","","1","15","training","adjacent","BA","2","1","O.jpg","R.jpg","0","0","1","",""
"","feedback","","html-keyboard-response","107","275393","0.0-1.0-141.0-0.0","0","0","97805","","null","","","null","15","","","","","","","","","","","","","","","",""
"","ITI","","html-keyboard-response","108","276395","0.0-1.0-144.0","0","0","97805","","null","","","null","15","","","","","","","","","","","","","","","NaN",""
"","S1","","html-keyboard-response","109","276647","0.0-1.0-146.0","0","0","97805","","null","","","null","16","","","","","","","","","","","","","","","",""
"","ISI","","html-keyboard-response","110","277648","0.0-1.0-147.0","0","0","97805","","null","","","null","16","NaN","","","","","","","","","","","","","","",""
"","S2","","html-keyboard-response","111","277899","0.0-1.0-148.0","0","0","97805","","null","","","null","16","","NaN","","","","","","","","","","","","","",""
"","response","","html-keyboard-response","112","278808","0.0-1.0-149.0-0.0","0","0","97805","","907","","","75","16","","","1","16","training","adjacent","FE","6","5","L.jpg","M.jpg","1","0","0","",""
"","feedback","","html-keyboard-response","113","279819","0.0-1.0-150.0-0.0","0","0","97805","","null","","","null","16","","","","","","","","","","","","","","","",""
"","time_out","","html-keyboard-response","114","281820","0.0-1.0-152.0-0.0","0","0","97805","","null","","","null","16","","","","","","","","","","","","","","","",""
"","ITI","","html-keyboard-response","115","282822","0.0-1.0-153.0","0","0","97805","","null","","","null","16","","","","","","","","","","","","","","","NaN",""
"","S1","","html-keyboard-response","116","283074","0.0-1.0-155.0","0","0","97805","","null","","","null","17","","","","","","","","","","","","","","","",""
"","ISI","","html-keyboard-response","117","284075","0.0-1.0-156.0","0","0","97805","","null","","","null","17","NaN","","","","","","","","","","","","","","",""
"","S2","","html-keyboard-response","118","284327","0.0-1.0-157.0","0","0","97805","","null","","","null","17","","NaN","","","","","","","","","","","","","",""
"","response","","html-keyboard-response","119","284952","0.0-1.0-158.0-0.0","0","0","97805","","624","","","68","17","","","1","17","training","adjacent","DC","4","3","Q.jpg","N.jpg","0","0","1","",""
"","feedback","","html-keyboard-response","120","285953","0.0-1.0-159.0-0.0","0","0","97805","","null","","","null","17","","","","","","","","","","","","","","","",""
"","ITI","","html-keyboard-response","121","286955","0.0-1.0-162.0","0","0","97805","","null","","","null","17","","","","","","","","","","","","","","","NaN",""
"","S1","","html-keyboard-response","122","287206","0.0-1.0-164.0","0","0","97805","","null","","","null","18","","","","","","","","","","","","","","","",""
"","ISI","","html-keyboard-response","123","288208","0.0-1.0-165.0","0","0","97805","","null","","","null","18","NaN","","","","","","","","","","","","","","",""
"","S2","","html-keyboard-response","124","288460","0.0-1.0-166.0","0","0","97805","","null","","","null","18","","NaN","","","","","","","","","","","","","",""
"","response","","html-keyboard-response","125","289288","0.0-1.0-167.0-0.0","0","0","97805","","826","","","68","18","","","1","18","training","adjacent","BA","2","1","O.jpg","R.jpg","0","0","1","",""
"","feedback","","html-keyboard-response","126","290290","0.0-1.0-168.0-0.0","0","0","97805","","null","","","null","18","","","","","","","","","","","","","","","",""
"","ITI","","html-keyboard-response","127","291292","0.0-1.0-171.0","0","0","97805","","null","","","null","18","","","","","","","","","","","","","","","NaN",""
"","S1","","html-keyboard-response","128","291544","0.0-1.0-173.0","0","0","97805","","null","","","null","19","","","","","","","","","","","","","","","",""
"","ISI","","html-keyboard-response","129","292545","0.0-1.0-174.0","0","0","97805","","null","","","null","19","NaN","","","","","","","","","","","","","","",""
"","S2","","html-keyboard-response","130","292797","0.0-1.0-175.0","0","0","97805","","null","","","null","19","","NaN","","","","","","","","","","","","","",""
"","response","","html-keyboard-response","131","293208","0.0-1.0-176.0-0.0","0","0","97805","","410","","","75","19","","","1","19","training","adjacent","DE","4","5","Q.jpg","M.jpg","1","1","1","",""
"","feedback","","html-keyboard-response","132","294209","0.0-1.0-177.0-0.0","0","0","97805","","null","","","null","19","","","","","","","","","","","","","","","",""
"","ITI","","html-keyboard-response","133","295211","0.0-1.0-180.0","0","0","97805","","null","","","null","19","","","","","","","","","","","","","","","NaN",""
"","S1","","html-keyboard-response","134","295462","0.0-1.0-182.0","0","0","97805","","null","","","null","20","","","","","","","","","","","","","","","",""
"","ISI","","html-keyboard-response","135","296463","0.0-1.0-183.0","0","0","97805","","null","","","null","20","NaN","","","","","","","","","","","","","","",""
"","S2","","html-keyboard-response","136","296714","0.0-1.0-184.0","0","0","97805","","null","","","null","20","","NaN","","","","","","","","","","","","","",""
"","response","","html-keyboard-response","137","297680","0.0-1.0-185.0-0.0","0","0","97805","","965","","","68","20","","","1","20","training","adjacent","ED","5","4","M.jpg","Q.jpg","0","0","1","",""
"","feedback","","html-keyboard-response","138","298682","0.0-1.0-186.0-0.0","0","0","97805","","null","","","null","20","","","","","","","","","","","","","","","",""
"","ITI","","html-keyboard-response","139","299683","0.0-1.0-189.0","0","0","97805","","null","","","null","20","","","","","","","","","","","","","","","NaN",""
"","S1","","html-keyboard-response","140","299935","0.0-1.0-191.0","0","0","97805","","null","","","null","21","","","","","","","","","","","","","","","",""
"","ISI","","html-keyboard-response","141","300938","0.0-1.0-192.0","0","0","97805","","null","","","null","21","NaN","","","","","","","","","","","","","","",""
"","S2","","html-keyboard-response","142","301190","0.0-1.0-193.0","0","0","97805","","null","","","null","21","","NaN","","","","","","","","","","","","","",""
"","response","","html-keyboard-response","143","301704","0.0-1.0-194.0-0.0","0","0","97805","","512","","","68","21","","","1","21","training","adjacent","ED","5","4","M.jpg","Q.jpg","0","0","1","",""
"","feedback","","html-keyboard-response","144","302707","0.0-1.0-195.0-0.0","0","0","97805","","null","","","null","21","","","","","","","","","","","","","","","",""
"","ITI","","html-keyboard-response","145","303708","0.0-1.0-198.0","0","0","97805","","null","","","null","21","","","","","","","","","","","","","","","NaN",""
"","S1","","html-keyboard-response","146","303960","0.0-1.0-200.0","0","0","97805","","null","","","null","22","","","","","","","","","","","","","","","",""
"","ISI","","html-keyboard-response","147","304962","0.0-1.0-201.0","0","0","97805","","null","","","null","22","NaN","","","","","","","","","","","","","","",""
"","S2","","html-keyboard-response","148","305214","0.0-1.0-202.0","0","0","97805","","null","","","null","22","","NaN","","","","","","","","","","","","","",""
"","response","","html-keyboard-response","149","306056","0.0-1.0-203.0-0.0","0","0","97805","","841","","","75","22","","","1","22","training","adjacent","AB","1","2","R.jpg","O.jpg","1","1","1","",""
"","feedback","","html-keyboard-response","150","307058","0.0-1.0-204.0-0.0","0","0","97805","","null","","","null","22","","","","","","","","","","","","","","","",""
"","ITI","","html-keyboard-response","151","308060","0.0-1.0-207.0","0","0","97805","","null","","","null","22","","","","","","","","","","","","","","","NaN",""
"","S1","","html-keyboard-response","152","308312","0.0-1.0-209.0","0","0","97805","","null","","","null","23","","","","","","","","","","","","","","","",""
"","ISI","","html-keyboard-response","153","309314","0.0-1.0-210.0","0","0","97805","","null","","","null","23","NaN","","","","","","","","","","","","","","",""
"","S2","","html-keyboard-response","154","309565","0.0-1.0-211.0","0","0","97805","","null","","","null","23","","NaN","","","","","","","","","","","","","",""
"","response","","html-keyboard-response","155","309968","0.0-1.0-212.0-0.0","0","0","97805","","401","","","75","23","","","1","23","training","adjacent","AB","1","2","R.jpg","O.jpg","1","1","1","",""
"","feedback","","html-keyboard-response","156","310970","0.0-1.0-213.0-0.0","0","0","97805","","null","","","null","23","","","","","","","","","","","","","","","",""
"","ITI","","html-keyboard-response","157","311972","0.0-1.0-216.0","0","0","97805","","null","","","null","23","","","","","","","","","","","","","","","NaN",""
"","S1","","html-keyboard-response","158","312223","0.0-1.0-218.0","0","0","97805","","null","","","null","24","","","","","","","","","","","","","","","",""
"","ISI","","html-keyboard-response","159","313224","0.0-1.0-219.0","0","0","97805","","null","","","null","24","NaN","","","","","","","","","","","","","","",""
"","S2","","html-keyboard-response","160","313476","0.0-1.0-220.0","0","0","97805","","null","","","null","24","","NaN","","","","","","","","","","","","","",""
"","response","","html-keyboard-response","161","314560","0.0-1.0-221.0-0.0","0","0","97805","","1083","","","75","24","","","1","24","training","adjacent","CD","3","4","N.jpg","Q.jpg","1","1","1","",""
"","feedback","","html-keyboard-response","162","315562","0.0-1.0-222.0-0.0","0","0","97805","","null","","","null","24","","","","","","","","","","","","","","","",""
"","ITI","","html-keyboard-response","163","316564","0.0-1.0-225.0","0","0","97805","","null","","","null","24","","","","","","","","","","","","","","","NaN",""
"","S1","","html-keyboard-response","164","316816","0.0-1.0-227.0","0","0","97805","","null","","","null","25","","","","","","","","","","","","","","","",""
"","ISI","","html-keyboard-response","165","317817","0.0-1.0-228.0","0","0","97805","","null","","","null","25","NaN","","","","","","","","","","","","","","",""
"","S2","","html-keyboard-response","166","318070","0.0-1.0-229.0","0","0","97805","","null","","","null","25","","NaN","","","","","","","","","","","","","",""
"","response","","html-keyboard-response","167","318871","0.0-1.0-230.0-0.0","0","0","97805","","801","","","68","25","","","1","25","training","adjacent","GF","7","6","P.jpg","L.jpg","0","0","1","",""
"","feedback","","html-keyboard-response","168","319874","0.0-1.0-231.0-0.0","0","0","97805","","null","","","null","25","","","","","","","","","","","","","","","",""
"","ITI","","html-keyboard-response","169","320876","0.0-1.0-234.0","0","0","97805","","null","","","null","25","","","","","","","","","","","","","","","NaN",""
"","S1","","html-keyboard-response","170","321128","0.0-1.0-236.0","0","0","97805","","null","","","null","26","","","","","","","","","","","","","","","",""
"","ISI","","html-keyboard-response","171","322130","0.0-1.0-237.0","0","0","97805","","null","","","null","26","NaN","","","","","","","","","","","","","","",""
"","S2","","html-keyboard-response","172","322382","0.0-1.0-238.0","0","0","97805","","null","","","null","26","","NaN","","","","","","","","","","","","","",""
"","response","","html-keyboard-response","173","323200","0.0-1.0-239.0-0.0","0","0","97805","","817","","","68","26","","","1","26","training","adjacent","ED","5","4","M.jpg","Q.jpg","0","0","1","",""
"","feedback","","html-keyboard-response","174","324201","0.0-1.0-240.0-0.0","0","0","97805","","null","","","null","26","","","","","","","","","","","","","","","",""
"","ITI","","html-keyboard-response","175","325203","0.0-1.0-243.0","0","0","97805","","null","","","null","26","","","","","","","","","","","","","","","NaN",""
"","S1","","html-keyboard-response","176","325454","0.0-1.0-245.0","0","0","97805","","null","","","null","27","","","","","","","","","","","","","","","",""
"","ISI","","html-keyboard-response","177","326456","0.0-1.0-246.0","0","0","97805","","null","","","null","27","NaN","","","","","","","","","","","","","","",""
"","S2","","html-keyboard-response","178","326708","0.0-1.0-247.0","0","0","97805","","null","","","null","27","","NaN","","","","","","","","","","","","","",""
"","response","","html-keyboard-response","179","327352","0.0-1.0-248.0-0.0","0","0","97805","","643","","","75","27","","","1","27","training","adjacent","BC","2","3","O.jpg","N.jpg","1","1","1","",""
"","feedback","","html-keyboard-response","180","328354","0.0-1.0-249.0-0.0","0","0","97805","","null","","","null","27","","","","","","","","","","","","","","","",""
"","ITI","","html-keyboard-response","181","329356","0.0-1.0-252.0","0","0","97805","","null","","","null","27","","","","","","","","","","","","","","","NaN",""
"","S1","","html-keyboard-response","182","329608","0.0-1.0-254.0","0","0","97805","","null","","","null","28","","","","","","","","","","","","","","","",""
"","ISI","","html-keyboard-response","183","330609","0.0-1.0-255.0","0","0","97805","","null","","","null","28","NaN","","","","","","","","","","","","","","",""
"","S2","","html-keyboard-response","184","330861","0.0-1.0-256.0","0","0","97805","","null","","","null","28","","NaN","","","","","","","","","","","","","",""
"","response","","html-keyboard-response","185","332472","0.0-1.0-257.0-0.0","0","0","97805","","1610","","","68","28","","","1","28","training","adjacent","FG","6","7","L.jpg","P.jpg","0","1","0","",""
"","feedback","","html-keyboard-response","186","333473","0.0-1.0-258.0-0.0","0","0","97805","","null","","","null","28","","","","","","","","","","","","","","","",""
"","time_out","","html-keyboard-response","187","335474","0.0-1.0-260.0-0.0","0","0","97805","","null","","","null","28","","","","","","","","","","","","","","","",""
"","ITI","","html-keyboard-response","188","336476","0.0-1.0-261.0","0","0","97805","","null","","","null","28","","","","","","","","","","","","","","","NaN",""
"","S1","","html-keyboard-response","189","336727","0.0-1.0-263.0","0","0","97805","","null","","","null","29","","","","","","","","","","","","","","","",""
"","ISI","","html-keyboard-response","190","337729","0.0-1.0-264.0","0","0","97805","","null","","","null","29","NaN","","","","","","","","","","","","","","",""
"","S2","","html-keyboard-response","191","337981","0.0-1.0-265.0","0","0","97805","","null","","","null","29","","NaN","","","","","","","","","","","","","",""
"","response","","html-keyboard-response","192","339288","0.0-1.0-266.0-0.0","0","0","97805","","1306","","","68","29","","","1","29","training","adjacent","CB","3","2","N.jpg","O.jpg","0","0","1","",""
"","feedback","","html-keyboard-response","193","340290","0.0-1.0-267.0-0.0","0","0","97805","","null","","","null","29","","","","","","","","","","","","","","","",""
"","ITI","","html-keyboard-response","194","341291","0.0-1.0-270.0","0","0","97805","","null","","","null","29","","","","","","","","","","","","","","","NaN",""
"","S1","","html-keyboard-response","195","341544","0.0-1.0-272.0","0","0","97805","","null","","","null","30","","","","","","","","","","","","","","","",""
"","ISI","","html-keyboard-response","196","342545","0.0-1.0-273.0","0","0","97805","","null","","","null","30","NaN","","","","","","","","","","","","","","",""
"","S2","","html-keyboard-response","197","342798","0.0-1.0-274.0","0","0","97805","","null","","","null","30","","NaN","","","","","","","","","","","","","",""
"","response","","html-keyboard-response","198","343992","0.0-1.0-275.0-0.0","0","0","97805","","1193","","","75","30","","","1","30","training","adjacent","FE","6","5","L.jpg","M.jpg","1","0","0","",""
"","feedback","","html-keyboard-response","199","344994","0.0-1.0-276.0-0.0","0","0","97805","","null","","","null","30","","","","","","","","","","","","","","","",""
"","time_out","","html-keyboard-response","200","346996","0.0-1.0-278.0-0.0","0","0","97805","","null","","","null","30","","","","","","","","","","","","","","","",""
"","ITI","","html-keyboard-response","201","347998","0.0-1.0-279.0","0","0","97805","","null","","","null","30","","","","","","","","","","","","","","","NaN",""
"","S1","","html-keyboard-response","202","348249","0.0-1.0-281.0","0","0","97805","","null","","","null","31","","","","","","","","","","","","","","","",""
"","ISI","","html-keyboard-response","203","349251","0.0-1.0-282.0","0","0","97805","","null","","","null","31","NaN","","","","","","","","","","","","","","",""
"","S2","","html-keyboard-response","204","349502","0.0-1.0-283.0","0","0","97805","","null","","","null","31","","NaN","","","","","","","","","","","","","",""
"","response","","html-keyboard-response","205","351254","0.0-1.0-284.0-0.0","0","0","97805","","null","","","null","31","","","1","31","training","adjacent","DE","4","5","Q.jpg","M.jpg","NaN","1","0","",""
"","too_slow_prompt","","html-keyboard-response","206","352256","0.0-1.0-286.0-0.0","1","0","97805","","null","","","null","","","","","","","","","","","","","","","","",""
"","time_out","","html-keyboard-response","207","354258","0.0-1.0-287.0-0.0","0","0","97805","","null","","","null","31","","","","","","","","","","","","","","","",""
"","ITI","","html-keyboard-response","208","355260","0.0-1.0-288.0","0","0","97805","","null","","","null","31","","","","","","","","","","","","","","","NaN",""
"","S1","","html-keyboard-response","209","355511","0.0-1.0-290.0","0","0","97805","","null","","","null","32","","","","","","","","","","","","","","","",""
"","ISI","","html-keyboard-response","210","356513","0.0-1.0-291.0","0","0","97805","","null","","","null","32","NaN","","","","","","","","","","","","","","",""
"","S2","","html-keyboard-response","211","356764","0.0-1.0-292.0","0","0","97805","","null","","","null","32","","NaN","","","","","","","","","","","","","",""
"","response","","html-keyboard-response","212","357928","0.0-1.0-293.0-0.0","0","0","97805","","1163","","","75","32","","","1","32","training","adjacent","CD","3","4","N.jpg","Q.jpg","1","1","1","",""
"","feedback","","html-keyboard-response","213","358930","0.0-1.0-294.0-0.0","0","0","97805","","null","","","null","32","","","","","","","","","","","","","","","",""
"","ITI","","html-keyboard-response","214","359932","0.0-1.0-297.0","0","0","97805","","null","","","null","32","","","","","","","","","","","","","","","NaN",""
"","S1","","html-keyboard-response","215","360183","0.0-1.0-299.0","0","0","97805","","null","","","null","33","","","","","","","","","","","","","","","",""
"","ISI","","html-keyboard-response","216","361184","0.0-1.0-300.0","0","0","97805","","null","","","null","33","NaN","","","","","","","","","","","","","","",""
"","S2","","html-keyboard-response","217","361445","0.0-1.0-301.0","0","0","97805","","null","","","null","33","","NaN","","","","","","","","","","","","","",""
"","response","","html-keyboard-response","218","362744","0.0-1.0-302.0-0.0","0","0","97805","","1298","","","75","33","","","1","33","training","adjacent","FE","6","5","L.jpg","M.jpg","1","0","0","",""
"","feedback","","html-keyboard-response","219","363746","0.0-1.0-303.0-0.0","0","0","97805","","null","","","null","33","","","","","","","","","","","","","","","",""
"","time_out","","html-keyboard-response","220","365748","0.0-1.0-305.0-0.0","0","0","97805","","null","","","null","33","","","","","","","","","","","","","","","",""
"","ITI","","html-keyboard-response","221","366751","0.0-1.0-306.0","0","0","97805","","null","","","null","33","","","","","","","","","","","","","","","NaN",""
"","S1","","html-keyboard-response","222","367003","0.0-1.0-308.0","0","0","97805","","null","","","null","34","","","","","","","","","","","","","","","",""
"","ISI","","html-keyboard-response","223","368005","0.0-1.0-309.0","0","0","97805","","null","","","null","34","NaN","","","","","","","","","","","","","","",""
"","S2","","html-keyboard-response","224","368257","0.0-1.0-310.0","0","0","97805","","null","","","null","34","","NaN","","","","","","","","","","","","","",""
"","response","","html-keyboard-response","225","368560","0.0-1.0-311.0-0.0","0","0","97805","","303","","","68","34","","","1","34","training","adjacent","EF","5","6","M.jpg","L.jpg","0","1","0","",""
"","feedback","","html-keyboard-response","226","369563","0.0-1.0-312.0-0.0","0","0","97805","","null","","","null","34","","","","","","","","","","","","","","","",""
"","time_out","","html-keyboard-response","227","371564","0.0-1.0-314.0-0.0","0","0","97805","","null","","","null","34","","","","","","","","","","","","","","","",""
"","ITI","","html-keyboard-response","228","372566","0.0-1.0-315.0","0","0","97805","","null","","","null","34","","","","","","","","","","","","","","","NaN",""
"","S1","","html-keyboard-response","229","372818","0.0-1.0-317.0","0","0","97805","","null","","","null","35","","","","","","","","","","","","","","","",""
"","ISI","","html-keyboard-response","230","373820","0.0-1.0-318.0","0","0","97805","","null","","","null","35","NaN","","","","","","","","","","","","","","",""
"","S2","","html-keyboard-response","231","374072","0.0-1.0-319.0","0","0","97805","","null","","","null","35","","NaN","","","","","","","","","","","","","",""
"","response","","html-keyboard-response","232","374800","0.0-1.0-320.0-0.0","0","0","97805","","728","","","75","35","","","1","35","training","adjacent","DE","4","5","Q.jpg","M.jpg","1","1","1","",""
"","feedback","","html-keyboard-response","233","375802","0.0-1.0-321.0-0.0","0","0","97805","","null","","","null","35","","","","","","","","","","","","","","","",""
"","ITI","","html-keyboard-response","234","376804","0.0-1.0-324.0","0","0","97805","","null","","","null","35","","","","","","","","","","","","","","","NaN",""
"","S1","","html-keyboard-response","235","377055","0.0-1.0-326.0","0","0","97805","","null","","","null","36","","","","","","","","","","","","","","","",""
"","ISI","","html-keyboard-response","236","378056","0.0-1.0-327.0","0","0","97805","","null","","","null","36","NaN","","","","","","","","","","","","","","",""
"","S2","","html-keyboard-response","237","378309","0.0-1.0-328.0","0","0","97805","","null","","","null","36","","NaN","","","","","","","","","","","","","",""
"","response","","html-keyboard-response","238","378736","0.0-1.0-329.0-0.0","0","0","97805","","427","","","68","36","","","1","36","training","adjacent","EF","5","6","M.jpg","L.jpg","0","1","0","",""
"","feedback","","html-keyboard-response","239","379738","0.0-1.0-330.0-0.0","0","0","97805","","null","","","null","36","","","","","","","","","","","","","","","",""
"","time_out","","html-keyboard-response","240","381741","0.0-1.0-332.0-0.0","0","0","97805","","null","","","null","36","","","","","","","","","","","","","","","",""
"","ITI","","html-keyboard-response","241","382742","0.0-1.0-333.0","0","0","97805","","null","","","null","36","","","","","","","","","","","","","","","NaN",""
"","S1","","html-keyboard-response","242","382994","0.0-1.0-335.0","0","0","97805","","null","","","null","37","","","","","","","","","","","","","","","",""
"","ISI","","html-keyboard-response","243","383995","0.0-1.0-336.0","0","0","97805","","null","","","null","37","NaN","","","","","","","","","","","","","","",""
"","S2","","html-keyboard-response","244","384246","0.0-1.0-337.0","0","0","97805","","null","","","null","37","","NaN","","","","","","","","","","","","","",""
"","response","","html-keyboard-response","245","385280","0.0-1.0-338.0-0.0","0","0","97805","","1032","","","68","37","","","1","37","training","adjacent","FG","6","7","L.jpg","P.jpg","0","1","0","",""
"","feedback","","html-keyboard-response","246","386282","0.0-1.0-339.0-0.0","0","0","97805","","null","","","null","37","","","","","","","","","","","","","","","",""
"","time_out","","html-keyboard-response","247","388284","0.0-1.0-341.0-0.0","0","0","97805","","null","","","null","37","","","","","","","","","","","","","","","",""
"","ITI","","html-keyboard-response","248","389286","0.0-1.0-342.0","0","0","97805","","null","","","null","37","","","","","","","","","","","","","","","NaN",""
"","S1","","html-keyboard-response","249","389537","0.0-1.0-344.0","0","0","97805","","null","","","null","38","","","","","","","","","","","","","","","",""
"","ISI","","html-keyboard-response","250","390539","0.0-1.0-345.0","0","0","97805","","null","","","null","38","NaN","","","","","","","","","","","","","","",""
"","S2","","html-keyboard-response","251","390790","0.0-1.0-346.0","0","0","97805","","null","","","null","38","","NaN","","","","","","","","","","","","","",""
"","response","","html-keyboard-response","252","391816","0.0-1.0-347.0-0.0","0","0","97805","","1026","","","68","38","","","1","38","training","adjacent","GF","7","6","P.jpg","L.jpg","0","0","1","",""
"","feedback","","html-keyboard-response","253","392819","0.0-1.0-348.0-0.0","0","0","97805","","null","","","null","38","","","","","","","","","","","","","","","",""
"","ITI","","html-keyboard-response","254","393821","0.0-1.0-351.0","0","0","97805","","null","","","null","38","","","","","","","","","","","","","","","NaN",""
"","S1","","html-keyboard-response","255","394072","0.0-1.0-353.0","0","0","97805","","null","","","null","39","","","","","","","","","","","","","","","",""
"","ISI","","html-keyboard-response","256","395074","0.0-1.0-354.0","0","0","97805","","null","","","null","39","NaN","","","","","","","","","","","","","","",""
"","S2","","html-keyboard-response","257","395325","0.0-1.0-355.0","0","0","97805","","null","","","null","39","","NaN","","","","","","","","","","","","","",""
"","response","","html-keyboard-response","258","396160","0.0-1.0-356.0-0.0","0","0","97805","","833","","","75","39","","","1","39","training","adjacent","CB","3","2","N.jpg","O.jpg","1","0","0","",""
"","feedback","","html-keyboard-response","259","397162","0.0-1.0-357.0-0.0","0","0","97805","","null","","","null","39","","","","","","","","","","","","","","","",""
"","time_out","","html-keyboard-response","260","399163","0.0-1.0-359.0-0.0","0","0","97805","","null","","","null","39","","","","","","","","","","","","","","","",""
"","ITI","","html-keyboard-response","261","400165","0.0-1.0-360.0","0","0","97805","","null","","","null","39","","","","","","","","","","","","","","","NaN",""
"","S1","","html-keyboard-response","262","400417","0.0-1.0-362.0","0","0","97805","","null","","","null","40","","","","","","","","","","","","","","","",""
"","ISI","","html-keyboard-response","263","401432","0.0-1.0-363.0","0","0","97805","","null","","","null","40","NaN","","","","","","","","","","","","","","",""
"","S2","","html-keyboard-response","264","401684","0.0-1.0-364.0","0","0","97805","","null","","","null","40","","NaN","","","","","","","","","","","","","",""
"","response","","html-keyboard-response","265","402432","0.0-1.0-365.0-0.0","0","0","97805","","748","","","75","40","","","1","40","training","adjacent","EF","5","6","M.jpg","L.jpg","1","1","1","",""
"","feedback","","html-keyboard-response","266","403434","0.0-1.0-366.0-0.0","0","0","97805","","null","","","null","40","","","","","","","","","","","","","","","",""
"","ITI","","html-keyboard-response","267","404435","0.0-1.0-369.0","0","0","97805","","null","","","null","40","","","","","","","","","","","","","","","NaN",""
"","S1","","html-keyboard-response","268","404687","0.0-1.0-371.0","0","0","97805","","null","","","null","41","","","","","","","","","","","","","","","",""
"","ISI","","html-keyboard-response","269","405701","0.0-1.0-372.0","0","0","97805","","null","","","null","41","NaN","","","","","","","","","","","","","","",""
"","S2","","html-keyboard-response","270","405953","0.0-1.0-373.0","0","0","97805","","null","","","null","41","","NaN","","","","","","","","","","","","","",""
"","response","","html-keyboard-response","271","406536","0.0-1.0-374.0-0.0","0","0","97805","","582","","","75","41","","","1","41","training","adjacent","BA","2","1","O.jpg","R.jpg","1","0","0","",""
"","feedback","","html-keyboard-response","272","407539","0.0-1.0-375.0-0.0","0","0","97805","","null","","","null","41","","","","","","","","","","","","","","","",""
"","time_out","","html-keyboard-response","273","409540","0.0-1.0-377.0-0.0","0","0","97805","","null","","","null","41","","","","","","","","","","","","","","","",""
"","ITI","","html-keyboard-response","274","410542","0.0-1.0-378.0","0","0","97805","","null","","","null","41","","","","","","","","","","","","","","","NaN",""
"","S1","","html-keyboard-response","275","410793","0.0-1.0-380.0","0","0","97805","","null","","","null","42","","","","","","","","","","","","","","","",""
"","ISI","","html-keyboard-response","276","411795","0.0-1.0-381.0","0","0","97805","","null","","","null","42","NaN","","","","","","","","","","","","","","",""
"","S2","","html-keyboard-response","277","412046","0.0-1.0-382.0","0","0","97805","","null","","","null","42","","NaN","","","","","","","","","","","","","",""
"","response","","html-keyboard-response","278","413408","0.0-1.0-383.0-0.0","0","0","97805","","1360","","","75","42","","","1","42","training","adjacent","CD","3","4","N.jpg","Q.jpg","1","1","1","",""
"","feedback","","html-keyboard-response","279","414410","0.0-1.0-384.0-0.0","0","0","97805","","null","","","null","42","","","","","","","","","","","","","","","",""
"","ITI","","html-keyboard-response","280","415412","0.0-1.0-387.0","0","0","97805","","null","","","null","42","","","","","","","","","","","","","","","NaN",""
"","S1","","html-keyboard-response","281","415664","0.0-1.0-389.0","0","0","97805","","null","","","null","43","","","","","","","","","","","","","","","",""
"","ISI","","html-keyboard-response","282","416676","0.0-1.0-390.0","0","0","97805","","null","","","null","43","NaN","","","","","","","","","","","","","","",""
"","S2","","html-keyboard-response","283","416928","0.0-1.0-391.0","0","0","97805","","null","","","null","43","","NaN","","","","","","","","","","","","","",""
"","response","","html-keyboard-response","284","418088","0.0-1.0-392.0-0.0","0","0","97805","","1159","","","75","43","","","1","43","training","adjacent","CD","3","4","N.jpg","Q.jpg","1","1","1","",""
"","feedback","","html-keyboard-response","285","419090","0.0-1.0-393.0-0.0","0","0","97805","","null","","","null","43","","","","","","","","","","","","","","","",""
"","ITI","","html-keyboard-response","286","420091","0.0-1.0-396.0","0","0","97805","","null","","","null","43","","","","","","","","","","","","","","","NaN",""
"","S1","","html-keyboard-response","287","420343","0.0-1.0-398.0","0","0","97805","","null","","","null","44","","","","","","","","","","","","","","","",""
"","ISI","","html-keyboard-response","288","421344","0.0-1.0-399.0","0","0","97805","","null","","","null","44","NaN","","","","","","","","","","","","","","",""
"","S2","","html-keyboard-response","289","421596","0.0-1.0-400.0","0","0","97805","","null","","","null","44","","NaN","","","","","","","","","","","","","",""
"","response","","html-keyboard-response","290","422432","0.0-1.0-401.0-0.0","0","0","97805","","835","","","68","44","","","1","44","training","adjacent","ED","5","4","M.jpg","Q.jpg","0","0","1","",""
"","feedback","","html-keyboard-response","291","423434","0.0-1.0-402.0-0.0","0","0","97805","","null","","","null","44","","","","","","","","","","","","","","","",""
"","ITI","","html-keyboard-response","292","424436","0.0-1.0-405.0","0","0","97805","","null","","","null","44","","","","","","","","","","","","","","","NaN",""
"","S1","","html-keyboard-response","293","424688","0.0-1.0-407.0","0","0","97805","","null","","","null","45","","","","","","","","","","","","","","","",""
"","ISI","","html-keyboard-response","294","425690","0.0-1.0-408.0","0","0","97805","","null","","","null","45","NaN","","","","","","","","","","","","","","",""
"","S2","","html-keyboard-response","295","425942","0.0-1.0-409.0","0","0","97805","","null","","","null","45","","NaN","","","","","","","","","","","","","",""
"","response","","html-keyboard-response","296","426840","0.0-1.0-410.0-0.0","0","0","97805","","896","","","68","45","","","1","45","training","adjacent","AB","1","2","R.jpg","O.jpg","0","1","0","",""
"","feedback","","html-keyboard-response","297","427842","0.0-1.0-411.0-0.0","0","0","97805","","null","","","null","45","","","","","","","","","","","","","","","",""
"","time_out","","html-keyboard-response","298","429844","0.0-1.0-413.0-0.0","0","0","97805","","null","","","null","45","","","","","","","","","","","","","","","",""
"","ITI","","html-keyboard-response","299","430845","0.0-1.0-414.0","0","0","97805","","null","","","null","45","","","","","","","","","","","","","","","NaN",""
"","S1","","html-keyboard-response","300","431097","0.0-1.0-416.0","0","0","97805","","null","","","null","46","","","","","","","","","","","","","","","",""
"","ISI","","html-keyboard-response","301","432111","0.0-1.0-417.0","0","0","97805","","null","","","null","46","NaN","","","","","","","","","","","","","","",""
"","S2","","html-keyboard-response","302","432362","0.0-1.0-418.0","0","0","97805","","null","","","null","46","","NaN","","","","","","","","","","","","","",""
"","response","","html-keyboard-response","303","433184","0.0-1.0-419.0-0.0","0","0","97805","","820","","","68","46","","","1","46","training","adjacent","DC","4","3","Q.jpg","N.jpg","0","0","1","",""
"","feedback","","html-keyboard-response","304","434186","0.0-1.0-420.0-0.0","0","0","97805","","null","","","null","46","","","","","","","","","","","","","","","",""
"","ITI","","html-keyboard-response","305","435187","0.0-1.0-423.0","0","0","97805","","null","","","null","46","","","","","","","","","","","","","","","NaN",""
"","S1","","html-keyboard-response","306","435438","0.0-1.0-425.0","0","0","97805","","null","","","null","47","","","","","","","","","","","","","","","",""
"","ISI","","html-keyboard-response","307","436441","0.0-1.0-426.0","0","0","97805","","null","","","null","47","NaN","","","","","","","","","","","","","","",""
"","S2","","html-keyboard-response","308","436693","0.0-1.0-427.0","0","0","97805","","null","","","null","47","","NaN","","","","","","","","","","","","","",""
"","response","","html-keyboard-response","309","437600","0.0-1.0-428.0-0.0","0","0","97805","","906","","","75","47","","","1","47","training","adjacent","BA","2","1","O.jpg","R.jpg","1","0","0","",""
"","feedback","","html-keyboard-response","310","438601","0.0-1.0-429.0-0.0","0","0","97805","","null","","","null","47","","","","","","","","","","","","","","","",""
"","time_out","","html-keyboard-response","311","440604","0.0-1.0-431.0-0.0","0","0","97805","","null","","","null","47","","","","","","","","","","","","","","","",""
"","ITI","","html-keyboard-response","312","441605","0.0-1.0-432.0","0","0","97805","","null","","","null","47","","","","","","","","","","","","","","","NaN",""
"","block_over","","html-keyboard-response","313","507528","0.0-1.0-433.0-0.0","0","0","97805","","65921","","","32","47","","","","","","","","","","","","","","","",""
"","S1","","html-keyboard-response","314","507779","0.0-1.0-434.0","0","0","97805","","null","","","null","48","","","","","","","","","","","","","","","",""
"","ISI","","html-keyboard-response","315","508781","0.0-1.0-435.0","0","0","97805","","null","","","null","48","NaN","","","","","","","","","","","","","","",""
"","S2","","html-keyboard-response","316","509032","0.0-1.0-436.0","0","0","97805","","null","","","null","48","","NaN","","","","","","","","","","","","","",""
"","response","","html-keyboard-response","317","510544","0.0-1.0-437.0-0.0","0","0","97805","","1510","","","68","48","","","2","48","training","adjacent","CB","3","2","N.jpg","O.jpg","0","0","1","",""
"","feedback","","html-keyboard-response","318","511546","0.0-1.0-438.0-0.0","0","0","97805","","null","","","null","48","","","","","","","","","","","","","","","",""
"","ITI","","html-keyboard-response","319","512548","0.0-1.0-441.0","0","0","97805","","null","","","null","48","","","","","","","","","","","","","","","NaN",""
"","S1","","html-keyboard-response","320","512800","0.0-1.0-443.0","0","0","97805","","null","","","null","49","","","","","","","","","","","","","","","",""
"","ISI","","html-keyboard-response","321","513802","0.0-1.0-444.0","0","0","97805","","null","","","null","49","NaN","","","","","","","","","","","","","","",""
"","S2","","html-keyboard-response","322","514053","0.0-1.0-445.0","0","0","97805","","null","","","null","49","","NaN","","","","","","","","","","","","","",""
"","response","","html-keyboard-response","323","514392","0.0-1.0-446.0-0.0","0","0","97805","","337","","","68","49","","","2","49","training","adjacent","CB","3","2","N.jpg","O.jpg","0","0","1","",""
"","feedback","","html-keyboard-response","324","515393","0.0-1.0-447.0-0.0","0","0","97805","","null","","","null","49","","","","","","","","","","","","","","","",""
"","ITI","","html-keyboard-response","325","516395","0.0-1.0-450.0","0","0","97805","","null","","","null","49","","","","","","","","","","","","","","","NaN",""
"","S1","","html-keyboard-response","326","516647","0.0-1.0-452.0","0","0","97805","","null","","","null","50","","","","","","","","","","","","","","","",""
"","ISI","","html-keyboard-response","327","517649","0.0-1.0-453.0","0","0","97805","","null","","","null","50","NaN","","","","","","","","","","","","","","",""
"","S2","","html-keyboard-response","328","517901","0.0-1.0-454.0","0","0","97805","","null","","","null","50","","NaN","","","","","","","","","","","","","",""
"","response","","html-keyboard-response","329","518432","0.0-1.0-455.0-0.0","0","0","97805","","530","","","75","50","","","2","50","training","adjacent","CD","3","4","N.jpg","Q.jpg","1","1","1","",""
"","feedback","","html-keyboard-response","330","519434","0.0-1.0-456.0-0.0","0","0","97805","","null","","","null","50","","","","","","","","","","","","","","","",""
"","ITI","","html-keyboard-response","331","520436","0.0-1.0-459.0","0","0","97805","","null","","","null","50","","","","","","","","","","","","","","","NaN",""
"","S1","","html-keyboard-response","332","520688","0.0-1.0-461.0","0","0","97805","","null","","","null","51","","","","","","","","","","","","","","","",""
"","ISI","","html-keyboard-response","333","521689","0.0-1.0-462.0","0","0","97805","","null","","","null","51","NaN","","","","","","","","","","","","","","",""
"","S2","","html-keyboard-response","334","521942","0.0-1.0-463.0","0","0","97805","","null","","","null","51","","NaN","","","","","","","","","","","","","",""
"","response","","html-keyboard-response","335","522664","0.0-1.0-464.0-0.0","0","0","97805","","721","","","75","51","","","2","51","training","adjacent","DE","4","5","Q.jpg","M.jpg","1","1","1","",""
"","feedback","","html-keyboard-response","336","523671","0.0-1.0-465.0-0.0","0","0","97805","","null","","","null","51","","","","","","","","","","","","","","","",""
"","ITI","","html-keyboard-response","337","524672","0.0-1.0-468.0","0","0","97805","","null","","","null","51","","","","","","","","","","","","","","","NaN",""
"","S1","","html-keyboard-response","338","524924","0.0-1.0-470.0","0","0","97805","","null","","","null","52","","","","","","","","","","","","","","","",""
"","ISI","","html-keyboard-response","339","525925","0.0-1.0-471.0","0","0","97805","","null","","","null","52","NaN","","","","","","","","","","","","","","",""
"","S2","","html-keyboard-response","340","526177","0.0-1.0-472.0","0","0","97805","","null","","","null","52","","NaN","","","","","","","","","","","","","",""
"","response","","html-keyboard-response","341","526720","0.0-1.0-473.0-0.0","0","0","97805","","542","","","75","52","","","2","52","training","adjacent","ED","5","4","M.jpg","Q.jpg","1","0","0","",""
"","feedback","","html-keyboard-response","342","527722","0.0-1.0-474.0-0.0","0","0","97805","","null","","","null","52","","","","","","","","","","","","","","","",""
"","time_out","","html-keyboard-response","343","529724","0.0-1.0-476.0-0.0","0","0","97805","","null","","","null","52","","","","","","","","","","","","","","","",""
"","ITI","","html-keyboard-response","344","530726","0.0-1.0-477.0","0","0","97805","","null","","","null","52","","","","","","","","","","","","","","","NaN",""
"","S1","","html-keyboard-response","345","530978","0.0-1.0-479.0","0","0","97805","","null","","","null","53","","","","","","","","","","","","","","","",""
"","ISI","","html-keyboard-response","346","531980","0.0-1.0-480.0","0","0","97805","","null","","","null","53","NaN","","","","","","","","","","","","","","",""
"","S2","","html-keyboard-response","347","532232","0.0-1.0-481.0","0","0","97805","","null","","","null","53","","NaN","","","","","","","","","","","","","",""
"","response","","html-keyboard-response","348","532920","0.0-1.0-482.0-0.0","0","0","97805","","688","","","75","53","","","2","53","training","adjacent","BC","2","3","O.jpg","N.jpg","1","1","1","",""
"","feedback","","html-keyboard-response","349","533922","0.0-1.0-483.0-0.0","0","0","97805","","null","","","null","53","","","","","","","","","","","","","","","",""
"","ITI","","html-keyboard-response","350","534924","0.0-1.0-486.0","0","0","97805","","null","","","null","53","","","","","","","","","","","","","","","NaN",""
"","S1","","html-keyboard-response","351","535175","0.0-1.0-488.0","0","0","97805","","null","","","null","54","","","","","","","","","","","","","","","",""
"","ISI","","html-keyboard-response","352","536177","0.0-1.0-489.0","0","0","97805","","null","","","null","54","NaN","","","","","","","","","","","","","","",""
"","S2","","html-keyboard-response","353","536429","0.0-1.0-490.0","0","0","97805","","null","","","null","54","","NaN","","","","","","","","","","","","","",""
"","response","","html-keyboard-response","354","537096","0.0-1.0-491.0-0.0","0","0","97805","","666","","","75","54","","","2","54","training","adjacent","ED","5","4","M.jpg","Q.jpg","1","0","0","",""
"","feedback","","html-keyboard-response","355","538098","0.0-1.0-492.0-0.0","0","0","97805","","null","","","null","54","","","","","","","","","","","","","","","",""
"","time_out","","html-keyboard-response","356","540100","0.0-1.0-494.0-0.0","0","0","97805","","null","","","null","54","","","","","","","","","","","","","","","",""
"","ITI","","html-keyboard-response","357","541102","0.0-1.0-495.0","0","0","97805","","null","","","null","54","","","","","","","","","","","","","","","NaN",""
"","S1","","html-keyboard-response","358","541354","0.0-1.0-497.0","0","0","97805","","null","","","null","55","","","","","","","","","","","","","","","",""
"","ISI","","html-keyboard-response","359","542355","0.0-1.0-498.0","0","0","97805","","null","","","null","55","NaN","","","","","","","","","","","","","","",""
"","S2","","html-keyboard-response","360","542606","0.0-1.0-499.0","0","0","97805","","null","","","null","55","","NaN","","","","","","","","","","","","","",""
"","response","","html-keyboard-response","361","543136","0.0-1.0-500.0-0.0","0","0","97805","","529","","","75","55","","","2","55","training","adjacent","EF","5","6","M.jpg","L.jpg","1","1","1","",""
"","feedback","","html-keyboard-response","362","544146","0.0-1.0-501.0-0.0","0","0","97805","","null","","","null","55","","","","","","","","","","","","","","","",""
"","ITI","","html-keyboard-response","363","545152","0.0-1.0-504.0","0","0","97805","","null","","","null","55","","","","","","","","","","","","","","","NaN",""
"","S1","","html-keyboard-response","364","545403","0.0-1.0-506.0","0","0","97805","","null","","","null","56","","","","","","","","","","","","","","","",""
"","ISI","","html-keyboard-response","365","546405","0.0-1.0-507.0","0","0","97805","","null","","","null","56","NaN","","","","","","","","","","","","","","",""
"","S2","","html-keyboard-response","366","546656","0.0-1.0-508.0","0","0","97805","","null","","","null","56","","NaN","","","","","","","","","","","","","",""
"","response","","html-keyboard-response","367","547760","0.0-1.0-509.0-0.0","0","0","97805","","1103","","","75","56","","","2","56","training","adjacent","AB","1","2","R.jpg","O.jpg","1","1","1","",""
"","feedback","","html-keyboard-response","368","548762","0.0-1.0-510.0-0.0","0","0","97805","","null","","","null","56","","","","","","","","","","","","","","","",""
"","ITI","","html-keyboard-response","369","549764","0.0-1.0-513.0","0","0","97805","","null","","","null","56","","","","","","","","","","","","","","","NaN",""
"","S1","","html-keyboard-response","370","550015","0.0-1.0-515.0","0","0","97805","","null","","","null","57","","","","","","","","","","","","","","","",""
"","ISI","","html-keyboard-response","371","551017","0.0-1.0-516.0","0","0","97805","","null","","","null","57","NaN","","","","","","","","","","","","","","",""
"","S2","","html-keyboard-response","372","551269","0.0-1.0-517.0","0","0","97805","","null","","","null","57","","NaN","","","","","","","","","","","","","",""
"","response","","html-keyboard-response","373","552240","0.0-1.0-518.0-0.0","0","0","97805","","970","","","68","57","","","2","57","training","adjacent","DE","4","5","Q.jpg","M.jpg","0","1","0","",""
"","feedback","","html-keyboard-response","374","553242","0.0-1.0-519.0-0.0","0","0","97805","","null","","","null","57","","","","","","","","","","","","","","","",""
"","time_out","","html-keyboard-response","375","555243","0.0-1.0-521.0-0.0","0","0","97805","","null","","","null","57","","","","","","","","","","","","","","","",""
"","ITI","","html-keyboard-response","376","556245","0.0-1.0-522.0","0","0","97805","","null","","","null","57","","","","","","","","","","","","","","","NaN",""
"","S1","","html-keyboard-response","377","556496","0.0-1.0-524.0","0","0","97805","","null","","","null","58","","","","","","","","","","","","","","","",""
"","ISI","","html-keyboard-response","378","557503","0.0-1.0-525.0","0","0","97805","","null","","","null","58","NaN","","","","","","","","","","","","","","",""
"","S2","","html-keyboard-response","379","557755","0.0-1.0-526.0","0","0","97805","","null","","","null","58","","NaN","","","","","","","","","","","","","",""
"","response","","html-keyboard-response","380","558672","0.0-1.0-527.0-0.0","0","0","97805","","916","","","68","58","","","2","58","training","adjacent","FE","6","5","L.jpg","M.jpg","0","0","1","",""
"","feedback","","html-keyboard-response","381","559674","0.0-1.0-528.0-0.0","0","0","97805","","null","","","null","58","","","","","","","","","","","","","","","",""
"","ITI","","html-keyboard-response","382","560675","0.0-1.0-531.0","0","0","97805","","null","","","null","58","","","","","","","","","","","","","","","NaN",""
"","S1","","html-keyboard-response","383","560926","0.0-1.0-533.0","0","0","97805","","null","","","null","59","","","","","","","","","","","","","","","",""
"","ISI","","html-keyboard-response","384","561928","0.0-1.0-534.0","0","0","97805","","null","","","null","59","NaN","","","","","","","","","","","","","","",""
"","S2","","html-keyboard-response","385","562179","0.0-1.0-535.0","0","0","97805","","null","","","null","59","","NaN","","","","","","","","","","","","","",""
"","response","","html-keyboard-response","386","562920","0.0-1.0-536.0-0.0","0","0","97805","","740","","","68","59","","","2","59","training","adjacent","BA","2","1","O.jpg","R.jpg","0","0","1","",""
"","feedback","","html-keyboard-response","387","563936","0.0-1.0-537.0-0.0","0","0","97805","","null","","","null","59","","","","","","","","","","","","","","","",""
"","ITI","","html-keyboard-response","388","564938","0.0-1.0-540.0","0","0","97805","","null","","","null","59","","","","","","","","","","","","","","","NaN",""
"","S1","","html-keyboard-response","389","565189","0.0-1.0-542.0","0","0","97805","","null","","","null","60","","","","","","","","","","","","","","","",""
"","ISI","","html-keyboard-response","390","566191","0.0-1.0-543.0","0","0","97805","","null","","","null","60","NaN","","","","","","","","","","","","","","",""
"","S2","","html-keyboard-response","391","566442","0.0-1.0-544.0","0","0","97805","","null","","","null","60","","NaN","","","","","","","","","","","","","",""
"","response","","html-keyboard-response","392","567344","0.0-1.0-545.0-0.0","0","0","97805","","900","","","75","60","","","2","60","training","adjacent","BC","2","3","O.jpg","N.jpg","1","1","1","",""
"","feedback","","html-keyboard-response","393","568345","0.0-1.0-546.0-0.0","0","0","97805","","null","","","null","60","","","","","","","","","","","","","","","",""
"","ITI","","html-keyboard-response","394","569347","0.0-1.0-549.0","0","0","97805","","null","","","null","60","","","","","","","","","","","","","","","NaN",""
"","S1","","html-keyboard-response","395","569599","0.0-1.0-551.0","0","0","97805","","null","","","null","61","","","","","","","","","","","","","","","",""
"","ISI","","html-keyboard-response","396","570600","0.0-1.0-552.0","0","0","97805","","null","","","null","61","NaN","","","","","","","","","","","","","","",""
"","S2","","html-keyboard-response","397","570851","0.0-1.0-553.0","0","0","97805","","null","","","null","61","","NaN","","","","","","","","","","","","","",""
"","response","","html-keyboard-response","398","572096","0.0-1.0-554.0-0.0","0","0","97805","","1243","","","75","61","","","2","61","training","adjacent","EF","5","6","M.jpg","L.jpg","1","1","1","",""
"","feedback","","html-keyboard-response","399","573102","0.0-1.0-555.0-0.0","0","0","97805","","null","","","null","61","","","","","","","","","","","","","","","",""
"","ITI","","html-keyboard-response","400","574104","0.0-1.0-558.0","0","0","97805","","null","","","null","61","","","","","","","","","","","","","","","NaN",""
"","S1","","html-keyboard-response","401","574356","0.0-1.0-560.0","0","0","97805","","null","","","null","62","","","","","","","","","","","","","","","",""
"","ISI","","html-keyboard-response","402","575358","0.0-1.0-561.0","0","0","97805","","null","","","null","62","NaN","","","","","","","","","","","","","","",""
"","S2","","html-keyboard-response","403","575610","0.0-1.0-562.0","0","0","97805","","null","","","null","62","","NaN","","","","","","","","","","","","","",""
"","response","","html-keyboard-response","404","576392","0.0-1.0-563.0-0.0","0","0","97805","","781","","","68","62","","","2","62","training","adjacent","BA","2","1","O.jpg","R.jpg","0","0","1","",""
"","feedback","","html-keyboard-response","405","577394","0.0-1.0-564.0-0.0","0","0","97805","","null","","","null","62","","","","","","","","","","","","","","","",""
"","ITI","","html-keyboard-response","406","578396","0.0-1.0-567.0","0","0","97805","","null","","","null","62","","","","","","","","","","","","","","","NaN",""
"","S1","","html-keyboard-response","407","578648","0.0-1.0-569.0","0","0","97805","","null","","","null","63","","","","","","","","","","","","","","","",""
"","ISI","","html-keyboard-response","408","579650","0.0-1.0-570.0","0","0","97805","","null","","","null","63","NaN","","","","","","","","","","","","","","",""
"","S2","","html-keyboard-response","409","579902","0.0-1.0-571.0","0","0","97805","","null","","","null","63","","NaN","","","","","","","","","","","","","",""
"","response","","html-keyboard-response","410","580432","0.0-1.0-572.0-0.0","0","0","97805","","529","","","68","63","","","2","63","training","adjacent","AB","1","2","R.jpg","O.jpg","0","1","0","",""
"","feedback","","html-keyboard-response","411","581433","0.0-1.0-573.0-0.0","0","0","97805","","null","","","null","63","","","","","","","","","","","","","","","",""
"","time_out","","html-keyboard-response","412","583435","0.0-1.0-575.0-0.0","0","0","97805","","null","","","null","63","","","","","","","","","","","","","","","",""
"","ITI","","html-keyboard-response","413","584438","0.0-1.0-576.0","0","0","97805","","null","","","null","63","","","","","","","","","","","","","","","NaN",""
"","S1","","html-keyboard-response","414","584689","0.0-1.0-578.0","0","0","97805","","null","","","null","64","","","","","","","","","","","","","","","",""
"","ISI","","html-keyboard-response","415","585691","0.0-1.0-579.0","0","0","97805","","null","","","null","64","NaN","","","","","","","","","","","","","","",""
"","S2","","html-keyboard-response","416","585943","0.0-1.0-580.0","0","0","97805","","null","","","null","64","","NaN","","","","","","","","","","","","","",""
"","response","","html-keyboard-response","417","586120","0.0-1.0-581.0-0.0","0","0","97805","","175","","","75","64","","","2","64","training","adjacent","FG","6","7","L.jpg","P.jpg","1","1","1","",""
"","feedback","","html-keyboard-response","418","587122","0.0-1.0-582.0-0.0","0","0","97805","","null","","","null","64","","","","","","","","","","","","","","","",""
"","ITI","","html-keyboard-response","419","588123","0.0-1.0-585.0","0","0","97805","","null","","","null","64","","","","","","","","","","","","","","","NaN",""
"","S1","","html-keyboard-response","420","588375","0.0-1.0-587.0","0","0","97805","","null","","","null","65","","","","","","","","","","","","","","","",""
"","ISI","","html-keyboard-response","421","589377","0.0-1.0-588.0","0","0","97805","","null","","","null","65","NaN","","","","","","","","","","","","","","",""
"","S2","","html-keyboard-response","422","589628","0.0-1.0-589.0","0","0","97805","","null","","","null","65","","NaN","","","","","","","","","","","","","",""
"","response","","html-keyboard-response","423","590520","0.0-1.0-590.0-0.0","0","0","97805","","890","","","68","65","","","2","65","training","adjacent","GF","7","6","P.jpg","L.jpg","0","0","1","",""
"","feedback","","html-keyboard-response","424","591522","0.0-1.0-591.0-0.0","0","0","97805","","null","","","null","65","","","","","","","","","","","","","","","",""
"","ITI","","html-keyboard-response","425","592524","0.0-1.0-594.0","0","0","97805","","null","","","null","65","","","","","","","","","","","","","","","NaN",""
"","S1","","html-keyboard-response","426","592776","0.0-1.0-596.0","0","0","97805","","null","","","null","66","","","","","","","","","","","","","","","",""
"","ISI","","html-keyboard-response","427","593778","0.0-1.0-597.0","0","0","97805","","null","","","null","66","NaN","","","","","","","","","","","","","","",""
"","S2","","html-keyboard-response","428","594029","0.0-1.0-598.0","0","0","97805","","null","","","null","66","","NaN","","","","","","","","","","","","","",""
"","response","","html-keyboard-response","429","595793","0.0-1.0-599.0-0.0","0","0","97805","","null","","","null","66","","","2","66","training","adjacent","GF","7","6","P.jpg","L.jpg","NaN","0","0","",""
"","too_slow_prompt","","html-keyboard-response","430","596795","0.0-1.0-601.0-0.0","1","0","97805","","null","","","null","","","","","","","","","","","","","","","","",""
"","time_out","","html-keyboard-response","431","598798","0.0-1.0-602.0-0.0","0","0","97805","","null","","","null","66","","","","","","","","","","","","","","","",""
"","ITI","","html-keyboard-response","432","599800","0.0-1.0-603.0","0","0","97805","","null","","","null","66","","","","","","","","","","","","","","","NaN",""
"","S1","","html-keyboard-response","433","600052","0.0-1.0-605.0","0","0","97805","","null","","","null","67","","","","","","","","","","","","","","","",""
"","ISI","","html-keyboard-response","434","601054","0.0-1.0-606.0","0","0","97805","","null","","","null","67","NaN","","","","","","","","","","","","","","",""
"","S2","","html-keyboard-response","435","601305","0.0-1.0-607.0","0","0","97805","","null","","","null","67","","NaN","","","","","","","","","","","","","",""
"","response","","html-keyboard-response","436","602296","0.0-1.0-608.0-0.0","0","0","97805","","989","","","68","67","","","2","67","training","adjacent","EF","5","6","M.jpg","L.jpg","0","1","0","",""
"","feedback","","html-keyboard-response","437","603298","0.0-1.0-609.0-0.0","0","0","97805","","null","","","null","67","","","","","","","","","","","","","","","",""
"","time_out","","html-keyboard-response","438","605299","0.0-1.0-611.0-0.0","0","0","97805","","null","","","null","67","","","","","","","","","","","","","","","",""
"","ITI","","html-keyboard-response","439","606301","0.0-1.0-612.0","0","0","97805","","null","","","null","67","","","","","","","","","","","","","","","NaN",""
"","S1","","html-keyboard-response","440","606553","0.0-1.0-614.0","0","0","97805","","null","","","null","68","","","","","","","","","","","","","","","",""
"","ISI","","html-keyboard-response","441","607554","0.0-1.0-615.0","0","0","97805","","null","","","null","68","NaN","","","","","","","","","","","","","","",""
"","S2","","html-keyboard-response","442","607806","0.0-1.0-616.0","0","0","97805","","null","","","null","68","","NaN","","","","","","","","","","","","","",""
"","response","","html-keyboard-response","443","608552","0.0-1.0-617.0-0.0","0","0","97805","","745","","","68","68","","","2","68","training","adjacent","FE","6","5","L.jpg","M.jpg","0","0","1","",""
"","feedback","","html-keyboard-response","444","609554","0.0-1.0-618.0-0.0","0","0","97805","","null","","","null","68","","","","","","","","","","","","","","","",""
"","ITI","","html-keyboard-response","445","610556","0.0-1.0-621.0","0","0","97805","","null","","","null","68","","","","","","","","","","","","","","","NaN",""
"","S1","","html-keyboard-response","446","610808","0.0-1.0-623.0","0","0","97805","","null","","","null","69","","","","","","","","","","","","","","","",""
"","ISI","","html-keyboard-response","447","611809","0.0-1.0-624.0","0","0","97805","","null","","","null","69","NaN","","","","","","","","","","","","","","",""
"","S2","","html-keyboard-response","448","612061","0.0-1.0-625.0","0","0","97805","","null","","","null","69","","NaN","","","","","","","","","","","","","",""
"","response","","html-keyboard-response","449","612920","0.0-1.0-626.0-0.0","0","0","97805","","857","","","68","69","","","2","69","training","adjacent","DC","4","3","Q.jpg","N.jpg","0","0","1","",""
"","feedback","","html-keyboard-response","450","613921","0.0-1.0-627.0-0.0","0","0","97805","","null","","","null","69","","","","","","","","","","","","","","","",""
"","ITI","","html-keyboard-response","451","614922","0.0-1.0-630.0","0","0","97805","","null","","","null","69","","","","","","","","","","","","","","","NaN",""
"","S1","","html-keyboard-response","452","615174","0.0-1.0-632.0","0","0","97805","","null","","","null","70","","","","","","","","","","","","","","","",""
"","ISI","","html-keyboard-response","453","616176","0.0-1.0-633.0","0","0","97805","","null","","","null","70","NaN","","","","","","","","","","","","","","",""
"","S2","","html-keyboard-response","454","616428","0.0-1.0-634.0","0","0","97805","","null","","","null","70","","NaN","","","","","","","","","","","","","",""
"","response","","html-keyboard-response","455","617288","0.0-1.0-635.0-0.0","0","0","97805","","859","","","68","70","","","2","70","training","adjacent","DC","4","3","Q.jpg","N.jpg","0","0","1","",""
"","feedback","","html-keyboard-response","456","618290","0.0-1.0-636.0-0.0","0","0","97805","","null","","","null","70","","","","","","","","","","","","","","","",""
"","ITI","","html-keyboard-response","457","619291","0.0-1.0-639.0","0","0","97805","","null","","","null","70","","","","","","","","","","","","","","","NaN",""
"","S1","","html-keyboard-response","458","619542","0.0-1.0-641.0","0","0","97805","","null","","","null","71","","","","","","","","","","","","","","","",""
"","ISI","","html-keyboard-response","459","620544","0.0-1.0-642.0","0","0","97805","","null","","","null","71","NaN","","","","","","","","","","","","","","",""
"","S2","","html-keyboard-response","460","620795","0.0-1.0-643.0","0","0","97805","","null","","","null","71","","NaN","","","","","","","","","","","","","",""
"","response","","html-keyboard-response","461","621016","0.0-1.0-644.0-0.0","0","0","97805","","219","","","68","71","","","2","71","training","adjacent","DC","4","3","Q.jpg","N.jpg","0","0","1","",""
"","feedback","","html-keyboard-response","462","622019","0.0-1.0-645.0-0.0","0","0","97805","","null","","","null","71","","","","","","","","","","","","","","","",""
"","ITI","","html-keyboard-response","463","623021","0.0-1.0-648.0","0","0","97805","","null","","","null","71","","","","","","","","","","","","","","","NaN",""
"","S1","","html-keyboard-response","464","623272","0.0-1.0-650.0","0","0","97805","","null","","","null","72","","","","","","","","","","","","","","","",""
"","ISI","","html-keyboard-response","465","624274","0.0-1.0-651.0","0","0","97805","","null","","","null","72","NaN","","","","","","","","","","","","","","",""
"","S2","","html-keyboard-response","466","624526","0.0-1.0-652.0","0","0","97805","","null","","","null","72","","NaN","","","","","","","","","","","","","",""
"","response","","html-keyboard-response","467","625696","0.0-1.0-653.0-0.0","0","0","97805","","1169","","","75","72","","","2","72","training","adjacent","ED","5","4","M.jpg","Q.jpg","1","0","0","",""
"","feedback","","html-keyboard-response","468","626698","0.0-1.0-654.0-0.0","0","0","97805","","null","","","null","72","","","","","","","","","","","","","","","",""
"","time_out","","html-keyboard-response","469","628700","0.0-1.0-656.0-0.0","0","0","97805","","null","","","null","72","","","","","","","","","","","","","","","",""
"","ITI","","html-keyboard-response","470","629709","0.0-1.0-657.0","0","0","97805","","null","","","null","72","","","","","","","","","","","","","","","NaN",""
"","S1","","html-keyboard-response","471","629961","0.0-1.0-659.0","0","0","97805","","null","","","null","73","","","","","","","","","","","","","","","",""
"","ISI","","html-keyboard-response","472","630962","0.0-1.0-660.0","0","0","97805","","null","","","null","73","NaN","","","","","","","","","","","","","","",""
"","S2","","html-keyboard-response","473","631214","0.0-1.0-661.0","0","0","97805","","null","","","null","73","","NaN","","","","","","","","","","","","","",""
"","response","","html-keyboard-response","474","631824","0.0-1.0-662.0-0.0","0","0","97805","","609","","","75","73","","","2","73","training","adjacent","ED","5","4","M.jpg","Q.jpg","1","0","0","",""
"","feedback","","html-keyboard-response","475","632826","0.0-1.0-663.0-0.0","0","0","97805","","null","","","null","73","","","","","","","","","","","","","","","",""
"","time_out","","html-keyboard-response","476","634828","0.0-1.0-665.0-0.0","0","0","97805","","null","","","null","73","","","","","","","","","","","","","","","",""
"","ITI","","html-keyboard-response","477","635829","0.0-1.0-666.0","0","0","97805","","null","","","null","73","","","","","","","","","","","","","","","NaN",""
"","S1","","html-keyboard-response","478","636082","0.0-1.0-668.0","0","0","97805","","null","","","null","74","","","","","","","","","","","","","","","",""
"","ISI","","html-keyboard-response","479","637084","0.0-1.0-669.0","0","0","97805","","null","","","null","74","NaN","","","","","","","","","","","","","","",""
"","S2","","html-keyboard-response","480","637336","0.0-1.0-670.0","0","0","97805","","null","","","null","74","","NaN","","","","","","","","","","","","","",""
"","response","","html-keyboard-response","481","638056","0.0-1.0-671.0-0.0","0","0","97805","","720","","","75","74","","","2","74","training","adjacent","FG","6","7","L.jpg","P.jpg","1","1","1","",""
"","feedback","","html-keyboard-response","482","639058","0.0-1.0-672.0-0.0","0","0","97805","","null","","","null","74","","","","","","","","","","","","","","","",""
"","ITI","","html-keyboard-response","483","640059","0.0-1.0-675.0","0","0","97805","","null","","","null","74","","","","","","","","","","","","","","","NaN",""
"","S1","","html-keyboard-response","484","640311","0.0-1.0-677.0","0","0","97805","","null","","","null","75","","","","","","","","","","","","","","","",""
"","ISI","","html-keyboard-response","485","641313","0.0-1.0-678.0","0","0","97805","","null","","","null","75","NaN","","","","","","","","","","","","","","",""
"","S2","","html-keyboard-response","486","641564","0.0-1.0-679.0","0","0","97805","","null","","","null","75","","NaN","","","","","","","","","","","","","",""
"","response","","html-keyboard-response","487","642536","0.0-1.0-680.0-0.0","0","0","97805","","970","","","75","75","","","2","75","training","adjacent","DE","4","5","Q.jpg","M.jpg","1","1","1","",""
"","feedback","","html-keyboard-response","488","643539","0.0-1.0-681.0-0.0","0","0","97805","","null","","","null","75","","","","","","","","","","","","","","","",""
"","ITI","","html-keyboard-response","489","644540","0.0-1.0-684.0","0","0","97805","","null","","","null","75","","","","","","","","","","","","","","","NaN",""
"","S1","","html-keyboard-response","490","644793","0.0-1.0-686.0","0","0","97805","","null","","","null","76","","","","","","","","","","","","","","","",""
"","ISI","","html-keyboard-response","491","645794","0.0-1.0-687.0","0","0","97805","","null","","","null","76","NaN","","","","","","","","","","","","","","",""
"","S2","","html-keyboard-response","492","646046","0.0-1.0-688.0","0","0","97805","","null","","","null","76","","NaN","","","","","","","","","","","","","",""
"","response","","html-keyboard-response","493","646648","0.0-1.0-689.0-0.0","0","0","97805","","601","","","75","76","","","2","76","training","adjacent","FG","6","7","L.jpg","P.jpg","1","1","1","",""
"","feedback","","html-keyboard-response","494","647649","0.0-1.0-690.0-0.0","0","0","97805","","null","","","null","76","","","","","","","","","","","","","","","",""
"","ITI","","html-keyboard-response","495","648651","0.0-1.0-693.0","0","0","97805","","null","","","null","76","","","","","","","","","","","","","","","NaN",""
"","S1","","html-keyboard-response","496","648902","0.0-1.0-695.0","0","0","97805","","null","","","null","77","","","","","","","","","","","","","","","",""
"","ISI","","html-keyboard-response","497","649904","0.0-1.0-696.0","0","0","97805","","null","","","null","77","NaN","","","","","","","","","","","","","","",""
"","S2","","html-keyboard-response","498","650156","0.0-1.0-697.0","0","0","97805","","null","","","null","77","","NaN","","","","","","","","","","","","","",""
"","response","","html-keyboard-response","499","650424","0.0-1.0-698.0-0.0","0","0","97805","","268","","","75","77","","","2","77","training","adjacent","CD","3","4","N.jpg","Q.jpg","1","1","1","",""
"","feedback","","html-keyboard-response","500","651426","0.0-1.0-699.0-0.0","0","0","97805","","null","","","null","77","","","","","","","","","","","","","","","",""
"","ITI","","html-keyboard-response","501","652428","0.0-1.0-702.0","0","0","97805","","null","","","null","77","","","","","","","","","","","","","","","NaN",""
"","S1","","html-keyboard-response","502","652680","0.0-1.0-704.0","0","0","97805","","null","","","null","78","","","","","","","","","","","","","","","",""
"","ISI","","html-keyboard-response","503","653682","0.0-1.0-705.0","0","0","97805","","null","","","null","78","NaN","","","","","","","","","","","","","","",""
"","S2","","html-keyboard-response","504","653933","0.0-1.0-706.0","0","0","97805","","null","","","null","78","","NaN","","","","","","","","","","","","","",""
"","response","","html-keyboard-response","505","654384","0.0-1.0-707.0-0.0","0","0","97805","","451","","","75","78","","","2","78","training","adjacent","FG","6","7","L.jpg","P.jpg","1","1","1","",""
"","feedback","","html-keyboard-response","506","655387","0.0-1.0-708.0-0.0","0","0","97805","","null","","","null","78","","","","","","","","","","","","","","","",""
"","ITI","","html-keyboard-response","507","656390","0.0-1.0-711.0","0","0","97805","","null","","","null","78","","","","","","","","","","","","","","","NaN",""
"","S1","","html-keyboard-response","508","656641","0.0-1.0-713.0","0","0","97805","","null","","","null","79","","","","","","","","","","","","","","","",""
"","ISI","","html-keyboard-response","509","657643","0.0-1.0-714.0","0","0","97805","","null","","","null","79","NaN","","","","","","","","","","","","","","",""
"","S2","","html-keyboard-response","510","657895","0.0-1.0-715.0","0","0","97805","","null","","","null","79","","NaN","","","","","","","","","","","","","",""
"","response","","html-keyboard-response","511","658496","0.0-1.0-716.0-0.0","0","0","97805","","600","","","68","79","","","2","79","training","adjacent","GF","7","6","P.jpg","L.jpg","0","0","1","",""
"","feedback","","html-keyboard-response","512","659498","0.0-1.0-717.0-0.0","0","0","97805","","null","","","null","79","","","","","","","","","","","","","","","",""
"","ITI","","html-keyboard-response","513","660501","0.0-1.0-720.0","0","0","97805","","null","","","null","79","","","","","","","","","","","","","","","NaN",""
"","S1","","html-keyboard-response","514","660753","0.0-1.0-722.0","0","0","97805","","null","","","null","80","","","","","","","","","","","","","","","",""
"","ISI","","html-keyboard-response","515","661754","0.0-1.0-723.0","0","0","97805","","null","","","null","80","NaN","","","","","","","","","","","","","","",""
"","S2","","html-keyboard-response","516","662006","0.0-1.0-724.0","0","0","97805","","null","","","null","80","","NaN","","","","","","","","","","","","","",""
"","response","","html-keyboard-response","517","663184","0.0-1.0-725.0-0.0","0","0","97805","","1177","","","68","80","","","2","80","training","adjacent","CB","3","2","N.jpg","O.jpg","0","0","1","",""
"","feedback","","html-keyboard-response","518","664200","0.0-1.0-726.0-0.0","0","0","97805","","null","","","null","80","","","","","","","","","","","","","","","",""
"","ITI","","html-keyboard-response","519","665201","0.0-1.0-729.0","0","0","97805","","null","","","null","80","","","","","","","","","","","","","","","NaN",""
"","S1","","html-keyboard-response","520","665453","0.0-1.0-731.0","0","0","97805","","null","","","null","81","","","","","","","","","","","","","","","",""
"","ISI","","html-keyboard-response","521","666455","0.0-1.0-732.0","0","0","97805","","null","","","null","81","NaN","","","","","","","","","","","","","","",""
"","S2","","html-keyboard-response","522","666706","0.0-1.0-733.0","0","0","97805","","null","","","null","81","","NaN","","","","","","","","","","","","","",""
"","response","","html-keyboard-response","523","667968","0.0-1.0-734.0-0.0","0","0","97805","","1260","","","68","81","","","2","81","training","adjacent","FE","6","5","L.jpg","M.jpg","0","0","1","",""
"","feedback","","html-keyboard-response","524","668970","0.0-1.0-735.0-0.0","0","0","97805","","null","","","null","81","","","","","","","","","","","","","","","",""
"","ITI","","html-keyboard-response","525","669971","0.0-1.0-738.0","0","0","97805","","null","","","null","81","","","","","","","","","","","","","","","NaN",""
"","S1","","html-keyboard-response","526","670224","0.0-1.0-740.0","0","0","97805","","null","","","null","82","","","","","","","","","","","","","","","",""
"","ISI","","html-keyboard-response","527","671225","0.0-1.0-741.0","0","0","97805","","null","","","null","82","NaN","","","","","","","","","","","","","","",""
"","S2","","html-keyboard-response","528","671478","0.0-1.0-742.0","0","0","97805","","null","","","null","82","","NaN","","","","","","","","","","","","","",""
"","response","","html-keyboard-response","529","672208","0.0-1.0-743.0-0.0","0","0","97805","","729","","","75","82","","","2","82","training","adjacent","AB","1","2","R.jpg","O.jpg","1","1","1","",""
"","feedback","","html-keyboard-response","530","673209","0.0-1.0-744.0-0.0","0","0","97805","","null","","","null","82","","","","","","","","","","","","","","","",""
"","ITI","","html-keyboard-response","531","674212","0.0-1.0-747.0","0","0","97805","","null","","","null","82","","","","","","","","","","","","","","","NaN",""
"","S1","","html-keyboard-response","532","674464","0.0-1.0-749.0","0","0","97805","","null","","","null","83","","","","","","","","","","","","","","","",""
"","ISI","","html-keyboard-response","533","675465","0.0-1.0-750.0","0","0","97805","","null","","","null","83","NaN","","","","","","","","","","","","","","",""
"","S2","","html-keyboard-response","534","675717","0.0-1.0-751.0","0","0","97805","","null","","","null","83","","NaN","","","","","","","","","","","","","",""
"","response","","html-keyboard-response","535","676344","0.0-1.0-752.0-0.0","0","0","97805","","626","","","68","83","","","2","83","training","adjacent","BA","2","1","O.jpg","R.jpg","0","0","1","",""
"","feedback","","html-keyboard-response","536","677346","0.0-1.0-753.0-0.0","0","0","97805","","null","","","null","83","","","","","","","","","","","","","","","",""
"","ITI","","html-keyboard-response","537","678348","0.0-1.0-756.0","0","0","97805","","null","","","null","83","","","","","","","","","","","","","","","NaN",""
"","S1","","html-keyboard-response","538","678600","0.0-1.0-758.0","0","0","97805","","null","","","null","84","","","","","","","","","","","","","","","",""
"","ISI","","html-keyboard-response","539","679602","0.0-1.0-759.0","0","0","97805","","null","","","null","84","NaN","","","","","","","","","","","","","","",""
"","S2","","html-keyboard-response","540","679854","0.0-1.0-760.0","0","0","97805","","null","","","null","84","","NaN","","","","","","","","","","","","","",""
"","response","","html-keyboard-response","541","680960","0.0-1.0-761.0-0.0","0","0","97805","","1104","","","75","84","","","2","84","training","adjacent","AB","1","2","R.jpg","O.jpg","1","1","1","",""
"","feedback","","html-keyboard-response","542","681961","0.0-1.0-762.0-0.0","0","0","97805","","null","","","null","84","","","","","","","","","","","","","","","",""
"","ITI","","html-keyboard-response","543","682963","0.0-1.0-765.0","0","0","97805","","null","","","null","84","","","","","","","","","","","","","","","NaN",""
"","S1","","html-keyboard-response","544","683215","0.0-1.0-767.0","0","0","97805","","null","","","null","85","","","","","","","","","","","","","","","",""
"","ISI","","html-keyboard-response","545","684216","0.0-1.0-768.0","0","0","97805","","null","","","null","85","NaN","","","","","","","","","","","","","","",""
"","S2","","html-keyboard-response","546","684468","0.0-1.0-769.0","0","0","97805","","null","","","null","85","","NaN","","","","","","","","","","","","","",""
"","response","","html-keyboard-response","547","685328","0.0-1.0-770.0-0.0","0","0","97805","","859","","","75","85","","","2","85","training","adjacent","BC","2","3","O.jpg","N.jpg","1","1","1","",""
"","feedback","","html-keyboard-response","548","686329","0.0-1.0-771.0-0.0","0","0","97805","","null","","","null","85","","","","","","","","","","","","","","","",""
"","ITI","","html-keyboard-response","549","687331","0.0-1.0-774.0","0","0","97805","","null","","","null","85","","","","","","","","","","","","","","","NaN",""
"","S1","","html-keyboard-response","550","687583","0.0-1.0-776.0","0","0","97805","","null","","","null","86","","","","","","","","","","","","","","","",""
"","ISI","","html-keyboard-response","551","688585","0.0-1.0-777.0","0","0","97805","","null","","","null","86","NaN","","","","","","","","","","","","","","",""
"","S2","","html-keyboard-response","552","688837","0.0-1.0-778.0","0","0","97805","","null","","","null","86","","NaN","","","","","","","","","","","","","",""
"","response","","html-keyboard-response","553","689904","0.0-1.0-779.0-0.0","0","0","97805","","1066","","","75","86","","","2","86","training","adjacent","EF","5","6","M.jpg","L.jpg","1","1","1","",""
"","feedback","","html-keyboard-response","554","690906","0.0-1.0-780.0-0.0","0","0","97805","","null","","","null","86","","","","","","","","","","","","","","","",""
"","ITI","","html-keyboard-response","555","691909","0.0-1.0-783.0","0","0","97805","","null","","","null","86","","","","","","","","","","","","","","","NaN",""
"","S1","","html-keyboard-response","556","692161","0.0-1.0-785.0","0","0","97805","","null","","","null","87","","","","","","","","","","","","","","","",""
"","ISI","","html-keyboard-response","557","693162","0.0-1.0-786.0","0","0","97805","","null","","","null","87","NaN","","","","","","","","","","","","","","",""
"","S2","","html-keyboard-response","558","693415","0.0-1.0-787.0","0","0","97805","","null","","","null","87","","NaN","","","","","","","","","","","","","",""
"","response","","html-keyboard-response","559","694432","0.0-1.0-788.0-0.0","0","0","97805","","1016","","","75","87","","","2","87","training","adjacent","DE","4","5","Q.jpg","M.jpg","1","1","1","",""
"","feedback","","html-keyboard-response","560","695434","0.0-1.0-789.0-0.0","0","0","97805","","null","","","null","87","","","","","","","","","","","","","","","",""
"","ITI","","html-keyboard-response","561","696436","0.0-1.0-792.0","0","0","97805","","null","","","null","87","","","","","","","","","","","","","","","NaN",""
"","S1","","html-keyboard-response","562","696689","0.0-1.0-794.0","0","0","97805","","null","","","null","88","","","","","","","","","","","","","","","",""
"","ISI","","html-keyboard-response","563","697692","0.0-1.0-795.0","0","0","97805","","null","","","null","88","NaN","","","","","","","","","","","","","","",""
"","S2","","html-keyboard-response","564","697944","0.0-1.0-796.0","0","0","97805","","null","","","null","88","","NaN","","","","","","","","","","","","","",""
"","response","","html-keyboard-response","565","699104","0.0-1.0-797.0-0.0","0","0","97805","","1160","","","75","88","","","2","88","training","adjacent","BC","2","3","O.jpg","N.jpg","1","1","1","",""
"","feedback","","html-keyboard-response","566","700106","0.0-1.0-798.0-0.0","0","0","97805","","null","","","null","88","","","","","","","","","","","","","","","",""
"","ITI","","html-keyboard-response","567","701108","0.0-1.0-801.0","0","0","97805","","null","","","null","88","","","","","","","","","","","","","","","NaN",""
"","S1","","html-keyboard-response","568","701359","0.0-1.0-803.0","0","0","97805","","null","","","null","89","","","","","","","","","","","","","","","",""
"","ISI","","html-keyboard-response","569","702361","0.0-1.0-804.0","0","0","97805","","null","","","null","89","NaN","","","","","","","","","","","","","","",""
"","S2","","html-keyboard-response","570","702612","0.0-1.0-805.0","0","0","97805","","null","","","null","89","","NaN","","","","","","","","","","","","","",""
"","response","","html-keyboard-response","571","703560","0.0-1.0-806.0-0.0","0","0","97805","","947","","","68","89","","","2","89","training","adjacent","FE","6","5","L.jpg","M.jpg","0","0","1","",""
"","feedback","","html-keyboard-response","572","704562","0.0-1.0-807.0-0.0","0","0","97805","","null","","","null","89","","","","","","","","","","","","","","","",""
"","ITI","","html-keyboard-response","573","705564","0.0-1.0-810.0","0","0","97805","","null","","","null","89","","","","","","","","","","","","","","","NaN",""
"","S1","","html-keyboard-response","574","705816","0.0-1.0-812.0","0","0","97805","","null","","","null","90","","","","","","","","","","","","","","","",""
"","ISI","","html-keyboard-response","575","706818","0.0-1.0-813.0","0","0","97805","","null","","","null","90","NaN","","","","","","","","","","","","","","",""
"","S2","","html-keyboard-response","576","707069","0.0-1.0-814.0","0","0","97805","","null","","","null","90","","NaN","","","","","","","","","","","","","",""
"","response","","html-keyboard-response","577","707648","0.0-1.0-815.0-0.0","0","0","97805","","577","","","68","90","","","2","90","training","adjacent","BA","2","1","O.jpg","R.jpg","0","0","1","",""
"","feedback","","html-keyboard-response","578","708650","0.0-1.0-816.0-0.0","0","0","97805","","null","","","null","90","","","","","","","","","","","","","","","",""
"","ITI","","html-keyboard-response","579","709652","0.0-1.0-819.0","0","0","97805","","null","","","null","90","","","","","","","","","","","","","","","NaN",""
"","S1","","html-keyboard-response","580","709905","0.0-1.0-821.0","0","0","97805","","null","","","null","91","","","","","","","","","","","","","","","",""
