"success","ttype","start_time","trial_type","trial_index","time_elapsed","internal_node_id","warning","missed_checkup","PID","view_history","rt","responses","repeat_instructions","key_press","index","keypress_isi","keypress_S2","block","trial_num","phase","group_type","pair_type","S1_stim","S2_stim","S1_img","S2_img","S1_chosen","S1_higher","accuracy","keypress_iti","total_bonus_tally"
"true","full_screen","d08012022hr1344","fullscreen","0","156494","0.0-0.0","0","0","75910","","","","","","","","","","","","","","","","","","","","","",""
"","instructions","","instructions","1","244440","0.0-1.0-0.0-0.0","0","0","75910","[{""page_index"":0,""viewing_time"":11325},{""page_index"":1,""viewing_time"":42144},{""page_index"":2,""viewing_time"":28487},{""page_index"":3,""viewing_time"":5984}]","87941","","","","","","","","","","","","","","","","","","","",""
"","comprehension_check","","survey-multi-choice","2","273312","0.0-1.0-0.0-1.0","0","0","75910","","28863","{""Q0"":""True"",""Q1"":""D"",""Q2"":""When you see the prompt 'MAKE A CHOICE' after the second image was presented"",""Q3"":""Green mark"",""Q4"":""either D or K""}","0","","","","","","","","","","","","","","","","","",""
"","start_exp","","html-keyboard-response","3","281438","0.0-1.0-1.0","0","0","75910","","8122","","","32","","","","","","","","","","","","","","","","",""
"","S1","","html-keyboard-response","4","281692","0.0-1.0-2.0","0","0","75910","","null","","","null","0","","","","","","","","","","","","","","","",""
"","ISI","","html-keyboard-response","5","283708","0.0-1.0-3.0","0","0","75910","","566","","","68","0","d","","","","","","","","","","","","","","",""
"","S2","","html-keyboard-response","6","283971","0.0-1.0-4.0","0","0","75910","","null","","","null","0","","NaN","","","","","","","","","","","","","",""
"","response","","html-keyboard-response","7","284531","0.0-1.0-5.0","0","0","75910","","555","","","75","0","","","1","0","training","adjacent","FE","6","5","M.jpg","N.jpg","0","0","1","",""
"","feedback","","html-keyboard-response","8","285545","0.0-1.0-6.0-0.0","0","0","75910","","null","","","null","0","","","","","","","","","","","","","","","",""
"","ITI","","html-keyboard-response","9","286553","0.0-1.0-9.0","0","0","75910","","null","","","null","0","","","","","","","","","","","","","","","NaN",""
"","S1","","html-keyboard-response","10","286816","0.0-1.0-11.0","0","0","75910","","null","","","null","1","","","","","","","","","","","","","","","",""
"","ISI","","html-keyboard-response","11","288826","0.0-1.0-12.0","0","0","75910","","null","","","null","1","NaN","","","","","","","","","","","","","","",""
"","S2","","html-keyboard-response","12","289086","0.0-1.0-13.0","0","0","75910","","null","","","null","1","","NaN","","","","","","","","","","","","","",""
"","response","","html-keyboard-response","13","289574","0.0-1.0-14.0","0","0","75910","","486","","","75","1","","","1","1","training","adjacent","EF","5","6","N.jpg","M.jpg","0","1","0","",""
"","feedback","","html-keyboard-response","14","290587","0.0-1.0-15.0-0.0","0","0","75910","","null","","","null","1","","","","","","","","","","","","","","","",""
"","time_out","","html-keyboard-response","15","292606","0.0-1.0-17.0-0.0","0","0","75910","","null","","","null","1","","","","","","","","","","","","","","","",""
"","ITI","","html-keyboard-response","16","293622","0.0-1.0-18.0","0","0","75910","","null","","","null","1","","","","","","","","","","","","","","","NaN",""
"","S1","","html-keyboard-response","17","293885","0.0-1.0-20.0","0","0","75910","","null","","","null","2","","","","","","","","","","","","","","","",""
"","ISI","","html-keyboard-response","18","295897","0.0-1.0-21.0","0","0","75910","","null","","","null","2","NaN","","","","","","","","","","","","","","",""
"","S2","","html-keyboard-response","19","296160","0.0-1.0-22.0","0","0","75910","","null","","","null","2","","NaN","","","","","","","","","","","","","",""
"","response","","html-keyboard-response","20","296623","0.0-1.0-23.0","0","0","75910","","460","","","68","2","","","1","2","training","adjacent","DC","4","3","P.jpg","O.jpg","1","0","0","",""
"","feedback","","html-keyboard-response","21","297642","0.0-1.0-24.0-0.0","0","0","75910","","null","","","null","2","","","","","","","","","","","","","","","",""
"","time_out","","html-keyboard-response","22","299660","0.0-1.0-26.0-0.0","0","0","75910","","null","","","null","2","","","","","","","","","","","","","","","",""
"","ITI","","html-keyboard-response","23","300666","0.0-1.0-27.0","0","0","75910","","null","","","null","2","","","","","","","","","","","","","","","NaN",""
"","S1","","html-keyboard-response","24","300921","0.0-1.0-29.0","0","0","75910","","null","","","null","3","","","","","","","","","","","","","","","",""
"","ISI","","html-keyboard-response","25","302925","0.0-1.0-30.0","0","0","75910","","null","","","null","3","NaN","","","","","","","","","","","","","","",""
"","S2","","html-keyboard-response","26","303181","0.0-1.0-31.0","0","0","75910","","null","","","null","3","","NaN","","","","","","","","","","","","","",""
"","response","","html-keyboard-response","27","303564","0.0-1.0-32.0","0","0","75910","","379","","","75","3","","","1","3","training","adjacent","ED","5","4","N.jpg","P.jpg","0","0","1","",""
"","feedback","","html-keyboard-response","28","304580","0.0-1.0-33.0-0.0","0","0","75910","","null","","","null","3","","","","","","","","","","","","","","","",""
"","ITI","","html-keyboard-response","29","305589","0.0-1.0-36.0","0","0","75910","","null","","","null","3","","","","","","","","","","","","","","","NaN",""
"","S1","","html-keyboard-response","30","305846","0.0-1.0-38.0","0","0","75910","","null","","","null","4","","","","","","","","","","","","","","","",""
"","ISI","","html-keyboard-response","31","307859","0.0-1.0-39.0","0","0","75910","","null","","","null","4","NaN","","","","","","","","","","","","","","",""
"","S2","","html-keyboard-response","32","308114","0.0-1.0-40.0","0","0","75910","","null","","","null","4","","NaN","","","","","","","","","","","","","",""
"","response","","html-keyboard-response","33","308491","0.0-1.0-41.0","0","0","75910","","374","","","68","4","","","1","4","training","adjacent","DE","4","5","P.jpg","N.jpg","1","1","1","",""
"","feedback","","html-keyboard-response","34","309507","0.0-1.0-42.0-0.0","0","0","75910","","null","","","null","4","","","","","","","","","","","","","","","",""
"","ITI","","html-keyboard-response","35","310519","0.0-1.0-45.0","0","0","75910","","null","","","null","4","","","","","","","","","","","","","","","NaN",""
"","S1","","html-keyboard-response","36","310777","0.0-1.0-47.0","0","0","75910","","null","","","null","5","","","","","","","","","","","","","","","",""
"","ISI","","html-keyboard-response","37","312789","0.0-1.0-48.0","0","0","75910","","null","","","null","5","NaN","","","","","","","","","","","","","","",""
"","S2","","html-keyboard-response","38","313047","0.0-1.0-49.0","0","0","75910","","null","","","null","5","","NaN","","","","","","","","","","","","","",""
"","response","","html-keyboard-response","39","313423","0.0-1.0-50.0","0","0","75910","","372","","","75","5","","","1","5","training","adjacent","CD","3","4","O.jpg","P.jpg","0","1","0","",""
"","feedback","","html-keyboard-response","40","314435","0.0-1.0-51.0-0.0","0","0","75910","","null","","","null","5","","","","","","","","","","","","","","","",""
"","time_out","","html-keyboard-response","41","316444","0.0-1.0-53.0-0.0","0","0","75910","","null","","","null","5","","","","","","","","","","","","","","","",""
"","ITI","","html-keyboard-response","42","317463","0.0-1.0-54.0","0","0","75910","","null","","","null","5","","","","","","","","","","","","","","","NaN",""
"","S1","","html-keyboard-response","43","317726","0.0-1.0-56.0","0","0","75910","","null","","","null","6","","","","","","","","","","","","","","","",""
"","ISI","","html-keyboard-response","44","319735","0.0-1.0-57.0","0","0","75910","","null","","","null","6","NaN","","","","","","","","","","","","","","",""
"","S2","","html-keyboard-response","45","319997","0.0-1.0-58.0","0","0","75910","","null","","","null","6","","NaN","","","","","","","","","","","","","",""
"","response","","html-keyboard-response","46","320580","0.0-1.0-59.0","0","0","75910","","579","","","68","6","","","1","6","training","adjacent","AB","1","2","Q.jpg","L.jpg","1","1","1","",""
"","feedback","","html-keyboard-response","47","321589","0.0-1.0-60.0-0.0","0","0","75910","","null","","","null","6","","","","","","","","","","","","","","","",""
"","ITI","","html-keyboard-response","48","322602","0.0-1.0-63.0","0","0","75910","","null","","","null","6","","","","","","","","","","","","","","","NaN",""
"","S1","","html-keyboard-response","49","322860","0.0-1.0-65.0","0","0","75910","","null","","","null","7","","","","","","","","","","","","","","","",""
"","ISI","","html-keyboard-response","50","324875","0.0-1.0-66.0","0","0","75910","","null","","","null","7","NaN","","","","","","","","","","","","","","",""
"","S2","","html-keyboard-response","51","325129","0.0-1.0-67.0","0","0","75910","","null","","","null","7","","NaN","","","","","","","","","","","","","",""
"","response","","html-keyboard-response","52","325573","0.0-1.0-68.0","0","0","75910","","440","","","75","7","","","1","7","training","adjacent","GF","7","6","R.jpg","M.jpg","0","0","1","",""
"","feedback","","html-keyboard-response","53","326591","0.0-1.0-69.0-0.0","0","0","75910","","null","","","null","7","","","","","","","","","","","","","","","",""
"","ITI","","html-keyboard-response","54","327604","0.0-1.0-72.0","0","0","75910","","null","","","null","7","","","","","","","","","","","","","","","NaN",""
"","S1","","html-keyboard-response","55","327859","0.0-1.0-74.0","0","0","75910","","null","","","null","8","","","","","","","","","","","","","","","",""
"","ISI","","html-keyboard-response","56","329870","0.0-1.0-75.0","0","0","75910","","null","","","null","8","NaN","","","","","","","","","","","","","","",""
"","S2","","html-keyboard-response","57","330131","0.0-1.0-76.0","0","0","75910","","null","","","null","8","","NaN","","","","","","","","","","","","","",""
"","response","","html-keyboard-response","58","330424","0.0-1.0-77.0","0","0","75910","","290","","","75","8","","","1","8","training","adjacent","CB","3","2","O.jpg","L.jpg","0","0","1","",""
"","feedback","","html-keyboard-response","59","331429","0.0-1.0-78.0-0.0","0","0","75910","","null","","","null","8","","","","","","","","","","","","","","","",""
"","ITI","","html-keyboard-response","60","332447","0.0-1.0-81.0","0","0","75910","","null","","","null","8","","","","","","","","","","","","","","","NaN",""
"","S1","","html-keyboard-response","61","332715","0.0-1.0-83.0","0","0","75910","","null","","","null","9","","","","","","","","","","","","","","","",""
"","ISI","","html-keyboard-response","62","334728","0.0-1.0-84.0","0","0","75910","","null","","","null","9","NaN","","","","","","","","","","","","","","",""
"","S2","","html-keyboard-response","63","334994","0.0-1.0-85.0","0","0","75910","","null","","","null","9","","NaN","","","","","","","","","","","","","",""
"","response","","html-keyboard-response","64","335110","0.0-1.0-86.0","0","0","75910","","113","","","75","9","","","1","9","training","adjacent","GF","7","6","R.jpg","M.jpg","0","0","1","",""
"","feedback","","html-keyboard-response","65","336127","0.0-1.0-87.0-0.0","0","0","75910","","null","","","null","9","","","","","","","","","","","","","","","",""
"","ITI","","html-keyboard-response","66","337143","0.0-1.0-90.0","0","0","75910","","null","","","null","9","","","","","","","","","","","","","","","NaN",""
"","S1","","html-keyboard-response","67","337403","0.0-1.0-92.0","0","0","75910","","null","","","null","10","","","","","","","","","","","","","","","",""
"","ISI","","html-keyboard-response","68","339415","0.0-1.0-93.0","0","0","75910","","null","","","null","10","NaN","","","","","","","","","","","","","","",""
"","S2","","html-keyboard-response","69","339674","0.0-1.0-94.0","0","0","75910","","null","","","null","10","","NaN","","","","","","","","","","","","","",""
"","response","","html-keyboard-response","70","340142","0.0-1.0-95.0","0","0","75910","","432","","","68","10","","","1","10","training","adjacent","GF","7","6","R.jpg","M.jpg","1","0","0","",""
"","feedback","","html-keyboard-response","71","341150","0.0-1.0-96.0-0.0","0","0","75910","","null","","","null","10","","","","","","","","","","","","","","","",""
"","time_out","","html-keyboard-response","72","343168","0.0-1.0-98.0-0.0","0","0","75910","","null","","","null","10","","","","","","","","","","","","","","","",""
"","ITI","","html-keyboard-response","73","344182","0.0-1.0-99.0","0","0","75910","","null","","","null","10","","","","","","","","","","","","","","","NaN",""
"","S1","","html-keyboard-response","74","344447","0.0-1.0-101.0","0","0","75910","","null","","","null","11","","","","","","","","","","","","","","","",""
"","ISI","","html-keyboard-response","75","346453","0.0-1.0-102.0","0","0","75910","","null","","","null","11","NaN","","","","","","","","","","","","","","",""
"","S2","","html-keyboard-response","76","346718","0.0-1.0-103.0","0","0","75910","","null","","","null","11","","NaN","","","","","","","","","","","","","",""
"","response","","html-keyboard-response","77","346992","0.0-1.0-104.0","0","0","75910","","271","","","68","11","","","1","11","training","adjacent","FG","6","7","M.jpg","R.jpg","1","1","1","",""
"","feedback","","html-keyboard-response","78","348007","0.0-1.0-105.0-0.0","0","0","75910","","null","","","null","11","","","","","","","","","","","","","","","",""
"","ITI","","html-keyboard-response","79","349013","0.0-1.0-108.0","0","0","75910","","null","","","null","11","","","","","","","","","","","","","","","NaN",""
"","S1","","html-keyboard-response","80","349271","0.0-1.0-110.0","0","0","75910","","null","","","null","12","","","","","","","","","","","","","","","",""
"","ISI","","html-keyboard-response","81","351285","0.0-1.0-111.0","0","0","75910","","null","","","null","12","NaN","","","","","","","","","","","","","","",""
"","S2","","html-keyboard-response","82","351542","0.0-1.0-112.0","0","0","75910","","null","","","null","12","","NaN","","","","","","","","","","","","","",""
"","response","","html-keyboard-response","83","351920","0.0-1.0-113.0","0","0","75910","","375","","","75","12","","","1","12","training","adjacent","CD","3","4","O.jpg","P.jpg","0","1","0","",""
"","feedback","","html-keyboard-response","84","352936","0.0-1.0-114.0-0.0","0","0","75910","","null","","","null","12","","","","","","","","","","","","","","","",""
"","time_out","","html-keyboard-response","85","354950","0.0-1.0-116.0-0.0","0","0","75910","","null","","","null","12","","","","","","","","","","","","","","","",""
"","ITI","","html-keyboard-response","86","355965","0.0-1.0-117.0","0","0","75910","","null","","","null","12","","","","","","","","","","","","","","","NaN",""
"","S1","","html-keyboard-response","87","356235","0.0-1.0-119.0","0","0","75910","","null","","","null","13","","","","","","","","","","","","","","","",""
"","ISI","","html-keyboard-response","88","358247","0.0-1.0-120.0","0","0","75910","","null","","","null","13","NaN","","","","","","","","","","","","","","",""
"","S2","","html-keyboard-response","89","358505","0.0-1.0-121.0","0","0","75910","","null","","","null","13","","NaN","","","","","","","","","","","","","",""
"","response","","html-keyboard-response","90","358976","0.0-1.0-122.0","0","0","75910","","469","","","68","13","","","1","13","training","adjacent","BA","2","1","L.jpg","Q.jpg","1","0","0","",""
"","feedback","","html-keyboard-response","91","359994","0.0-1.0-123.0-0.0","0","0","75910","","null","","","null","13","","","","","","","","","","","","","","","",""
"","time_out","","html-keyboard-response","92","362002","0.0-1.0-125.0-0.0","0","0","75910","","null","","","null","13","","","","","","","","","","","","","","","",""
"","ITI","","html-keyboard-response","93","363012","0.0-1.0-126.0","0","0","75910","","null","","","null","13","","","","","","","","","","","","","","","NaN",""
"","S1","","html-keyboard-response","94","363281","0.0-1.0-128.0","0","0","75910","","null","","","null","14","","","","","","","","","","","","","","","",""
"","ISI","","html-keyboard-response","95","365286","0.0-1.0-129.0","0","0","75910","","null","","","null","14","NaN","","","","","","","","","","","","","","",""
"","S2","","html-keyboard-response","96","365540","0.0-1.0-130.0","0","0","75910","","null","","","null","14","","NaN","","","","","","","","","","","","","",""
"","response","","html-keyboard-response","97","365972","0.0-1.0-131.0","0","0","75910","","428","","","68","14","","","1","14","training","adjacent","DE","4","5","P.jpg","N.jpg","1","1","1","",""
"","feedback","","html-keyboard-response","98","366981","0.0-1.0-132.0-0.0","0","0","75910","","null","","","null","14","","","","","","","","","","","","","","","",""
"","ITI","","html-keyboard-response","99","368001","0.0-1.0-135.0","0","0","75910","","null","","","null","14","","","","","","","","","","","","","","","NaN",""
"","S1","","html-keyboard-response","100","368261","0.0-1.0-137.0","0","0","75910","","null","","","null","15","","","","","","","","","","","","","","","",""
"","ISI","","html-keyboard-response","101","370275","0.0-1.0-138.0","0","0","75910","","null","","","null","15","NaN","","","","","","","","","","","","","","",""
"","S2","","html-keyboard-response","102","370531","0.0-1.0-139.0","0","0","75910","","null","","","null","15","","NaN","","","","","","","","","","","","","",""
"","response","","html-keyboard-response","103","370920","0.0-1.0-140.0","0","0","75910","","385","","","75","15","","","1","15","training","adjacent","BC","2","3","L.jpg","O.jpg","0","1","0","",""
"","feedback","","html-keyboard-response","104","371931","0.0-1.0-141.0-0.0","0","0","75910","","null","","","null","15","","","","","","","","","","","","","","","",""
"","time_out","","html-keyboard-response","105","373940","0.0-1.0-143.0-0.0","0","0","75910","","null","","","null","15","","","","","","","","","","","","","","","",""
"","ITI","","html-keyboard-response","106","374949","0.0-1.0-144.0","0","0","75910","","null","","","null","15","","","","","","","","","","","","","","","NaN",""
"","S1","","html-keyboard-response","107","375210","0.0-1.0-146.0","0","0","75910","","null","","","null","16","","","","","","","","","","","","","","","",""
"","ISI","","html-keyboard-response","108","377227","0.0-1.0-147.0","0","0","75910","","null","","","null","16","NaN","","","","","","","","","","","","","","",""
"","S2","","html-keyboard-response","109","377486","0.0-1.0-148.0","0","0","75910","","null","","","null","16","","NaN","","","","","","","","","","","","","",""
"","response","","html-keyboard-response","110","377809","0.0-1.0-149.0","0","0","75910","","319","","","68","16","","","1","16","training","adjacent","DE","4","5","P.jpg","N.jpg","1","1","1","",""
"","feedback","","html-keyboard-response","111","378826","0.0-1.0-150.0-0.0","0","0","75910","","null","","","null","16","","","","","","","","","","","","","","","",""
"","ITI","","html-keyboard-response","112","379839","0.0-1.0-153.0","0","0","75910","","null","","","null","16","","","","","","","","","","","","","","","NaN",""
"","S1","","html-keyboard-response","113","380098","0.0-1.0-155.0","0","0","75910","","null","","","null","17","","","","","","","","","","","","","","","",""
"","ISI","","html-keyboard-response","114","382118","0.0-1.0-156.0","0","0","75910","","null","","","null","17","NaN","","","","","","","","","","","","","","",""
"","S2","","html-keyboard-response","115","382379","0.0-1.0-157.0","0","0","75910","","null","","","null","17","","NaN","","","","","","","","","","","","","",""
"","response","","html-keyboard-response","116","382761","0.0-1.0-158.0","0","0","75910","","379","","","68","17","","","1","17","training","adjacent","CB","3","2","O.jpg","L.jpg","1","0","0","",""
"","feedback","","html-keyboard-response","117","383769","0.0-1.0-159.0-0.0","0","0","75910","","null","","","null","17","","","","","","","","","","","","","","","",""
"","time_out","","html-keyboard-response","118","385782","0.0-1.0-161.0-0.0","0","0","75910","","null","","","null","17","","","","","","","","","","","","","","","",""
"","ITI","","html-keyboard-response","119","386793","0.0-1.0-162.0","0","0","75910","","null","","","null","17","","","","","","","","","","","","","","","NaN",""
"","S1","","html-keyboard-response","120","387055","0.0-1.0-164.0","0","0","75910","","null","","","null","18","","","","","","","","","","","","","","","",""
"","ISI","","html-keyboard-response","121","389061","0.0-1.0-165.0","0","0","75910","","null","","","null","18","NaN","","","","","","","","","","","","","","",""
"","S2","","html-keyboard-response","122","389325","0.0-1.0-166.0","0","0","75910","","null","","","null","18","","NaN","","","","","","","","","","","","","",""
"","response","","html-keyboard-response","123","389861","0.0-1.0-167.0","0","0","75910","","533","","","75","18","","","1","18","training","adjacent","EF","5","6","N.jpg","M.jpg","0","1","0","",""
"","feedback","","html-keyboard-response","124","390875","0.0-1.0-168.0-0.0","0","0","75910","","null","","","null","18","","","","","","","","","","","","","","","",""
"","time_out","","html-keyboard-response","125","392878","0.0-1.0-170.0-0.0","0","0","75910","","null","","","null","18","","","","","","","","","","","","","","","",""
"","ITI","","html-keyboard-response","126","393885","0.0-1.0-171.0","0","0","75910","","null","","","null","18","","","","","","","","","","","","","","","NaN",""
"","S1","","html-keyboard-response","127","394154","0.0-1.0-173.0","0","0","75910","","null","","","null","19","","","","","","","","","","","","","","","",""
"","ISI","","html-keyboard-response","128","396165","0.0-1.0-174.0","0","0","75910","","null","","","null","19","NaN","","","","","","","","","","","","","","",""
"","S2","","html-keyboard-response","129","396436","0.0-1.0-175.0","0","0","75910","","null","","","null","19","","NaN","","","","","","","","","","","","","",""
"","response","","html-keyboard-response","130","396584","0.0-1.0-176.0","0","0","75910","","144","","","68","19","","","1","19","training","adjacent","AB","1","2","Q.jpg","L.jpg","1","1","1","",""
"","feedback","","html-keyboard-response","131","397605","0.0-1.0-177.0-0.0","0","0","75910","","null","","","null","19","","","","","","","","","","","","","","","",""
"","ITI","","html-keyboard-response","132","398613","0.0-1.0-180.0","0","0","75910","","null","","","null","19","","","","","","","","","","","","","","","NaN",""
"","S1","","html-keyboard-response","133","398875","0.0-1.0-182.0","0","0","75910","","null","","","null","20","","","","","","","","","","","","","","","",""
"","ISI","","html-keyboard-response","134","400883","0.0-1.0-183.0","0","0","75910","","null","","","null","20","NaN","","","","","","","","","","","","","","",""
"","S2","","html-keyboard-response","135","401145","0.0-1.0-184.0","0","0","75910","","null","","","null","20","","NaN","","","","","","","","","","","","","",""
"","response","","html-keyboard-response","136","401368","0.0-1.0-185.0","0","0","75910","","220","","","68","20","","","1","20","training","adjacent","BC","2","3","L.jpg","O.jpg","1","1","1","",""
"","feedback","","html-keyboard-response","137","402387","0.0-1.0-186.0-0.0","0","0","75910","","null","","","null","20","","","","","","","","","","","","","","","",""
"","ITI","","html-keyboard-response","138","403398","0.0-1.0-189.0","0","0","75910","","null","","","null","20","","","","","","","","","","","","","","","NaN",""
"","S1","","html-keyboard-response","139","403654","0.0-1.0-191.0","0","0","75910","","null","","","null","21","","","","","","","","","","","","","","","",""
"","ISI","","html-keyboard-response","140","405661","0.0-1.0-192.0","0","0","75910","","null","","","null","21","NaN","","","","","","","","","","","","","","",""
"","S2","","html-keyboard-response","141","405921","0.0-1.0-193.0","0","0","75910","","null","","","null","21","","NaN","","","","","","","","","","","","","",""
"","response","","html-keyboard-response","142","406372","0.0-1.0-194.0","0","0","75910","","447","","","68","21","","","1","21","training","adjacent","EF","5","6","N.jpg","M.jpg","1","1","1","",""
"","feedback","","html-keyboard-response","143","407392","0.0-1.0-195.0-0.0","0","0","75910","","null","","","null","21","","","","","","","","","","","","","","","",""
"","ITI","","html-keyboard-response","144","408409","0.0-1.0-198.0","0","0","75910","","null","","","null","21","","","","","","","","","","","","","","","NaN",""
"","S1","","html-keyboard-response","145","408669","0.0-1.0-200.0","0","0","75910","","null","","","null","22","","","","","","","","","","","","","","","",""
"","ISI","","html-keyboard-response","146","410675","0.0-1.0-201.0","0","0","75910","","null","","","null","22","NaN","","","","","","","","","","","","","","",""
"","S2","","html-keyboard-response","147","410934","0.0-1.0-202.0","0","0","75910","","null","","","null","22","","NaN","","","","","","","","","","","","","",""
"","response","","html-keyboard-response","148","411108","0.0-1.0-203.0","0","0","75910","","170","","","75","22","","","1","22","training","adjacent","ED","5","4","N.jpg","P.jpg","0","0","1","",""
"","feedback","","html-keyboard-response","149","412126","0.0-1.0-204.0-0.0","0","0","75910","","null","","","null","22","","","","","","","","","","","","","","","",""
"","ITI","","html-keyboard-response","150","413134","0.0-1.0-207.0","0","0","75910","","null","","","null","22","","","","","","","","","","","","","","","NaN",""
"","S1","","html-keyboard-response","151","413394","0.0-1.0-209.0","0","0","75910","","null","","","null","23","","","","","","","","","","","","","","","",""
"","ISI","","html-keyboard-response","152","415400","0.0-1.0-210.0","0","0","75910","","null","","","null","23","NaN","","","","","","","","","","","","","","",""
"","S2","","html-keyboard-response","153","415658","0.0-1.0-211.0","0","0","75910","","null","","","null","23","","NaN","","","","","","","","","","","","","",""
"","response","","html-keyboard-response","154","415997","0.0-1.0-212.0","0","0","75910","","337","","","68","23","","","1","23","training","adjacent","GF","7","6","R.jpg","M.jpg","1","0","0","",""
"","feedback","","html-keyboard-response","155","417006","0.0-1.0-213.0-0.0","0","0","75910","","null","","","null","23","","","","","","","","","","","","","","","",""
"","time_out","","html-keyboard-response","156","419024","0.0-1.0-215.0-0.0","0","0","75910","","null","","","null","23","","","","","","","","","","","","","","","",""
"","ITI","","html-keyboard-response","157","420034","0.0-1.0-216.0","0","0","75910","","null","","","null","23","","","","","","","","","","","","","","","NaN",""
"","S1","","html-keyboard-response","158","420296","0.0-1.0-218.0","0","0","75910","","null","","","null","24","","","","","","","","","","","","","","","",""
"","ISI","","html-keyboard-response","159","422304","0.0-1.0-219.0","0","0","75910","","null","","","null","24","NaN","","","","","","","","","","","","","","",""
"","S2","","html-keyboard-response","160","422564","0.0-1.0-220.0","0","0","75910","","null","","","null","24","","NaN","","","","","","","","","","","","","",""
"","response","","html-keyboard-response","161","422716","0.0-1.0-221.0","0","0","75910","","149","","","75","24","","","1","24","training","adjacent","CB","3","2","O.jpg","L.jpg","0","0","1","",""
"","feedback","","html-keyboard-response","162","423734","0.0-1.0-222.0-0.0","0","0","75910","","null","","","null","24","","","","","","","","","","","","","","","",""
"","ITI","","html-keyboard-response","163","424739","0.0-1.0-225.0","0","0","75910","","null","","","null","24","","","","","","","","","","","","","","","NaN",""
"","S1","","html-keyboard-response","164","425001","0.0-1.0-227.0","0","0","75910","","null","","","null","25","","","","","","","","","","","","","","","",""
"","ISI","","html-keyboard-response","165","427004","0.0-1.0-228.0","0","0","75910","","null","","","null","25","NaN","","","","","","","","","","","","","","",""
"","S2","","html-keyboard-response","166","427272","0.0-1.0-229.0","0","0","75910","","null","","","null","25","","NaN","","","","","","","","","","","","","",""
"","response","","html-keyboard-response","167","427477","0.0-1.0-230.0","0","0","75910","","201","","","75","25","","","1","25","training","adjacent","CB","3","2","O.jpg","L.jpg","0","0","1","",""
"","feedback","","html-keyboard-response","168","428485","0.0-1.0-231.0-0.0","0","0","75910","","null","","","null","25","","","","","","","","","","","","","","","",""
"","ITI","","html-keyboard-response","169","429498","0.0-1.0-234.0","0","0","75910","","null","","","null","25","","","","","","","","","","","","","","","NaN",""
"","S1","","html-keyboard-response","170","429763","0.0-1.0-236.0","0","0","75910","","null","","","null","26","","","","","","","","","","","","","","","",""
"","ISI","","html-keyboard-response","171","431776","0.0-1.0-237.0","0","0","75910","","null","","","null","26","NaN","","","","","","","","","","","","","","",""
"","S2","","html-keyboard-response","172","432042","0.0-1.0-238.0","0","0","75910","","null","","","null","26","","NaN","","","","","","","","","","","","","",""
"","response","","html-keyboard-response","173","432406","0.0-1.0-239.0","0","0","75910","","360","","","68","26","","","1","26","training","adjacent","DC","4","3","P.jpg","O.jpg","1","0","0","",""
"","feedback","","html-keyboard-response","174","433420","0.0-1.0-240.0-0.0","0","0","75910","","null","","","null","26","","","","","","","","","","","","","","","",""
"","time_out","","html-keyboard-response","175","435428","0.0-1.0-242.0-0.0","0","0","75910","","null","","","null","26","","","","","","","","","","","","","","","",""
"","ITI","","html-keyboard-response","176","436435","0.0-1.0-243.0","0","0","75910","","null","","","null","26","","","","","","","","","","","","","","","NaN",""
"","S1","","html-keyboard-response","177","436696","0.0-1.0-245.0","0","0","75910","","null","","","null","27","","","","","","","","","","","","","","","",""
"","ISI","","html-keyboard-response","178","438705","0.0-1.0-246.0","0","0","75910","","null","","","null","27","NaN","","","","","","","","","","","","","","",""
"","S2","","html-keyboard-response","179","438965","0.0-1.0-247.0","0","0","75910","","null","","","null","27","","NaN","","","","","","","","","","","","","",""
"","response","","html-keyboard-response","180","439408","0.0-1.0-248.0","0","0","75910","","439","","","68","27","","","1","27","training","adjacent","DC","4","3","P.jpg","O.jpg","1","0","0","",""
"","feedback","","html-keyboard-response","181","440417","0.0-1.0-249.0-0.0","0","0","75910","","null","","","null","27","","","","","","","","","","","","","","","",""
"","time_out","","html-keyboard-response","182","442426","0.0-1.0-251.0-0.0","0","0","75910","","null","","","null","27","","","","","","","","","","","","","","","",""
"","ITI","","html-keyboard-response","183","443442","0.0-1.0-252.0","0","0","75910","","null","","","null","27","","","","","","","","","","","","","","","NaN",""
"","S1","","html-keyboard-response","184","443708","0.0-1.0-254.0","0","0","75910","","null","","","null","28","","","","","","","","","","","","","","","",""
"","ISI","","html-keyboard-response","185","445724","0.0-1.0-255.0","0","0","75910","","null","","","null","28","NaN","","","","","","","","","","","","","","",""
"","S2","","html-keyboard-response","186","445982","0.0-1.0-256.0","0","0","75910","","null","","","null","28","","NaN","","","","","","","","","","","","","",""
"","response","","html-keyboard-response","187","446236","0.0-1.0-257.0","0","0","75910","","250","","","68","28","","","1","28","training","adjacent","DC","4","3","P.jpg","O.jpg","1","0","0","",""
"","feedback","","html-keyboard-response","188","447250","0.0-1.0-258.0-0.0","0","0","75910","","null","","","null","28","","","","","","","","","","","","","","","",""
"","time_out","","html-keyboard-response","189","449257","0.0-1.0-260.0-0.0","0","0","75910","","null","","","null","28","","","","","","","","","","","","","","","",""
"","ITI","","html-keyboard-response","190","450264","0.0-1.0-261.0","0","0","75910","","null","","","null","28","","","","","","","","","","","","","","","NaN",""
"","S1","","html-keyboard-response","191","450534","0.0-1.0-263.0","0","0","75910","","null","","","null","29","","","","","","","","","","","","","","","",""
"","ISI","","html-keyboard-response","192","452544","0.0-1.0-264.0","0","0","75910","","null","","","null","29","NaN","","","","","","","","","","","","","","",""
"","S2","","html-keyboard-response","193","452812","0.0-1.0-265.0","0","0","75910","","null","","","null","29","","NaN","","","","","","","","","","","","","",""
"","response","","html-keyboard-response","194","453002","0.0-1.0-266.0","0","0","75910","","188","","","75","29","","","1","29","training","adjacent","ED","5","4","N.jpg","P.jpg","0","0","1","",""
"","feedback","","html-keyboard-response","195","454012","0.0-1.0-267.0-0.0","0","0","75910","","null","","","null","29","","","","","","","","","","","","","","","",""
"","ITI","","html-keyboard-response","196","455020","0.0-1.0-270.0","0","0","75910","","null","","","null","29","","","","","","","","","","","","","","","NaN",""
"","S1","","html-keyboard-response","197","455277","0.0-1.0-272.0","0","0","75910","","null","","","null","30","","","","","","","","","","","","","","","",""
"","ISI","","html-keyboard-response","198","457288","0.0-1.0-273.0","0","0","75910","","821","","","75","30","k","","","","","","","","","","","","","","",""
"","S2","","html-keyboard-response","199","457549","0.0-1.0-274.0","0","0","75910","","null","","","null","30","","NaN","","","","","","","","","","","","","",""
"","response","","html-keyboard-response","200","457632","0.0-1.0-275.0","0","0","75910","","80","","","75","30","","","1","30","training","adjacent","FG","6","7","M.jpg","R.jpg","0","1","0","",""
"","feedback","","html-keyboard-response","201","458644","0.0-1.0-276.0-0.0","0","0","75910","","null","","","null","30","","","","","","","","","","","","","","","",""
"","time_out","","html-keyboard-response","202","460654","0.0-1.0-278.0-0.0","0","0","75910","","null","","","null","30","","","","","","","","","","","","","","","",""
"","ITI","","html-keyboard-response","203","461670","0.0-1.0-279.0","0","0","75910","","null","","","null","30","","","","","","","","","","","","","","","NaN",""
"","S1","","html-keyboard-response","204","461931","0.0-1.0-281.0","0","0","75910","","null","","","null","31","","","","","","","","","","","","","","","",""
"","ISI","","html-keyboard-response","205","463943","0.0-1.0-282.0","0","0","75910","","713","","","68","31","d","","","","","","","","","","","","","","",""
"","S2","","html-keyboard-response","206","464203","0.0-1.0-283.0","0","0","75910","","null","","","null","31","","NaN","","","","","","","","","","","","","",""
"","response","","html-keyboard-response","207","464384","0.0-1.0-284.0","0","0","75910","","179","","","68","31","","","1","31","training","adjacent","BC","2","3","L.jpg","O.jpg","1","1","1","",""
"","feedback","","html-keyboard-response","208","465402","0.0-1.0-285.0-0.0","0","0","75910","","null","","","null","31","","","","","","","","","","","","","","","",""
"","ITI","","html-keyboard-response","209","466407","0.0-1.0-288.0","0","0","75910","","null","","","null","31","","","","","","","","","","","","","","","NaN",""
"","S1","","html-keyboard-response","210","466669","0.0-1.0-290.0","0","0","75910","","null","","","null","32","","","","","","","","","","","","","","","",""
"","ISI","","html-keyboard-response","211","468675","0.0-1.0-291.0","0","0","75910","","null","","","null","32","NaN","","","","","","","","","","","","","","",""
"","S2","","html-keyboard-response","212","468944","0.0-1.0-292.0","0","0","75910","","null","","","null","32","","NaN","","","","","","","","","","","","","",""
"","response","","html-keyboard-response","213","469073","0.0-1.0-293.0","0","0","75910","","124","","","68","32","","","1","32","training","adjacent","CD","3","4","O.jpg","P.jpg","1","1","1","",""
"","feedback","","html-keyboard-response","214","470083","0.0-1.0-294.0-0.0","0","0","75910","","null","","","null","32","","","","","","","","","","","","","","","",""
"","ITI","","html-keyboard-response","215","471100","0.0-1.0-297.0","0","0","75910","","null","","","null","32","","","","","","","","","","","","","","","NaN",""
"","S1","","html-keyboard-response","216","471357","0.0-1.0-299.0","0","0","75910","","null","","","null","33","","","","","","","","","","","","","","","",""
"","ISI","","html-keyboard-response","217","473362","0.0-1.0-300.0","0","0","75910","","null","","","null","33","NaN","","","","","","","","","","","","","","",""
"","S2","","html-keyboard-response","218","473622","0.0-1.0-301.0","0","0","75910","","null","","","null","33","","NaN","","","","","","","","","","","","","",""
"","response","","html-keyboard-response","219","473759","0.0-1.0-302.0","0","0","75910","","136","","","75","33","","","1","33","training","adjacent","FE","6","5","M.jpg","N.jpg","0","0","1","",""
"","feedback","","html-keyboard-response","220","474776","0.0-1.0-303.0-0.0","0","0","75910","","null","","","null","33","","","","","","","","","","","","","","","",""
"","ITI","","html-keyboard-response","221","475779","0.0-1.0-306.0","0","0","75910","","null","","","null","33","","","","","","","","","","","","","","","NaN",""
"","S1","","html-keyboard-response","222","476041","0.0-1.0-308.0","0","0","75910","","null","","","null","34","","","","","","","","","","","","","","","",""
"","ISI","","html-keyboard-response","223","478052","0.0-1.0-309.0","0","0","75910","","null","","","null","34","NaN","","","","","","","","","","","","","","",""
"","S2","","html-keyboard-response","224","478306","0.0-1.0-310.0","0","0","75910","","null","","","null","34","","NaN","","","","","","","","","","","","","",""
"","response","","html-keyboard-response","225","478410","0.0-1.0-311.0","0","0","75910","","101","","","75","34","","","1","34","training","adjacent","AB","1","2","Q.jpg","L.jpg","0","1","0","",""
"","feedback","","html-keyboard-response","226","479425","0.0-1.0-312.0-0.0","0","0","75910","","null","","","null","34","","","","","","","","","","","","","","","",""
"","time_out","","html-keyboard-response","227","481433","0.0-1.0-314.0-0.0","0","0","75910","","null","","","null","34","","","","","","","","","","","","","","","",""
"","ITI","","html-keyboard-response","228","482448","0.0-1.0-315.0","0","0","75910","","null","","","null","34","","","","","","","","","","","","","","","NaN",""
"","S1","","html-keyboard-response","229","482713","0.0-1.0-317.0","0","0","75910","","null","","","null","35","","","","","","","","","","","","","","","",""
"","ISI","","html-keyboard-response","230","484722","0.0-1.0-318.0","0","0","75910","","null","","","null","35","NaN","","","","","","","","","","","","","","",""
"","S2","","html-keyboard-response","231","484978","0.0-1.0-319.0","0","0","75910","","null","","","null","35","","NaN","","","","","","","","","","","","","",""
"","response","","html-keyboard-response","232","485417","0.0-1.0-320.0","0","0","75910","","437","","","75","35","","","1","35","training","adjacent","DE","4","5","P.jpg","N.jpg","0","1","0","",""
"","feedback","","html-keyboard-response","233","486426","0.0-1.0-321.0-0.0","0","0","75910","","null","","","null","35","","","","","","","","","","","","","","","",""
"","time_out","","html-keyboard-response","234","488437","0.0-1.0-323.0-0.0","0","0","75910","","null","","","null","35","","","","","","","","","","","","","","","",""
"","ITI","","html-keyboard-response","235","489444","0.0-1.0-324.0","0","0","75910","","null","","","null","35","","","","","","","","","","","","","","","NaN",""
"","S1","","html-keyboard-response","236","489705","0.0-1.0-326.0","0","0","75910","","null","","","null","36","","","","","","","","","","","","","","","",""
"","ISI","","html-keyboard-response","237","491710","0.0-1.0-327.0","0","0","75910","","null","","","null","36","NaN","","","","","","","","","","","","","","",""
"","S2","","html-keyboard-response","238","491975","0.0-1.0-328.0","0","0","75910","","null","","","null","36","","NaN","","","","","","","","","","","","","",""
"","response","","html-keyboard-response","239","492093","0.0-1.0-329.0","0","0","75910","","116","","","68","36","","","1","36","training","adjacent","BA","2","1","L.jpg","Q.jpg","1","0","0","",""
"","feedback","","html-keyboard-response","240","493097","0.0-1.0-330.0-0.0","0","0","75910","","null","","","null","36","","","","","","","","","","","","","","","",""
"","time_out","","html-keyboard-response","241","495103","0.0-1.0-332.0-0.0","0","0","75910","","null","","","null","36","","","","","","","","","","","","","","","",""
"","ITI","","html-keyboard-response","242","496117","0.0-1.0-333.0","0","0","75910","","null","","","null","36","","","","","","","","","","","","","","","NaN",""
"","S1","","html-keyboard-response","243","496380","0.0-1.0-335.0","0","0","75910","","null","","","null","37","","","","","","","","","","","","","","","",""
"","ISI","","html-keyboard-response","244","498386","0.0-1.0-336.0","0","0","75910","","null","","","null","37","NaN","","","","","","","","","","","","","","",""
"","S2","","html-keyboard-response","245","498642","0.0-1.0-337.0","0","0","75910","","null","","","null","37","","NaN","","","","","","","","","","","","","",""
"","response","","html-keyboard-response","246","498682","0.0-1.0-338.0","0","0","75910","","36","","","75","37","","","1","37","training","adjacent","FG","6","7","M.jpg","R.jpg","0","1","0","",""
"","feedback","","html-keyboard-response","247","499694","0.0-1.0-339.0-0.0","0","0","75910","","null","","","null","37","","","","","","","","","","","","","","","",""
"","time_out","","html-keyboard-response","248","501710","0.0-1.0-341.0-0.0","0","0","75910","","null","","","null","37","","","","","","","","","","","","","","","",""
"","ITI","","html-keyboard-response","249","502730","0.0-1.0-342.0","0","0","75910","","null","","","null","37","","","","","","","","","","","","","","","NaN",""
"","S1","","html-keyboard-response","250","502995","0.0-1.0-344.0","0","0","75910","","null","","","null","38","","","","","","","","","","","","","","","",""
"","ISI","","html-keyboard-response","251","505007","0.0-1.0-345.0","0","0","75910","","null","","","null","38","NaN","","","","","","","","","","","","","","",""
"","S2","","html-keyboard-response","252","505273","0.0-1.0-346.0","0","0","75910","","null","","","null","38","","NaN","","","","","","","","","","","","","",""
"","response","","html-keyboard-response","253","505834","0.0-1.0-347.0","0","0","75910","","558","","","75","38","","","1","38","training","adjacent","FE","6","5","M.jpg","N.jpg","0","0","1","",""
"","feedback","","html-keyboard-response","254","506846","0.0-1.0-348.0-0.0","0","0","75910","","null","","","null","38","","","","","","","","","","","","","","","",""
"","ITI","","html-keyboard-response","255","507850","0.0-1.0-351.0","0","0","75910","","null","","","null","38","","","","","","","","","","","","","","","NaN",""
"","S1","","html-keyboard-response","256","508116","0.0-1.0-353.0","0","0","75910","","null","","","null","39","","","","","","","","","","","","","","","",""
"","ISI","","html-keyboard-response","257","510121","0.0-1.0-354.0","0","0","75910","","null","","","null","39","NaN","","","","","","","","","","","","","","",""
"","S2","","html-keyboard-response","258","510384","0.0-1.0-355.0","0","0","75910","","null","","","null","39","","NaN","","","","","","","","","","","","","",""
"","response","","html-keyboard-response","259","510824","0.0-1.0-356.0","0","0","75910","","437","","","68","39","","","1","39","training","adjacent","FE","6","5","M.jpg","N.jpg","1","0","0","",""
"","feedback","","html-keyboard-response","260","511839","0.0-1.0-357.0-0.0","0","0","75910","","null","","","null","39","","","","","","","","","","","","","","","",""
"","time_out","","html-keyboard-response","261","513851","0.0-1.0-359.0-0.0","0","0","75910","","null","","","null","39","","","","","","","","","","","","","","","",""
"","ITI","","html-keyboard-response","262","514855","0.0-1.0-360.0","0","0","75910","","null","","","null","39","","","","","","","","","","","","","","","NaN",""
"","S1","","html-keyboard-response","263","515108","0.0-1.0-362.0","0","0","75910","","null","","","null","40","","","","","","","","","","","","","","","",""
"","ISI","","html-keyboard-response","264","517121","0.0-1.0-363.0","0","0","75910","","null","","","null","40","NaN","","","","","","","","","","","","","","",""
"","S2","","html-keyboard-response","265","517378","0.0-1.0-364.0","0","0","75910","","null","","","null","40","","NaN","","","","","","","","","","","","","",""
"","response","","html-keyboard-response","266","517759","0.0-1.0-365.0","0","0","75910","","380","","","68","40","","","1","40","training","adjacent","BA","2","1","L.jpg","Q.jpg","1","0","0","",""
"","feedback","","html-keyboard-response","267","518768","0.0-1.0-366.0-0.0","0","0","75910","","null","","","null","40","","","","","","","","","","","","","","","",""
"","time_out","","html-keyboard-response","268","520776","0.0-1.0-368.0-0.0","0","0","75910","","null","","","null","40","","","","","","","","","","","","","","","",""
"","ITI","","html-keyboard-response","269","521780","0.0-1.0-369.0","0","0","75910","","null","","","null","40","","","","","","","","","","","","","","","NaN",""
"","S1","","html-keyboard-response","270","522048","0.0-1.0-371.0","0","0","75910","","null","","","null","41","","","","","","","","","","","","","","","",""
"","ISI","","html-keyboard-response","271","524062","0.0-1.0-372.0","0","0","75910","","null","","","null","41","NaN","","","","","","","","","","","","","","",""
"","S2","","html-keyboard-response","272","524321","0.0-1.0-373.0","0","0","75910","","null","","","null","41","","NaN","","","","","","","","","","","","","",""
"","response","","html-keyboard-response","273","524377","0.0-1.0-374.0","0","0","75910","","53","","","75","41","","","1","41","training","adjacent","CD","3","4","O.jpg","P.jpg","0","1","0","",""
"","feedback","","html-keyboard-response","274","525381","0.0-1.0-375.0-0.0","0","0","75910","","null","","","null","41","","","","","","","","","","","","","","","",""
"","time_out","","html-keyboard-response","275","527390","0.0-1.0-377.0-0.0","0","0","75910","","null","","","null","41","","","","","","","","","","","","","","","",""
"","ITI","","html-keyboard-response","276","528402","0.0-1.0-378.0","0","0","75910","","null","","","null","41","","","","","","","","","","","","","","","NaN",""
"","S1","","html-keyboard-response","277","528674","0.0-1.0-380.0","0","0","75910","","null","","","null","42","","","","","","","","","","","","","","","",""
"","ISI","","html-keyboard-response","278","530696","0.0-1.0-381.0","0","0","75910","","null","","","null","42","NaN","","","","","","","","","","","","","","",""
"","S2","","html-keyboard-response","279","530958","0.0-1.0-382.0","0","0","75910","","null","","","null","42","","NaN","","","","","","","","","","","","","",""
"","response","","html-keyboard-response","280","531490","0.0-1.0-383.0","0","0","75910","","529","","","68","42","","","1","42","training","adjacent","ED","5","4","N.jpg","P.jpg","1","0","0","",""
"","feedback","","html-keyboard-response","281","532510","0.0-1.0-384.0-0.0","0","0","75910","","null","","","null","42","","","","","","","","","","","","","","","",""
"","time_out","","html-keyboard-response","282","534520","0.0-1.0-386.0-0.0","0","0","75910","","null","","","null","42","","","","","","","","","","","","","","","",""
"","ITI","","html-keyboard-response","283","535526","0.0-1.0-387.0","0","0","75910","","null","","","null","42","","","","","","","","","","","","","","","NaN",""
"","S1","","html-keyboard-response","284","535790","0.0-1.0-389.0","0","0","75910","","null","","","null","43","","","","","","","","","","","","","","","",""
"","ISI","","html-keyboard-response","285","537809","0.0-1.0-390.0","0","0","75910","","null","","","null","43","NaN","","","","","","","","","","","","","","",""
"","S2","","html-keyboard-response","286","538064","0.0-1.0-391.0","0","0","75910","","null","","","null","43","","NaN","","","","","","","","","","","","","",""
"","response","","html-keyboard-response","287","538240","0.0-1.0-392.0","0","0","75910","","174","","","75","43","","","1","43","training","adjacent","AB","1","2","Q.jpg","L.jpg","0","1","0","",""
"","feedback","","html-keyboard-response","288","539249","0.0-1.0-393.0-0.0","0","0","75910","","null","","","null","43","","","","","","","","","","","","","","","",""
"","time_out","","html-keyboard-response","289","541260","0.0-1.0-395.0-0.0","0","0","75910","","null","","","null","43","","","","","","","","","","","","","","","",""
"","ITI","","html-keyboard-response","290","542276","0.0-1.0-396.0","0","0","75910","","null","","","null","43","","","","","","","","","","","","","","","NaN",""
"","S1","","html-keyboard-response","291","542547","0.0-1.0-398.0","0","0","75910","","null","","","null","44","","","","","","","","","","","","","","","",""
"","ISI","","html-keyboard-response","292","544558","0.0-1.0-399.0","0","0","75910","","null","","","null","44","NaN","","","","","","","","","","","","","","",""
"","S2","","html-keyboard-response","293","544821","0.0-1.0-400.0","0","0","75910","","null","","","null","44","","NaN","","","","","","","","","","","","","",""
"","response","","html-keyboard-response","294","544851","0.0-1.0-401.0","0","0","75910","","27","","","68","44","","","1","44","training","adjacent","FG","6","7","M.jpg","R.jpg","1","1","1","",""
"","feedback","","html-keyboard-response","295","545859","0.0-1.0-402.0-0.0","0","0","75910","","null","","","null","44","","","","","","","","","","","","","","","",""
"","ITI","","html-keyboard-response","296","546867","0.0-1.0-405.0","0","0","75910","","null","","","null","44","","","","","","","","","","","","","","","NaN",""
"","S1","","html-keyboard-response","297","547136","0.0-1.0-407.0","0","0","75910","","null","","","null","45","","","","","","","","","","","","","","","",""
"","ISI","","html-keyboard-response","298","549145","0.0-1.0-408.0","0","0","75910","","null","","","null","45","NaN","","","","","","","","","","","","","","",""
"","S2","","html-keyboard-response","299","549410","0.0-1.0-409.0","0","0","75910","","null","","","null","45","","NaN","","","","","","","","","","","","","",""
"","response","","html-keyboard-response","300","550726","0.0-1.0-410.0","0","0","75910","","1313","","","75","45","","","1","45","training","adjacent","BC","2","3","L.jpg","O.jpg","0","1","0","",""
"","feedback","","html-keyboard-response","301","551741","0.0-1.0-411.0-0.0","0","0","75910","","null","","","null","45","","","","","","","","","","","","","","","",""
"","time_out","","html-keyboard-response","302","553757","0.0-1.0-413.0-0.0","0","0","75910","","null","","","null","45","","","","","","","","","","","","","","","",""
"","ITI","","html-keyboard-response","303","554771","0.0-1.0-414.0","0","0","75910","","null","","","null","45","","","","","","","","","","","","","","","NaN",""
"","S1","","html-keyboard-response","304","555040","0.0-1.0-416.0","0","0","75910","","null","","","null","46","","","","","","","","","","","","","","","",""
"","ISI","","html-keyboard-response","305","557049","0.0-1.0-417.0","0","0","75910","","null","","","null","46","NaN","","","","","","","","","","","","","","",""
"","S2","","html-keyboard-response","306","557311","0.0-1.0-418.0","0","0","75910","","null","","","null","46","","NaN","","","","","","","","","","","","","",""
"","response","","html-keyboard-response","307","559319","0.0-1.0-419.0","0","0","75910","","null","","","null","46","","","1","46","training","adjacent","BA","2","1","L.jpg","Q.jpg","NaN","0","0","",""
"","too_slow_prompt","","html-keyboard-response","308","560327","0.0-1.0-421.0-0.0","1","0","75910","","null","","","null","","","","","","","","","","","","","","","","",""
"","time_out","","html-keyboard-response","309","562340","0.0-1.0-422.0-0.0","0","0","75910","","null","","","null","46","","","","","","","","","","","","","","","",""
"","ITI","","html-keyboard-response","310","563348","0.0-1.0-423.0","0","0","75910","","null","","","null","46","","","","","","","","","","","","","","","NaN",""
"","S1","","html-keyboard-response","311","563602","0.0-1.0-425.0","0","0","75910","","null","","","null","47","","","","","","","","","","","","","","","",""
"","ISI","","html-keyboard-response","312","565619","0.0-1.0-426.0","0","0","75910","","null","","","null","47","NaN","","","","","","","","","","","","","","",""
"","S2","","html-keyboard-response","313","565886","0.0-1.0-427.0","0","0","75910","","null","","","null","47","","NaN","","","","","","","","","","","","","",""
"","response","","html-keyboard-response","314","566023","0.0-1.0-428.0","0","0","75910","","133","","","75","47","","","1","47","training","adjacent","EF","5","6","N.jpg","M.jpg","0","1","0","",""
"","feedback","","html-keyboard-response","315","567028","0.0-1.0-429.0-0.0","0","0","75910","","null","","","null","47","","","","","","","","","","","","","","","",""
"","time_out","","html-keyboard-response","316","569040","0.0-1.0-431.0-0.0","0","0","75910","","null","","","null","47","","","","","","","","","","","","","","","",""
"","ITI","","html-keyboard-response","317","570058","0.0-1.0-432.0","0","0","75910","","null","","","null","47","","","","","","","","","","","","","","","NaN",""
"","block_over","","html-keyboard-response","318","584150","0.0-1.0-433.0-0.0","0","0","75910","","14088","","","32","47","","","","","","","","","","","","","","","",""
"","S1","","html-keyboard-response","319","584409","0.0-1.0-434.0","0","0","75910","","null","","","null","48","","","","","","","","","","","","","","","",""
"","ISI","","html-keyboard-response","320","586422","0.0-1.0-435.0","0","0","75910","","null","","","null","48","NaN","","","","","","","","","","","","","","",""
"","S2","","html-keyboard-response","321","586688","0.0-1.0-436.0","0","0","75910","","null","","","null","48","","NaN","","","","","","","","","","","","","",""
"","response","","html-keyboard-response","322","587535","0.0-1.0-437.0","0","0","75910","","844","","","75","48","","","2","48","training","adjacent","CD","3","4","O.jpg","P.jpg","0","1","0","",""
"","feedback","","html-keyboard-response","323","588541","0.0-1.0-438.0-0.0","0","0","75910","","null","","","null","48","","","","","","","","","","","","","","","",""
"","time_out","","html-keyboard-response","324","590556","0.0-1.0-440.0-0.0","0","0","75910","","null","","","null","48","","","","","","","","","","","","","","","",""
"","ITI","","html-keyboard-response","325","591571","0.0-1.0-441.0","0","0","75910","","null","","","null","48","","","","","","","","","","","","","","","NaN",""
"","S1","","html-keyboard-response","326","591836","0.0-1.0-443.0","0","0","75910","","null","","","null","49","","","","","","","","","","","","","","","",""
"","ISI","","html-keyboard-response","327","593856","0.0-1.0-444.0","0","0","75910","","null","","","null","49","NaN","","","","","","","","","","","","","","",""
"","S2","","html-keyboard-response","328","594115","0.0-1.0-445.0","0","0","75910","","null","","","null","49","","NaN","","","","","","","","","","","","","",""
"","response","","html-keyboard-response","329","594655","0.0-1.0-446.0","0","0","75910","","536","","","68","49","","","2","49","training","adjacent","DE","4","5","P.jpg","N.jpg","1","1","1","",""
"","feedback","","html-keyboard-response","330","595663","0.0-1.0-447.0-0.0","0","0","75910","","null","","","null","49","","","","","","","","","","","","","","","",""
"","ITI","","html-keyboard-response","331","596679","0.0-1.0-450.0","0","0","75910","","null","","","null","49","","","","","","","","","","","","","","","NaN",""
"","S1","","html-keyboard-response","332","596947","0.0-1.0-452.0","0","0","75910","","null","","","null","50","","","","","","","","","","","","","","","",""
"","ISI","","html-keyboard-response","333","598960","0.0-1.0-453.0","0","0","75910","","null","","","null","50","NaN","","","","","","","","","","","","","","",""
"","S2","","html-keyboard-response","334","599215","0.0-1.0-454.0","0","0","75910","","null","","","null","50","","NaN","","","","","","","","","","","","","",""
"","response","","html-keyboard-response","335","599320","0.0-1.0-455.0","0","0","75910","","101","","","68","50","","","2","50","training","adjacent","CD","3","4","O.jpg","P.jpg","1","1","1","",""
"","feedback","","html-keyboard-response","336","600331","0.0-1.0-456.0-0.0","0","0","75910","","null","","","null","50","","","","","","","","","","","","","","","",""
"","ITI","","html-keyboard-response","337","601340","0.0-1.0-459.0","0","0","75910","","null","","","null","50","","","","","","","","","","","","","","","NaN",""
"","S1","","html-keyboard-response","338","601594","0.0-1.0-461.0","0","0","75910","","null","","","null","51","","","","","","","","","","","","","","","",""
"","ISI","","html-keyboard-response","339","603601","0.0-1.0-462.0","0","0","75910","","null","","","null","51","NaN","","","","","","","","","","","","","","",""
"","S2","","html-keyboard-response","340","603858","0.0-1.0-463.0","0","0","75910","","253","","","68","51","","d","","","","","","","","","","","","","",""
"","response","","html-keyboard-response","341","604502","0.0-1.0-464.0","0","0","75910","","640","","","68","51","","","2","51","training","adjacent","ED","5","4","N.jpg","P.jpg","1","0","0","",""
"","feedback","","html-keyboard-response","342","605518","0.0-1.0-465.0-0.0","0","0","75910","","null","","","null","51","","","","","","","","","","","","","","","",""
"","time_out","","html-keyboard-response","343","607530","0.0-1.0-467.0-0.0","0","0","75910","","null","","","null","51","","","","","","","","","","","","","","","",""
"","ITI","","html-keyboard-response","344","608533","0.0-1.0-468.0","0","0","75910","","null","","","null","51","","","","","","","","","","","","","","","NaN",""
"","S1","","html-keyboard-response","345","608790","0.0-1.0-470.0","0","0","75910","","null","","","null","52","","","","","","","","","","","","","","","",""
"","ISI","","html-keyboard-response","346","610802","0.0-1.0-471.0","0","0","75910","","null","","","null","52","NaN","","","","","","","","","","","","","","",""
"","S2","","html-keyboard-response","347","611065","0.0-1.0-472.0","0","0","75910","","null","","","null","52","","NaN","","","","","","","","","","","","","",""
"","response","","html-keyboard-response","348","611422","0.0-1.0-473.0","0","0","75910","","353","","","75","52","","","2","52","training","adjacent","GF","7","6","R.jpg","M.jpg","0","0","1","",""
"","feedback","","html-keyboard-response","349","612426","0.0-1.0-474.0-0.0","0","0","75910","","null","","","null","52","","","","","","","","","","","","","","","",""
"","ITI","","html-keyboard-response","350","613433","0.0-1.0-477.0","0","0","75910","","null","","","null","52","","","","","","","","","","","","","","","NaN",""
"","S1","","html-keyboard-response","351","613694","0.0-1.0-479.0","0","0","75910","","null","","","null","53","","","","","","","","","","","","","","","",""
"","ISI","","html-keyboard-response","352","615705","0.0-1.0-480.0","0","0","75910","","null","","","null","53","NaN","","","","","","","","","","","","","","",""
"","S2","","html-keyboard-response","353","615968","0.0-1.0-481.0","0","0","75910","","null","","","null","53","","NaN","","","","","","","","","","","","","",""
"","response","","html-keyboard-response","354","616349","0.0-1.0-482.0","0","0","75910","","377","","","75","53","","","2","53","training","adjacent","EF","5","6","N.jpg","M.jpg","0","1","0","",""
"","feedback","","html-keyboard-response","355","617367","0.0-1.0-483.0-0.0","0","0","75910","","null","","","null","53","","","","","","","","","","","","","","","",""
"","time_out","","html-keyboard-response","356","619385","0.0-1.0-485.0-0.0","0","0","75910","","null","","","null","53","","","","","","","","","","","","","","","",""
"","ITI","","html-keyboard-response","357","620399","0.0-1.0-486.0","0","0","75910","","null","","","null","53","","","","","","","","","","","","","","","NaN",""
"","S1","","html-keyboard-response","358","620659","0.0-1.0-488.0","0","0","75910","","null","","","null","54","","","","","","","","","","","","","","","",""
"","ISI","","html-keyboard-response","359","622663","0.0-1.0-489.0","0","0","75910","","343","","","68","54","d","","","","","","","","","","","","","","",""
"","S2","","html-keyboard-response","360","622925","0.0-1.0-490.0","0","0","75910","","null","","","null","54","","NaN","","","","","","","","","","","","","",""
"","response","","html-keyboard-response","361","623175","0.0-1.0-491.0","0","0","75910","","247","","","75","54","","","2","54","training","adjacent","ED","5","4","N.jpg","P.jpg","0","0","1","",""
"","feedback","","html-keyboard-response","362","624191","0.0-1.0-492.0-0.0","0","0","75910","","null","","","null","54","","","","","","","","","","","","","","","",""
"","ITI","","html-keyboard-response","363","625204","0.0-1.0-495.0","0","0","75910","","null","","","null","54","","","","","","","","","","","","","","","NaN",""
"","S1","","html-keyboard-response","364","625464","0.0-1.0-497.0","0","0","75910","","null","","","null","55","","","","","","","","","","","","","","","",""
"","ISI","","html-keyboard-response","365","627479","0.0-1.0-498.0","0","0","75910","","null","","","null","55","NaN","","","","","","","","","","","","","","",""
"","S2","","html-keyboard-response","366","627741","0.0-1.0-499.0","0","0","75910","","null","","","null","55","","NaN","","","","","","","","","","","","","",""
"","response","","html-keyboard-response","367","627842","0.0-1.0-500.0","0","0","75910","","100","","","75","55","","","2","55","training","adjacent","DE","4","5","P.jpg","N.jpg","0","1","0","",""
"","feedback","","html-keyboard-response","368","628846","0.0-1.0-501.0-0.0","0","0","75910","","null","","","null","55","","","","","","","","","","","","","","","",""
"","time_out","","html-keyboard-response","369","630862","0.0-1.0-503.0-0.0","0","0","75910","","null","","","null","55","","","","","","","","","","","","","","","",""
"","ITI","","html-keyboard-response","370","631868","0.0-1.0-504.0","0","0","75910","","null","","","null","55","","","","","","","","","","","","","","","NaN",""
"","S1","","html-keyboard-response","371","632142","0.0-1.0-506.0","0","0","75910","","null","","","null","56","","","","","","","","","","","","","","","",""
"","ISI","","html-keyboard-response","372","634160","0.0-1.0-507.0","0","0","75910","","null","","","null","56","NaN","","","","","","","","","","","","","","",""
"","S2","","html-keyboard-response","373","634423","0.0-1.0-508.0","0","0","75910","","null","","","null","56","","NaN","","","","","","","","","","","","","",""
"","response","","html-keyboard-response","374","634578","0.0-1.0-509.0","0","0","75910","","152","","","68","56","","","2","56","training","adjacent","BC","2","3","L.jpg","O.jpg","1","1","1","",""
"","feedback","","html-keyboard-response","375","635586","0.0-1.0-510.0-0.0","0","0","75910","","null","","","null","56","","","","","","","","","","","","","","","",""
"","ITI","","html-keyboard-response","376","636590","0.0-1.0-513.0","0","0","75910","","null","","","null","56","","","","","","","","","","","","","","","NaN",""
"","S1","","html-keyboard-response","377","636856","0.0-1.0-515.0","0","0","75910","","null","","","null","57","","","","","","","","","","","","","","","",""
"","ISI","","html-keyboard-response","378","638866","0.0-1.0-516.0","0","0","75910","","null","","","null","57","NaN","","","","","","","","","","","","","","",""
"","S2","","html-keyboard-response","379","639122","0.0-1.0-517.0","0","0","75910","","null","","","null","57","","NaN","","","","","","","","","","","","","",""
"","response","","html-keyboard-response","380","639561","0.0-1.0-518.0","0","0","75910","","435","","","68","57","","","2","57","training","adjacent","ED","5","4","N.jpg","P.jpg","1","0","0","",""
"","feedback","","html-keyboard-response","381","640582","0.0-1.0-519.0-0.0","0","0","75910","","null","","","null","57","","","","","","","","","","","","","","","",""
"","time_out","","html-keyboard-response","382","642594","0.0-1.0-521.0-0.0","0","0","75910","","null","","","null","57","","","","","","","","","","","","","","","",""
"","ITI","","html-keyboard-response","383","643602","0.0-1.0-522.0","0","0","75910","","null","","","null","57","","","","","","","","","","","","","","","NaN",""
"","S1","","html-keyboard-response","384","643859","0.0-1.0-524.0","0","0","75910","","null","","","null","58","","","","","","","","","","","","","","","",""
"","ISI","","html-keyboard-response","385","645867","0.0-1.0-525.0","0","0","75910","","null","","","null","58","NaN","","","","","","","","","","","","","","",""
"","S2","","html-keyboard-response","386","646130","0.0-1.0-526.0","0","0","75910","","null","","","null","58","","NaN","","","","","","","","","","","","","",""
"","response","","html-keyboard-response","387","647509","0.0-1.0-527.0","0","0","75910","","1375","","","75","58","","","2","58","training","adjacent","GF","7","6","R.jpg","M.jpg","0","0","1","",""
"","feedback","","html-keyboard-response","388","648518","0.0-1.0-528.0-0.0","0","0","75910","","null","","","null","58","","","","","","","","","","","","","","","",""
"","ITI","","html-keyboard-response","389","649536","0.0-1.0-531.0","0","0","75910","","null","","","null","58","","","","","","","","","","","","","","","NaN",""
"","S1","","html-keyboard-response","390","649791","0.0-1.0-533.0","0","0","75910","","null","","","null","59","","","","","","","","","","","","","","","",""
"","ISI","","html-keyboard-response","391","651799","0.0-1.0-534.0","0","0","75910","","null","","","null","59","NaN","","","","","","","","","","","","","","",""
"","S2","","html-keyboard-response","392","652053","0.0-1.0-535.0","0","0","75910","","null","","","null","59","","NaN","","","","","","","","","","","","","",""
"","response","","html-keyboard-response","393","652372","0.0-1.0-536.0","0","0","75910","","314","","","75","59","","","2","59","training","adjacent","FE","6","5","M.jpg","N.jpg","0","0","1","",""
"","feedback","","html-keyboard-response","394","653383","0.0-1.0-537.0-0.0","0","0","75910","","null","","","null","59","","","","","","","","","","","","","","","",""
"","ITI","","html-keyboard-response","395","654392","0.0-1.0-540.0","0","0","75910","","null","","","null","59","","","","","","","","","","","","","","","NaN",""
"","S1","","html-keyboard-response","396","654651","0.0-1.0-542.0","0","0","75910","","null","","","null","60","","","","","","","","","","","","","","","",""
"","ISI","","html-keyboard-response","397","656657","0.0-1.0-543.0","0","0","75910","","null","","","null","60","NaN","","","","","","","","","","","","","","",""
"","S2","","html-keyboard-response","398","656917","0.0-1.0-544.0","0","0","75910","","null","","","null","60","","NaN","","","","","","","","","","","","","",""
"","response","","html-keyboard-response","399","657161","0.0-1.0-545.0","0","0","75910","","241","","","75","60","","","2","60","training","adjacent","BA","2","1","L.jpg","Q.jpg","0","0","1","",""
"","feedback","","html-keyboard-response","400","658180","0.0-1.0-546.0-0.0","0","0","75910","","null","","","null","60","","","","","","","","","","","","","","","",""
"","ITI","","html-keyboard-response","401","659190","0.0-1.0-549.0","0","0","75910","","null","","","null","60","","","","","","","","","","","","","","","NaN",""
"","S1","","html-keyboard-response","402","659457","0.0-1.0-551.0","0","0","75910","","null","","","null","61","","","","","","","","","","","","","","","",""
"","ISI","","html-keyboard-response","403","661470","0.0-1.0-552.0","0","0","75910","","null","","","null","61","NaN","","","","","","","","","","","","","","",""
"","S2","","html-keyboard-response","404","661723","0.0-1.0-553.0","0","0","75910","","null","","","null","61","","NaN","","","","","","","","","","","","","",""
"","response","","html-keyboard-response","405","662348","0.0-1.0-554.0","0","0","75910","","621","","","75","61","","","2","61","training","adjacent","DC","4","3","P.jpg","O.jpg","0","0","1","",""
"","feedback","","html-keyboard-response","406","663365","0.0-1.0-555.0-0.0","0","0","75910","","null","","","null","61","","","","","","","","","","","","","","","",""
"","ITI","","html-keyboard-response","407","664373","0.0-1.0-558.0","0","0","75910","","null","","","null","61","","","","","","","","","","","","","","","NaN",""
"","S1","","html-keyboard-response","408","664630","0.0-1.0-560.0","0","0","75910","","null","","","null","62","","","","","","","","","","","","","","","",""
"","ISI","","html-keyboard-response","409","666646","0.0-1.0-561.0","0","0","75910","","null","","","null","62","NaN","","","","","","","","","","","","","","",""
"","S2","","html-keyboard-response","410","666908","0.0-1.0-562.0","0","0","75910","","null","","","null","62","","NaN","","","","","","","","","","","","","",""
"","response","","html-keyboard-response","411","666991","0.0-1.0-563.0","0","0","75910","","79","","","75","62","","","2","62","training","adjacent","EF","5","6","N.jpg","M.jpg","0","1","0","",""
"","feedback","","html-keyboard-response","412","668001","0.0-1.0-564.0-0.0","0","0","75910","","null","","","null","62","","","","","","","","","","","","","","","",""
"","time_out","","html-keyboard-response","413","670013","0.0-1.0-566.0-0.0","0","0","75910","","null","","","null","62","","","","","","","","","","","","","","","",""
"","ITI","","html-keyboard-response","414","671025","0.0-1.0-567.0","0","0","75910","","null","","","null","62","","","","","","","","","","","","","","","NaN",""
"","S1","","html-keyboard-response","415","671284","0.0-1.0-569.0","0","0","75910","","null","","","null","63","","","","","","","","","","","","","","","",""
"","ISI","","html-keyboard-response","416","673294","0.0-1.0-570.0","0","0","75910","","null","","","null","63","NaN","","","","","","","","","","","","","","",""
"","S2","","html-keyboard-response","417","673548","0.0-1.0-571.0","0","0","75910","","null","","","null","63","","NaN","","","","","","","","","","","","","",""
"","response","","html-keyboard-response","418","673635","0.0-1.0-572.0","0","0","75910","","84","","","68","63","","","2","63","training","adjacent","FE","6","5","M.jpg","N.jpg","1","0","0","",""
"","feedback","","html-keyboard-response","419","674639","0.0-1.0-573.0-0.0","0","0","75910","","null","","","null","63","","","","","","","","","","","","","","","",""
"","time_out","","html-keyboard-response","420","676652","0.0-1.0-575.0-0.0","0","0","75910","","null","","","null","63","","","","","","","","","","","","","","","",""
"","ITI","","html-keyboard-response","421","677659","0.0-1.0-576.0","0","0","75910","","null","","","null","63","","","","","","","","","","","","","","","NaN",""
"","S1","","html-keyboard-response","422","677921","0.0-1.0-578.0","0","0","75910","","null","","","null","64","","","","","","","","","","","","","","","",""
"","ISI","","html-keyboard-response","423","679928","0.0-1.0-579.0","0","0","75910","","null","","","null","64","NaN","","","","","","","","","","","","","","",""
"","S2","","html-keyboard-response","424","680190","0.0-1.0-580.0","0","0","75910","","null","","","null","64","","NaN","","","","","","","","","","","","","",""
"","response","","html-keyboard-response","425","680267","0.0-1.0-581.0","0","0","75910","","74","","","75","64","","","2","64","training","adjacent","FG","6","7","M.jpg","R.jpg","0","1","0","",""
"","feedback","","html-keyboard-response","426","681271","0.0-1.0-582.0-0.0","0","0","75910","","null","","","null","64","","","","","","","","","","","","","","","",""
"","time_out","","html-keyboard-response","427","683276","0.0-1.0-584.0-0.0","0","0","75910","","null","","","null","64","","","","","","","","","","","","","","","",""
"","ITI","","html-keyboard-response","428","684285","0.0-1.0-585.0","0","0","75910","","null","","","null","64","","","","","","","","","","","","","","","NaN",""
"","S1","","html-keyboard-response","429","684540","0.0-1.0-587.0","0","0","75910","","null","","","null","65","","","","","","","","","","","","","","","",""
"","ISI","","html-keyboard-response","430","686549","0.0-1.0-588.0","0","0","75910","","null","","","null","65","NaN","","","","","","","","","","","","","","",""
"","S2","","html-keyboard-response","431","686810","0.0-1.0-589.0","0","0","75910","","null","","","null","65","","NaN","","","","","","","","","","","","","",""
"","response","","html-keyboard-response","432","687056","0.0-1.0-590.0","0","0","75910","","242","","","68","65","","","2","65","training","adjacent","EF","5","6","N.jpg","M.jpg","1","1","1","",""
"","feedback","","html-keyboard-response","433","688069","0.0-1.0-591.0-0.0","0","0","75910","","null","","","null","65","","","","","","","","","","","","","","","",""
"","ITI","","html-keyboard-response","434","689087","0.0-1.0-594.0","0","0","75910","","null","","","null","65","","","","","","","","","","","","","","","NaN",""
"","S1","","html-keyboard-response","435","689351","0.0-1.0-596.0","0","0","75910","","null","","","null","66","","","","","","","","","","","","","","","",""
"","ISI","","html-keyboard-response","436","691364","0.0-1.0-597.0","0","0","75910","","null","","","null","66","NaN","","","","","","","","","","","","","","",""
"","S2","","html-keyboard-response","437","691633","0.0-1.0-598.0","0","0","75910","","null","","","null","66","","NaN","","","","","","","","","","","","","",""
"","response","","html-keyboard-response","438","691800","0.0-1.0-599.0","0","0","75910","","162","","","75","66","","","2","66","training","adjacent","FG","6","7","M.jpg","R.jpg","0","1","0","",""
"","feedback","","html-keyboard-response","439","692818","0.0-1.0-600.0-0.0","0","0","75910","","null","","","null","66","","","","","","","","","","","","","","","",""
"","time_out","","html-keyboard-response","440","694832","0.0-1.0-602.0-0.0","0","0","75910","","null","","","null","66","","","","","","","","","","","","","","","",""
"","ITI","","html-keyboard-response","441","695836","0.0-1.0-603.0","0","0","75910","","null","","","null","66","","","","","","","","","","","","","","","NaN",""
"","S1","","html-keyboard-response","442","696090","0.0-1.0-605.0","0","0","75910","","null","","","null","67","","","","","","","","","","","","","","","",""
"","ISI","","html-keyboard-response","443","698097","0.0-1.0-606.0","0","0","75910","","null","","","null","67","NaN","","","","","","","","","","","","","","",""
"","S2","","html-keyboard-response","444","698362","0.0-1.0-607.0","0","0","75910","","null","","","null","67","","NaN","","","","","","","","","","","","","",""
"","response","","html-keyboard-response","445","700373","0.0-1.0-608.0","0","0","75910","","null","","","null","67","","","2","67","training","adjacent","DE","4","5","P.jpg","N.jpg","NaN","1","0","",""
"","too_slow_prompt","","html-keyboard-response","446","701386","0.0-1.0-610.0-0.0","1","0","75910","","null","","","null","","","","","","","","","","","","","","","","",""
"","time_out","","html-keyboard-response","447","703406","0.0-1.0-611.0-0.0","0","0","75910","","null","","","null","67","","","","","","","","","","","","","","","",""
"","ITI","","html-keyboard-response","448","704414","0.0-1.0-612.0","0","0","75910","","null","","","null","67","","","","","","","","","","","","","","","NaN",""
"","S1","","html-keyboard-response","449","704683","0.0-1.0-614.0","0","0","75910","","null","","","null","68","","","","","","","","","","","","","","","",""
"","ISI","","html-keyboard-response","450","706689","0.0-1.0-615.0","0","0","75910","","null","","","null","68","NaN","","","","","","","","","","","","","","",""
"","S2","","html-keyboard-response","451","706945","0.0-1.0-616.0","0","0","75910","","null","","","null","68","","NaN","","","","","","","","","","","","","",""
"","response","","html-keyboard-response","452","707537","0.0-1.0-617.0","0","0","75910","","590","","","75","68","","","2","68","training","adjacent","AB","1","2","Q.jpg","L.jpg","0","1","0","",""
"","feedback","","html-keyboard-response","453","708548","0.0-1.0-618.0-0.0","0","0","75910","","null","","","null","68","","","","","","","","","","","","","","","",""
"","time_out","","html-keyboard-response","454","710553","0.0-1.0-620.0-0.0","0","0","75910","","null","","","null","68","","","","","","","","","","","","","","","",""
"","ITI","","html-keyboard-response","455","711564","0.0-1.0-621.0","0","0","75910","","null","","","null","68","","","","","","","","","","","","","","","NaN",""
"","S1","","html-keyboard-response","456","711823","0.0-1.0-623.0","0","0","75910","","null","","","null","69","","","","","","","","","","","","","","","",""
"","ISI","","html-keyboard-response","457","713835","0.0-1.0-624.0","0","0","75910","","null","","","null","69","NaN","","","","","","","","","","","","","","",""
"","S2","","html-keyboard-response","458","714089","0.0-1.0-625.0","0","0","75910","","null","","","null","69","","NaN","","","","","","","","","","","","","",""
"","response","","html-keyboard-response","459","714270","0.0-1.0-626.0","0","0","75910","","178","","","68","69","","","2","69","training","adjacent","BC","2","3","L.jpg","O.jpg","1","1","1","",""
"","feedback","","html-keyboard-response","460","715280","0.0-1.0-627.0-0.0","0","0","75910","","null","","","null","69","","","","","","","","","","","","","","","",""
"","ITI","","html-keyboard-response","461","716291","0.0-1.0-630.0","0","0","75910","","null","","","null","69","","","","","","","","","","","","","","","NaN",""
"","S1","","html-keyboard-response","462","716549","0.0-1.0-632.0","0","0","75910","","null","","","null","70","","","","","","","","","","","","","","","",""
"","ISI","","html-keyboard-response","463","718563","0.0-1.0-633.0","0","0","75910","","null","","","null","70","NaN","","","","","","","","","","","","","","",""
"","S2","","html-keyboard-response","464","718818","0.0-1.0-634.0","0","0","75910","","null","","","null","70","","NaN","","","","","","","","","","","","","",""
"","response","","html-keyboard-response","465","718942","0.0-1.0-635.0","0","0","75910","","123","","","68","70","","","2","70","training","adjacent","BC","2","3","L.jpg","O.jpg","1","1","1","",""
"","feedback","","html-keyboard-response","466","719952","0.0-1.0-636.0-0.0","0","0","75910","","null","","","null","70","","","","","","","","","","","","","","","",""
"","ITI","","html-keyboard-response","467","720966","0.0-1.0-639.0","0","0","75910","","null","","","null","70","","","","","","","","","","","","","","","NaN",""
"","S1","","html-keyboard-response","468","721222","0.0-1.0-641.0","0","0","75910","","null","","","null","71","","","","","","","","","","","","","","","",""
"","ISI","","html-keyboard-response","469","723231","0.0-1.0-642.0","0","0","75910","","null","","","null","71","NaN","","","","","","","","","","","","","","",""
"","S2","","html-keyboard-response","470","723492","0.0-1.0-643.0","0","0","75910","","null","","","null","71","","NaN","","","","","","","","","","","","","",""
"","response","","html-keyboard-response","471","723685","0.0-1.0-644.0","0","0","75910","","189","","","68","71","","","2","71","training","adjacent","CB","3","2","O.jpg","L.jpg","1","0","0","",""
"","feedback","","html-keyboard-response","472","724694","0.0-1.0-645.0-0.0","0","0","75910","","null","","","null","71","","","","","","","","","","","","","","","",""
"","time_out","","html-keyboard-response","473","726702","0.0-1.0-647.0-0.0","0","0","75910","","null","","","null","71","","","","","","","","","","","","","","","",""
"","ITI","","html-keyboard-response","474","727719","0.0-1.0-648.0","0","0","75910","","null","","","null","71","","","","","","","","","","","","","","","NaN",""
"","S1","","html-keyboard-response","475","727983","0.0-1.0-650.0","0","0","75910","","null","","","null","72","","","","","","","","","","","","","","","",""
"","ISI","","html-keyboard-response","476","729996","0.0-1.0-651.0","0","0","75910","","null","","","null","72","NaN","","","","","","","","","","","","","","",""
"","S2","","html-keyboard-response","477","730251","0.0-1.0-652.0","0","0","75910","","null","","","null","72","","NaN","","","","","","","","","","","","","",""
"","response","","html-keyboard-response","478","730335","0.0-1.0-653.0","0","0","75910","","82","","","75","72","","","2","72","training","adjacent","GF","7","6","R.jpg","M.jpg","0","0","1","",""
"","feedback","","html-keyboard-response","479","731346","0.0-1.0-654.0-0.0","0","0","75910","","null","","","null","72","","","","","","","","","","","","","","","",""
"","ITI","","html-keyboard-response","480","732360","0.0-1.0-657.0","0","0","75910","","null","","","null","72","","","","","","","","","","","","","","","NaN",""
"","S1","","html-keyboard-response","481","732618","0.0-1.0-659.0","0","0","75910","","null","","","null","73","","","","","","","","","","","","","","","",""
"","ISI","","html-keyboard-response","482","734621","0.0-1.0-660.0","0","0","75910","","null","","","null","73","NaN","","","","","","","","","","","","","","",""
"","S2","","html-keyboard-response","483","734880","0.0-1.0-661.0","0","0","75910","","null","","","null","73","","NaN","","","","","","","","","","","","","",""
"","response","","html-keyboard-response","484","735020","0.0-1.0-662.0","0","0","75910","","137","","","75","73","","","2","73","training","adjacent","BC","2","3","L.jpg","O.jpg","0","1","0","",""
"","feedback","","html-keyboard-response","485","736026","0.0-1.0-663.0-0.0","0","0","75910","","null","","","null","73","","","","","","","","","","","","","","","",""
"","time_out","","html-keyboard-response","486","738041","0.0-1.0-665.0-0.0","0","0","75910","","null","","","null","73","","","","","","","","","","","","","","","",""
"","ITI","","html-keyboard-response","487","739060","0.0-1.0-666.0","0","0","75910","","null","","","null","73","","","","","","","","","","","","","","","NaN",""
"","S1","","html-keyboard-response","488","739319","0.0-1.0-668.0","0","0","75910","","null","","","null","74","","","","","","","","","","","","","","","",""
"","ISI","","html-keyboard-response","489","741327","0.0-1.0-669.0","0","0","75910","","null","","","null","74","NaN","","","","","","","","","","","","","","",""
"","S2","","html-keyboard-response","490","741584","0.0-1.0-670.0","0","0","75910","","null","","","null","74","","NaN","","","","","","","","","","","","","",""
"","response","","html-keyboard-response","491","741894","0.0-1.0-671.0","0","0","75910","","307","","","68","74","","","2","74","training","adjacent","FG","6","7","M.jpg","R.jpg","1","1","1","",""
"","feedback","","html-keyboard-response","492","742906","0.0-1.0-672.0-0.0","0","0","75910","","null","","","null","74","","","","","","","","","","","","","","","",""
"","ITI","","html-keyboard-response","493","743917","0.0-1.0-675.0","0","0","75910","","null","","","null","74","","","","","","","","","","","","","","","NaN",""
"","S1","","html-keyboard-response","494","744176","0.0-1.0-677.0","0","0","75910","","null","","","null","75","","","","","","","","","","","","","","","",""
"","ISI","","html-keyboard-response","495","746190","0.0-1.0-678.0","0","0","75910","","null","","","null","75","NaN","","","","","","","","","","","","","","",""
"","S2","","html-keyboard-response","496","746455","0.0-1.0-679.0","0","0","75910","","null","","","null","75","","NaN","","","","","","","","","","","","","",""
"","response","","html-keyboard-response","497","746929","0.0-1.0-680.0","0","0","75910","","470","","","75","75","","","2","75","training","adjacent","FE","6","5","M.jpg","N.jpg","0","0","1","",""
"","feedback","","html-keyboard-response","498","747934","0.0-1.0-681.0-0.0","0","0","75910","","null","","","null","75","","","","","","","","","","","","","","","",""
"","ITI","","html-keyboard-response","499","748958","0.0-1.0-684.0","0","0","75910","","null","","","null","75","","","","","","","","","","","","","","","NaN",""
"","S1","","html-keyboard-response","500","749218","0.0-1.0-686.0","0","0","75910","","null","","","null","76","","","","","","","","","","","","","","","",""
"","ISI","","html-keyboard-response","501","751231","0.0-1.0-687.0","0","0","75910","","null","","","null","76","NaN","","","","","","","","","","","","","","",""
"","S2","","html-keyboard-response","502","751492","0.0-1.0-688.0","0","0","75910","","null","","","null","76","","NaN","","","","","","","","","","","","","",""
"","response","","html-keyboard-response","503","751713","0.0-1.0-689.0","0","0","75910","","215","","","75","76","","","2","76","training","adjacent","GF","7","6","R.jpg","M.jpg","0","0","1","",""
"","feedback","","html-keyboard-response","504","752729","0.0-1.0-690.0-0.0","0","0","75910","","null","","","null","76","","","","","","","","","","","","","","","",""
"","ITI","","html-keyboard-response","505","753753","0.0-1.0-693.0","0","0","75910","","null","","","null","76","","","","","","","","","","","","","","","NaN",""
"","S1","","html-keyboard-response","506","754010","0.0-1.0-695.0","0","0","75910","","null","","","null","77","","","","","","","","","","","","","","","",""
"","ISI","","html-keyboard-response","507","756023","0.0-1.0-696.0","0","0","75910","","null","","","null","77","NaN","","","","","","","","","","","","","","",""
"","S2","","html-keyboard-response","508","756287","0.0-1.0-697.0","0","0","75910","","null","","","null","77","","NaN","","","","","","","","","","","","","",""
"","response","","html-keyboard-response","509","756584","0.0-1.0-698.0","0","0","75910","","293","","","68","77","","","2","77","training","adjacent","CB","3","2","O.jpg","L.jpg","1","0","0","",""
"","feedback","","html-keyboard-response","510","757596","0.0-1.0-699.0-0.0","0","0","75910","","null","","","null","77","","","","","","","","","","","","","","","",""
"","time_out","","html-keyboard-response","511","759610","0.0-1.0-701.0-0.0","0","0","75910","","null","","","null","77","","","","","","","","","","","","","","","",""
"","ITI","","html-keyboard-response","512","760624","0.0-1.0-702.0","0","0","75910","","null","","","null","77","","","","","","","","","","","","","","","NaN",""
"","S1","","html-keyboard-response","513","760883","0.0-1.0-704.0","0","0","75910","","null","","","null","78","","","","","","","","","","","","","","","",""
"","ISI","","html-keyboard-response","514","762895","0.0-1.0-705.0","0","0","75910","","null","","","null","78","NaN","","","","","","","","","","","","","","",""
"","S2","","html-keyboard-response","515","763157","0.0-1.0-706.0","0","0","75910","","null","","","null","78","","NaN","","","","","","","","","","","","","",""
"","response","","html-keyboard-response","516","763213","0.0-1.0-707.0","0","0","75910","","53","","","75","78","","","2","78","training","adjacent","FG","6","7","M.jpg","R.jpg","0","1","0","",""
"","feedback","","html-keyboard-response","517","764224","0.0-1.0-708.0-0.0","0","0","75910","","null","","","null","78","","","","","","","","","","","","","","","",""
"","time_out","","html-keyboard-response","518","766233","0.0-1.0-710.0-0.0","0","0","75910","","null","","","null","78","","","","","","","","","","","","","","","",""
"","ITI","","html-keyboard-response","519","767239","0.0-1.0-711.0","0","0","75910","","null","","","null","78","","","","","","","","","","","","","","","NaN",""
"","S1","","html-keyboard-response","520","767504","0.0-1.0-713.0","0","0","75910","","null","","","null","79","","","","","","","","","","","","","","","",""
"","ISI","","html-keyboard-response","521","769518","0.0-1.0-714.0","0","0","75910","","null","","","null","79","NaN","","","","","","","","","","","","","","",""
"","S2","","html-keyboard-response","522","769782","0.0-1.0-715.0","0","0","75910","","null","","","null","79","","NaN","","","","","","","","","","","","","",""
"","response","","html-keyboard-response","523","769869","0.0-1.0-716.0","0","0","75910","","84","","","68","79","","","2","79","training","adjacent","CB","3","2","O.jpg","L.jpg","1","0","0","",""
"","feedback","","html-keyboard-response","524","770880","0.0-1.0-717.0-0.0","0","0","75910","","null","","","null","79","","","","","","","","","","","","","","","",""
"","time_out","","html-keyboard-response","525","772892","0.0-1.0-719.0-0.0","0","0","75910","","null","","","null","79","","","","","","","","","","","","","","","",""
"","ITI","","html-keyboard-response","526","773897","0.0-1.0-720.0","0","0","75910","","null","","","null","79","","","","","","","","","","","","","","","NaN",""
"","S1","","html-keyboard-response","527","774151","0.0-1.0-722.0","0","0","75910","","null","","","null","80","","","","","","","","","","","","","","","",""
"","ISI","","html-keyboard-response","528","776171","0.0-1.0-723.0","0","0","75910","","189","","","75","80","k","","","","","","","","","","","","","","",""
"","S2","","html-keyboard-response","529","776443","0.0-1.0-724.0","0","0","75910","","236","","","75","80","","k","","","","","","","","","","","","","",""
"","response","","html-keyboard-response","530","777207","0.0-1.0-725.0","0","0","75910","","760","","","75","80","","","2","80","training","adjacent","FE","6","5","M.jpg","N.jpg","0","0","1","",""
"","feedback","","html-keyboard-response","531","778216","0.0-1.0-726.0-0.0","0","0","75910","","null","","","null","80","","","","","","","","","","","","","","","",""
"","ITI","","html-keyboard-response","532","779222","0.0-1.0-729.0","0","0","75910","","null","","","null","80","","","","","","","","","","","","","","","NaN",""
"","S1","","html-keyboard-response","533","779484","0.0-1.0-731.0","0","0","75910","","null","","","null","81","","","","","","","","","","","","","","","",""
"","ISI","","html-keyboard-response","534","781492","0.0-1.0-732.0","0","0","75910","","null","","","null","81","NaN","","","","","","","","","","","","","","",""
"","S2","","html-keyboard-response","535","781747","0.0-1.0-733.0","0","0","75910","","null","","","null","81","","NaN","","","","","","","","","","","","","",""
"","response","","html-keyboard-response","536","781943","0.0-1.0-734.0","0","0","75910","","192","","","75","81","","","2","81","training","adjacent","AB","1","2","Q.jpg","L.jpg","0","1","0","",""
"","feedback","","html-keyboard-response","537","782960","0.0-1.0-735.0-0.0","0","0","75910","","null","","","null","81","","","","","","","","","","","","","","","",""
"","time_out","","html-keyboard-response","538","784971","0.0-1.0-737.0-0.0","0","0","75910","","null","","","null","81","","","","","","","","","","","","","","","",""
"","ITI","","html-keyboard-response","539","785980","0.0-1.0-738.0","0","0","75910","","null","","","null","81","","","","","","","","","","","","","","","NaN",""
"","S1","","html-keyboard-response","540","786242","0.0-1.0-740.0","0","0","75910","","null","","","null","82","","","","","","","","","","","","","","","",""
"","ISI","","html-keyboard-response","541","788255","0.0-1.0-741.0","0","0","75910","","null","","","null","82","NaN","","","","","","","","","","","","","","",""
"","S2","","html-keyboard-response","542","788517","0.0-1.0-742.0","0","0","75910","","null","","","null","82","","NaN","","","","","","","","","","","","","",""
"","response","","html-keyboard-response","543","788725","0.0-1.0-743.0","0","0","75910","","204","","","75","82","","","2","82","training","adjacent","DC","4","3","P.jpg","O.jpg","0","0","1","",""
"","feedback","","html-keyboard-response","544","789739","0.0-1.0-744.0-0.0","0","0","75910","","null","","","null","82","","","","","","","","","","","","","","","",""
"","ITI","","html-keyboard-response","545","790753","0.0-1.0-747.0","0","0","75910","","null","","","null","82","","","","","","","","","","","","","","","NaN",""
"","S1","","html-keyboard-response","546","791010","0.0-1.0-749.0","0","0","75910","","null","","","null","83","","","","","","","","","","","","","","","",""
"","ISI","","html-keyboard-response","547","793019","0.0-1.0-750.0","0","0","75910","","null","","","null","83","NaN","","","","","","","","","","","","","","",""
"","S2","","html-keyboard-response","548","793283","0.0-1.0-751.0","0","0","75910","","null","","","null","83","","NaN","","","","","","","","","","","","","",""
"","response","","html-keyboard-response","549","793392","0.0-1.0-752.0","0","0","75910","","108","","","75","83","","","2","83","training","adjacent","CB","3","2","O.jpg","L.jpg","0","0","1","",""
"","feedback","","html-keyboard-response","550","794403","0.0-1.0-753.0-0.0","0","0","75910","","null","","","null","83","","","","","","","","","","","","","","","",""
"","ITI","","html-keyboard-response","551","795422","0.0-1.0-756.0","0","0","75910","","null","","","null","83","","","","","","","","","","","","","","","NaN",""
"","S1","","html-keyboard-response","552","795683","0.0-1.0-758.0","0","0","75910","","null","","","null","84","","","","","","","","","","","","","","","",""
"","ISI","","html-keyboard-response","553","797693","0.0-1.0-759.0","0","0","75910","","null","","","null","84","NaN","","","","","","","","","","","","","","",""
"","S2","","html-keyboard-response","554","797956","0.0-1.0-760.0","0","0","75910","","259","","","75","84","","k","","","","","","","","","","","","","",""
"","response","","html-keyboard-response","555","798535","0.0-1.0-761.0","0","0","75910","","575","","","75","84","","","2","84","training","adjacent","EF","5","6","N.jpg","M.jpg","0","1","0","",""
"","feedback","","html-keyboard-response","556","799543","0.0-1.0-762.0-0.0","0","0","75910","","null","","","null","84","","","","","","","","","","","","","","","",""
"","time_out","","html-keyboard-response","557","801550","0.0-1.0-764.0-0.0","0","0","75910","","null","","","null","84","","","","","","","","","","","","","","","",""
"","ITI","","html-keyboard-response","558","802561","0.0-1.0-765.0","0","0","75910","","null","","","null","84","","","","","","","","","","","","","","","NaN",""
"","S1","","html-keyboard-response","559","802823","0.0-1.0-767.0","0","0","75910","","null","","","null","85","","","","","","","","","","","","","","","",""
"","ISI","","html-keyboard-response","560","804835","0.0-1.0-768.0","0","0","75910","","null","","","null","85","NaN","","","","","","","","","","","","","","",""
"","S2","","html-keyboard-response","561","805103","0.0-1.0-769.0","0","0","75910","","null","","","null","85","","NaN","","","","","","","","","","","","","",""
"","response","","html-keyboard-response","562","805230","0.0-1.0-770.0","0","0","75910","","124","","","75","85","","","2","85","training","adjacent","BA","2","1","L.jpg","Q.jpg","0","0","1","",""
"","feedback","","html-keyboard-response","563","806239","0.0-1.0-771.0-0.0","0","0","75910","","null","","","null","85","","","","","","","","","","","","","","","",""
"","ITI","","html-keyboard-response","564","807245","0.0-1.0-774.0","0","0","75910","","null","","","null","85","","","","","","","","","","","","","","","NaN",""
"","S1","","html-keyboard-response","565","807501","0.0-1.0-776.0","0","0","75910","","null","","","null","86","","","","","","","","","","","","","","","",""
"","ISI","","html-keyboard-response","566","809519","0.0-1.0-777.0","0","0","75910","","null","","","null","86","NaN","","","","","","","","","","","","","","",""
"","S2","","html-keyboard-response","567","809775","0.0-1.0-778.0","0","0","75910","","null","","","null","86","","NaN","","","","","","","","","","","","","",""
"","response","","html-keyboard-response","568","809861","0.0-1.0-779.0","0","0","75910","","84","","","68","86","","","2","86","training","adjacent","CD","3","4","O.jpg","P.jpg","1","1","1","",""
"","feedback","","html-keyboard-response","569","810867","0.0-1.0-780.0-0.0","0","0","75910","","null","","","null","86","","","","","","","","","","","","","","","",""
"","ITI","","html-keyboard-response","570","811885","0.0-1.0-783.0","0","0","75910","","null","","","null","86","","","","","","","","","","","","","","","NaN",""
"","S1","","html-keyboard-response","571","812165","0.0-1.0-785.0","0","0","75910","","null","","","null","87","","","","","","","","","","","","","","","",""
"","ISI","","html-keyboard-response","572","814171","0.0-1.0-786.0","0","0","75910","","null","","","null","87","NaN","","","","","","","","","","","","","","",""
"","S2","","html-keyboard-response","573","814435","0.0-1.0-787.0","0","0","75910","","null","","","null","87","","NaN","","","","","","","","","","","","","",""
"","response","","html-keyboard-response","574","814506","0.0-1.0-788.0","0","0","75910","","67","","","75","87","","","2","87","training","adjacent","AB","1","2","Q.jpg","L.jpg","0","1","0","",""
"","feedback","","html-keyboard-response","575","815517","0.0-1.0-789.0-0.0","0","0","75910","","null","","","null","87","","","","","","","","","","","","","","","",""
"","time_out","","html-keyboard-response","576","817526","0.0-1.0-791.0-0.0","0","0","75910","","null","","","null","87","","","","","","","","","","","","","","","",""
"","ITI","","html-keyboard-response","577","818546","0.0-1.0-792.0","0","0","75910","","null","","","null","87","","","","","","","","","","","","","","","NaN",""
"","S1","","html-keyboard-response","578","818808","0.0-1.0-794.0","0","0","75910","","null","","","null","88","","","","","","","","","","","","","","","",""
"","ISI","","html-keyboard-response","579","820825","0.0-1.0-795.0","0","0","75910","","null","","","null","88","NaN","","","","","","","","","","","","","","",""
"","S2","","html-keyboard-response","580","821084","0.0-1.0-796.0","0","0","75910","","null","","","null","88","","NaN","","","","","","","","","","","","","",""
"","response","","html-keyboard-response","581","821286","0.0-1.0-797.0","0","0","75910","","199","","","68","88","","","2","88","training","adjacent","AB","1","2","Q.jpg","L.jpg","1","1","1","",""
"","feedback","","html-keyboard-response","582","822292","0.0-1.0-798.0-0.0","0","0","75910","","null","","","null","88","","","","","","","","","","","","","","","",""
"","ITI","","html-keyboard-response","583","823302","0.0-1.0-801.0","0","0","75910","","null","","","null","88","","","","","","","","","","","","","","","NaN",""
"","S1","","html-keyboard-response","584","823565","0.0-1.0-803.0","0","0","75910","","null","","","null","89","","","","","","","","","","","","","","","",""
