"success","ttype","start_time","trial_type","trial_index","time_elapsed","internal_node_id","warning","missed_checkup","PID","view_history","rt","responses","repeat_instructions","key_press","index","keypress_isi","keypress_S2","block","trial_num","phase","group_type","pair_type","S1_stim","S2_stim","S1_img","S2_img","S1_chosen","S1_higher","accuracy","keypress_iti","total_bonus_tally"
"true","full_screen","d08012022hr1339","fullscreen","0","4438","0.0-0.0","0","0","74305","","","","","","","","","","","","","","","","","","","","","",""
"","instructions","","instructions","1","20404","0.0-1.0-0.0-0.0","0","0","74305","[{""page_index"":0,""viewing_time"":2435},{""page_index"":1,""viewing_time"":8264},{""page_index"":2,""viewing_time"":4352},{""page_index"":3,""viewing_time"":913}]","15965","","","","","","","","","","","","","","","","","","","",""
"","comprehension_check","","survey-multi-choice","2","30123","0.0-1.0-0.0-1.0","0","0","74305","","9716","{""Q0"":""True"",""Q1"":""K"",""Q2"":""When you see the prompt 'MAKE A CHOICE' after the second image was presented"",""Q3"":""Green mark"",""Q4"":""either D or K""}","0","","","","","","","","","","","","","","","","","",""
"","start_exp","","html-keyboard-response","3","32403","0.0-1.0-1.0","0","0","74305","","2278","","","32","","","","","","","","","","","","","","","","",""
"","S1","","html-keyboard-response","4","32657","0.0-1.0-2.0","0","0","74305","","null","","","null","0","","","","","","","","","","","","","","","",""
"","ISI","","html-keyboard-response","5","34659","0.0-1.0-3.0","0","0","74305","","null","","","null","0","NaN","","","","","","","","","","","","","","",""
"","S2","","html-keyboard-response","6","34914","0.0-1.0-4.0","0","0","74305","","null","","","null","0","","NaN","","","","","","","","","","","","","",""
"","response","","html-keyboard-response","7","35293","0.0-1.0-5.0","0","0","74305","","378","","","75","0","","","1","0","training","adjacent","DE","4","5","M.jpg","R.jpg","1","1","1","",""
"","feedback","","html-keyboard-response","8","36295","0.0-1.0-6.0-0.0","0","0","74305","","null","","","null","0","","","","","","","","","","","","","","","",""
"","ITI","","html-keyboard-response","9","37297","0.0-1.0-9.0","0","0","74305","","null","","","null","0","","","","","","","","","","","","","","","NaN",""
"","S1","","html-keyboard-response","10","37551","0.0-1.0-11.0","0","0","74305","","null","","","null","1","","","","","","","","","","","","","","","",""
"","ISI","","html-keyboard-response","11","39553","0.0-1.0-12.0","0","0","74305","","null","","","null","1","NaN","","","","","","","","","","","","","","",""
"","S2","","html-keyboard-response","12","39805","0.0-1.0-13.0","0","0","74305","","null","","","null","1","","NaN","","","","","","","","","","","","","",""
"","response","","html-keyboard-response","13","41260","0.0-1.0-14.0","0","0","74305","","1454","","","68","1","","","1","1","training","adjacent","BA","2","1","L.jpg","O.jpg","0","0","1","",""
"","feedback","","html-keyboard-response","14","42263","0.0-1.0-15.0-0.0","0","0","74305","","null","","","null","1","","","","","","","","","","","","","","","",""
"","ITI","","html-keyboard-response","15","43265","0.0-1.0-18.0","0","0","74305","","null","","","null","1","","","","","","","","","","","","","","","NaN",""
"","S1","","html-keyboard-response","16","43515","0.0-1.0-20.0","0","0","74305","","null","","","null","2","","","","","","","","","","","","","","","",""
"","ISI","","html-keyboard-response","17","45518","0.0-1.0-21.0","0","0","74305","","null","","","null","2","NaN","","","","","","","","","","","","","","",""
"","S2","","html-keyboard-response","18","45771","0.0-1.0-22.0","0","0","74305","","null","","","null","2","","NaN","","","","","","","","","","","","","",""
"","response","","html-keyboard-response","19","45841","0.0-1.0-23.0","0","0","74305","","69","","","75","2","","","1","2","training","adjacent","CD","3","4","N.jpg","M.jpg","1","1","1","",""
"","feedback","","html-keyboard-response","20","46844","0.0-1.0-24.0-0.0","0","0","74305","","null","","","null","2","","","","","","","","","","","","","","","",""
"","ITI","","html-keyboard-response","21","47847","0.0-1.0-27.0","0","0","74305","","null","","","null","2","","","","","","","","","","","","","","","NaN",""
"","S1","","html-keyboard-response","22","48098","0.0-1.0-29.0","0","0","74305","","null","","","null","3","","","","","","","","","","","","","","","",""
"","ISI","","html-keyboard-response","23","50100","0.0-1.0-30.0","0","0","74305","","null","","","null","3","NaN","","","","","","","","","","","","","","",""
"","S2","","html-keyboard-response","24","50352","0.0-1.0-31.0","0","0","74305","","null","","","null","3","","NaN","","","","","","","","","","","","","",""
"","response","","html-keyboard-response","25","50378","0.0-1.0-32.0","0","0","74305","","24","","","68","3","","","1","3","training","adjacent","CB","3","2","N.jpg","L.jpg","0","0","1","",""
"","feedback","","html-keyboard-response","26","51381","0.0-1.0-33.0-0.0","0","0","74305","","null","","","null","3","","","","","","","","","","","","","","","",""
"","ITI","","html-keyboard-response","27","52382","0.0-1.0-36.0","0","0","74305","","null","","","null","3","","","","","","","","","","","","","","","NaN",""
"","S1","","html-keyboard-response","28","52635","0.0-1.0-38.0","0","0","74305","","null","","","null","4","","","","","","","","","","","","","","","",""
"","ISI","","html-keyboard-response","29","54638","0.0-1.0-39.0","0","0","74305","","null","","","null","4","NaN","","","","","","","","","","","","","","",""
"","S2","","html-keyboard-response","30","54890","0.0-1.0-40.0","0","0","74305","","null","","","null","4","","NaN","","","","","","","","","","","","","",""
"","response","","html-keyboard-response","31","55105","0.0-1.0-41.0","0","0","74305","","214","","","68","4","","","1","4","training","adjacent","AB","1","2","O.jpg","L.jpg","0","1","0","",""
"","feedback","","html-keyboard-response","32","56108","0.0-1.0-42.0-0.0","0","0","74305","","null","","","null","4","","","","","","","","","","","","","","","",""
"","time_out","","html-keyboard-response","33","58110","0.0-1.0-44.0-0.0","0","0","74305","","null","","","null","4","","","","","","","","","","","","","","","",""
"","ITI","","html-keyboard-response","34","59112","0.0-1.0-45.0","0","0","74305","","null","","","null","4","","","","","","","","","","","","","","","NaN",""
"","S1","","html-keyboard-response","35","59365","0.0-1.0-47.0","0","0","74305","","null","","","null","5","","","","","","","","","","","","","","","",""
"","ISI","","html-keyboard-response","36","61368","0.0-1.0-48.0","0","0","74305","","null","","","null","5","NaN","","","","","","","","","","","","","","",""
"","S2","","html-keyboard-response","37","61620","0.0-1.0-49.0","0","0","74305","","null","","","null","5","","NaN","","","","","","","","","","","","","",""
"","response","","html-keyboard-response","38","61866","0.0-1.0-50.0","0","0","74305","","244","","","75","5","","","1","5","training","adjacent","FG","6","7","P.jpg","Q.jpg","1","1","1","",""
"","feedback","","html-keyboard-response","39","62868","0.0-1.0-51.0-0.0","0","0","74305","","null","","","null","5","","","","","","","","","","","","","","","",""
"","ITI","","html-keyboard-response","40","63870","0.0-1.0-54.0","0","0","74305","","null","","","null","5","","","","","","","","","","","","","","","NaN",""
"","S1","","html-keyboard-response","41","64123","0.0-1.0-56.0","0","0","74305","","null","","","null","6","","","","","","","","","","","","","","","",""
"","ISI","","html-keyboard-response","42","66126","0.0-1.0-57.0","0","0","74305","","null","","","null","6","NaN","","","","","","","","","","","","","","",""
"","S2","","html-keyboard-response","43","66380","0.0-1.0-58.0","0","0","74305","","null","","","null","6","","NaN","","","","","","","","","","","","","",""
"","response","","html-keyboard-response","44","66410","0.0-1.0-59.0","0","0","74305","","28","","","75","6","","","1","6","training","adjacent","FG","6","7","P.jpg","Q.jpg","1","1","1","",""
"","feedback","","html-keyboard-response","45","67412","0.0-1.0-60.0-0.0","0","0","74305","","null","","","null","6","","","","","","","","","","","","","","","",""
"","ITI","","html-keyboard-response","46","68414","0.0-1.0-63.0","0","0","74305","","null","","","null","6","","","","","","","","","","","","","","","NaN",""
"","S1","","html-keyboard-response","47","68667","0.0-1.0-65.0","0","0","74305","","null","","","null","7","","","","","","","","","","","","","","","",""
"","ISI","","html-keyboard-response","48","70669","0.0-1.0-66.0","0","0","74305","","null","","","null","7","NaN","","","","","","","","","","","","","","",""
"","S2","","html-keyboard-response","49","70922","0.0-1.0-67.0","0","0","74305","","null","","","null","7","","NaN","","","","","","","","","","","","","",""
"","response","","html-keyboard-response","50","71153","0.0-1.0-68.0","0","0","74305","","230","","","75","7","","","1","7","training","adjacent","BC","2","3","L.jpg","N.jpg","1","1","1","",""
"","feedback","","html-keyboard-response","51","72155","0.0-1.0-69.0-0.0","0","0","74305","","null","","","null","7","","","","","","","","","","","","","","","",""
"","ITI","","html-keyboard-response","52","73158","0.0-1.0-72.0","0","0","74305","","null","","","null","7","","","","","","","","","","","","","","","NaN",""
"","S1","","html-keyboard-response","53","73410","0.0-1.0-74.0","0","0","74305","","null","","","null","8","","","","","","","","","","","","","","","",""
"","ISI","","html-keyboard-response","54","75413","0.0-1.0-75.0","0","0","74305","","null","","","null","8","NaN","","","","","","","","","","","","","","",""
"","S2","","html-keyboard-response","55","75665","0.0-1.0-76.0","0","0","74305","","null","","","null","8","","NaN","","","","","","","","","","","","","",""
"","response","","html-keyboard-response","56","75960","0.0-1.0-77.0","0","0","74305","","293","","","68","8","","","1","8","training","adjacent","DC","4","3","M.jpg","N.jpg","0","0","1","",""
"","feedback","","html-keyboard-response","57","76962","0.0-1.0-78.0-0.0","0","0","74305","","null","","","null","8","","","","","","","","","","","","","","","",""
"","ITI","","html-keyboard-response","58","77965","0.0-1.0-81.0","0","0","74305","","null","","","null","8","","","","","","","","","","","","","","","NaN",""
"","S1","","html-keyboard-response","59","78217","0.0-1.0-83.0","0","0","74305","","null","","","null","9","","","","","","","","","","","","","","","",""
"","ISI","","html-keyboard-response","60","80219","0.0-1.0-84.0","0","0","74305","","null","","","null","9","NaN","","","","","","","","","","","","","","",""
"","S2","","html-keyboard-response","61","80471","0.0-1.0-85.0","0","0","74305","","null","","","null","9","","NaN","","","","","","","","","","","","","",""
"","response","","html-keyboard-response","62","80489","0.0-1.0-86.0","0","0","74305","","16","","","68","9","","","1","9","training","adjacent","DE","4","5","M.jpg","R.jpg","0","1","0","",""
"","feedback","","html-keyboard-response","63","81491","0.0-1.0-87.0-0.0","0","0","74305","","null","","","null","9","","","","","","","","","","","","","","","",""
"","time_out","","html-keyboard-response","64","83494","0.0-1.0-89.0-0.0","0","0","74305","","null","","","null","9","","","","","","","","","","","","","","","",""
"","ITI","","html-keyboard-response","65","84496","0.0-1.0-90.0","0","0","74305","","null","","","null","9","","","","","","","","","","","","","","","NaN",""
"","S1","","html-keyboard-response","66","84749","0.0-1.0-92.0","0","0","74305","","null","","","null","10","","","","","","","","","","","","","","","",""
"","ISI","","html-keyboard-response","67","86752","0.0-1.0-93.0","0","0","74305","","null","","","null","10","NaN","","","","","","","","","","","","","","",""
"","S2","","html-keyboard-response","68","87004","0.0-1.0-94.0","0","0","74305","","null","","","null","10","","NaN","","","","","","","","","","","","","",""
"","response","","html-keyboard-response","69","87026","0.0-1.0-95.0","0","0","74305","","21","","","75","10","","","1","10","training","adjacent","DC","4","3","M.jpg","N.jpg","1","0","0","",""
"","feedback","","html-keyboard-response","70","88029","0.0-1.0-96.0-0.0","0","0","74305","","null","","","null","10","","","","","","","","","","","","","","","",""
"","time_out","","html-keyboard-response","71","90032","0.0-1.0-98.0-0.0","0","0","74305","","null","","","null","10","","","","","","","","","","","","","","","",""
"","ITI","","html-keyboard-response","72","91035","0.0-1.0-99.0","0","0","74305","","null","","","null","10","","","","","","","","","","","","","","","NaN",""
"","S1","","html-keyboard-response","73","91287","0.0-1.0-101.0","0","0","74305","","null","","","null","11","","","","","","","","","","","","","","","",""
"","ISI","","html-keyboard-response","74","93289","0.0-1.0-102.0","0","0","74305","","null","","","null","11","NaN","","","","","","","","","","","","","","",""
"","S2","","html-keyboard-response","75","93541","0.0-1.0-103.0","0","0","74305","","null","","","null","11","","NaN","","","","","","","","","","","","","",""
"","response","","html-keyboard-response","76","93865","0.0-1.0-104.0","0","0","74305","","323","","","75","11","","","1","11","training","adjacent","CD","3","4","N.jpg","M.jpg","1","1","1","",""
"","feedback","","html-keyboard-response","77","94868","0.0-1.0-105.0-0.0","0","0","74305","","null","","","null","11","","","","","","","","","","","","","","","",""
"","ITI","","html-keyboard-response","78","95870","0.0-1.0-108.0","0","0","74305","","null","","","null","11","","","","","","","","","","","","","","","NaN",""
"","S1","","html-keyboard-response","79","96123","0.0-1.0-110.0","0","0","74305","","null","","","null","12","","","","","","","","","","","","","","","",""
"","ISI","","html-keyboard-response","80","98125","0.0-1.0-111.0","0","0","74305","","null","","","null","12","NaN","","","","","","","","","","","","","","",""
"","S2","","html-keyboard-response","81","98377","0.0-1.0-112.0","0","0","74305","","null","","","null","12","","NaN","","","","","","","","","","","","","",""
"","response","","html-keyboard-response","82","98673","0.0-1.0-113.0","0","0","74305","","294","","","68","12","","","1","12","training","adjacent","CB","3","2","N.jpg","L.jpg","0","0","1","",""
"","feedback","","html-keyboard-response","83","99675","0.0-1.0-114.0-0.0","0","0","74305","","null","","","null","12","","","","","","","","","","","","","","","",""
"","ITI","","html-keyboard-response","84","100677","0.0-1.0-117.0","0","0","74305","","null","","","null","12","","","","","","","","","","","","","","","NaN",""
"","S1","","html-keyboard-response","85","100931","0.0-1.0-119.0","0","0","74305","","null","","","null","13","","","","","","","","","","","","","","","",""
"","ISI","","html-keyboard-response","86","102933","0.0-1.0-120.0","0","0","74305","","null","","","null","13","NaN","","","","","","","","","","","","","","",""
"","S2","","html-keyboard-response","87","103186","0.0-1.0-121.0","0","0","74305","","null","","","null","13","","NaN","","","","","","","","","","","","","",""
"","response","","html-keyboard-response","88","103450","0.0-1.0-122.0","0","0","74305","","263","","","75","13","","","1","13","training","adjacent","DC","4","3","M.jpg","N.jpg","1","0","0","",""
"","feedback","","html-keyboard-response","89","104450","0.0-1.0-123.0-0.0","0","0","74305","","null","","","null","13","","","","","","","","","","","","","","","",""
"","time_out","","html-keyboard-response","90","106452","0.0-1.0-125.0-0.0","0","0","74305","","null","","","null","13","","","","","","","","","","","","","","","",""
"","ITI","","html-keyboard-response","91","107455","0.0-1.0-126.0","0","0","74305","","null","","","null","13","","","","","","","","","","","","","","","NaN",""
"","S1","","html-keyboard-response","92","107720","0.0-1.0-128.0","0","0","74305","","null","","","null","14","","","","","","","","","","","","","","","",""
"","ISI","","html-keyboard-response","93","109722","0.0-1.0-129.0","0","0","74305","","null","","","null","14","NaN","","","","","","","","","","","","","","",""
"","S2","","html-keyboard-response","94","109975","0.0-1.0-130.0","0","0","74305","","null","","","null","14","","NaN","","","","","","","","","","","","","",""
"","response","","html-keyboard-response","95","110215","0.0-1.0-131.0","0","0","74305","","238","","","75","14","","","1","14","training","adjacent","FG","6","7","P.jpg","Q.jpg","1","1","1","",""
"","feedback","","html-keyboard-response","96","111217","0.0-1.0-132.0-0.0","0","0","74305","","null","","","null","14","","","","","","","","","","","","","","","",""
"","ITI","","html-keyboard-response","97","112220","0.0-1.0-135.0","0","0","74305","","null","","","null","14","","","","","","","","","","","","","","","NaN",""
"","S1","","html-keyboard-response","98","112473","0.0-1.0-137.0","0","0","74305","","null","","","null","15","","","","","","","","","","","","","","","",""
"","ISI","","html-keyboard-response","99","114475","0.0-1.0-138.0","0","0","74305","","null","","","null","15","NaN","","","","","","","","","","","","","","",""
"","S2","","html-keyboard-response","100","114729","0.0-1.0-139.0","0","0","74305","","null","","","null","15","","NaN","","","","","","","","","","","","","",""
"","response","","html-keyboard-response","101","114975","0.0-1.0-140.0","0","0","74305","","245","","","68","15","","","1","15","training","adjacent","ED","5","4","R.jpg","M.jpg","0","0","1","",""
"","feedback","","html-keyboard-response","102","115977","0.0-1.0-141.0-0.0","0","0","74305","","null","","","null","15","","","","","","","","","","","","","","","",""
"","ITI","","html-keyboard-response","103","116980","0.0-1.0-144.0","0","0","74305","","null","","","null","15","","","","","","","","","","","","","","","NaN",""
"","S1","","html-keyboard-response","104","117233","0.0-1.0-146.0","0","0","74305","","null","","","null","16","","","","","","","","","","","","","","","",""
"","ISI","","html-keyboard-response","105","119236","0.0-1.0-147.0","0","0","74305","","null","","","null","16","NaN","","","","","","","","","","","","","","",""
"","S2","","html-keyboard-response","106","119488","0.0-1.0-148.0","0","0","74305","","null","","","null","16","","NaN","","","","","","","","","","","","","",""
"","response","","html-keyboard-response","107","119718","0.0-1.0-149.0","0","0","74305","","229","","","68","16","","","1","16","training","adjacent","AB","1","2","O.jpg","L.jpg","0","1","0","",""
"","feedback","","html-keyboard-response","108","120721","0.0-1.0-150.0-0.0","0","0","74305","","null","","","null","16","","","","","","","","","","","","","","","",""
"","time_out","","html-keyboard-response","109","122723","0.0-1.0-152.0-0.0","0","0","74305","","null","","","null","16","","","","","","","","","","","","","","","",""
"","ITI","","html-keyboard-response","110","123726","0.0-1.0-153.0","0","0","74305","","null","","","null","16","","","","","","","","","","","","","","","NaN",""
"","S1","","html-keyboard-response","111","123978","0.0-1.0-155.0","0","0","74305","","null","","","null","17","","","","","","","","","","","","","","","",""
"","ISI","","html-keyboard-response","112","125980","0.0-1.0-156.0","0","0","74305","","null","","","null","17","NaN","","","","","","","","","","","","","","",""
"","S2","","html-keyboard-response","113","126233","0.0-1.0-157.0","0","0","74305","","null","","","null","17","","NaN","","","","","","","","","","","","","",""
"","response","","html-keyboard-response","114","126720","0.0-1.0-158.0","0","0","74305","","485","","","75","17","","","1","17","training","adjacent","CD","3","4","N.jpg","M.jpg","1","1","1","",""
"","feedback","","html-keyboard-response","115","127722","0.0-1.0-159.0-0.0","0","0","74305","","null","","","null","17","","","","","","","","","","","","","","","",""
"","ITI","","html-keyboard-response","116","128725","0.0-1.0-162.0","0","0","74305","","null","","","null","17","","","","","","","","","","","","","","","NaN",""
"","S1","","html-keyboard-response","117","128976","0.0-1.0-164.0","0","0","74305","","null","","","null","18","","","","","","","","","","","","","","","",""
"","ISI","","html-keyboard-response","118","130979","0.0-1.0-165.0","0","0","74305","","null","","","null","18","NaN","","","","","","","","","","","","","","",""
"","S2","","html-keyboard-response","119","131232","0.0-1.0-166.0","0","0","74305","","null","","","null","18","","NaN","","","","","","","","","","","","","",""
"","response","","html-keyboard-response","120","131488","0.0-1.0-167.0","0","0","74305","","254","","","68","18","","","1","18","training","adjacent","EF","5","6","R.jpg","P.jpg","0","1","0","",""
"","feedback","","html-keyboard-response","121","132505","0.0-1.0-168.0-0.0","0","0","74305","","null","","","null","18","","","","","","","","","","","","","","","",""
"","time_out","","html-keyboard-response","122","134507","0.0-1.0-170.0-0.0","0","0","74305","","null","","","null","18","","","","","","","","","","","","","","","",""
"","ITI","","html-keyboard-response","123","135510","0.0-1.0-171.0","0","0","74305","","null","","","null","18","","","","","","","","","","","","","","","NaN",""
"","S1","","html-keyboard-response","124","135764","0.0-1.0-173.0","0","0","74305","","null","","","null","19","","","","","","","","","","","","","","","",""
"","ISI","","html-keyboard-response","125","137766","0.0-1.0-174.0","0","0","74305","","null","","","null","19","NaN","","","","","","","","","","","","","","",""
"","S2","","html-keyboard-response","126","138018","0.0-1.0-175.0","0","0","74305","","null","","","null","19","","NaN","","","","","","","","","","","","","",""
"","response","","html-keyboard-response","127","138071","0.0-1.0-176.0","0","0","74305","","51","","","68","19","","","1","19","training","adjacent","AB","1","2","O.jpg","L.jpg","0","1","0","",""
"","feedback","","html-keyboard-response","128","139074","0.0-1.0-177.0-0.0","0","0","74305","","null","","","null","19","","","","","","","","","","","","","","","",""
"","time_out","","html-keyboard-response","129","141077","0.0-1.0-179.0-0.0","0","0","74305","","null","","","null","19","","","","","","","","","","","","","","","",""
"","ITI","","html-keyboard-response","130","142080","0.0-1.0-180.0","0","0","74305","","null","","","null","19","","","","","","","","","","","","","","","NaN",""
"","S1","","html-keyboard-response","131","142333","0.0-1.0-182.0","0","0","74305","","null","","","null","20","","","","","","","","","","","","","","","",""
"","ISI","","html-keyboard-response","132","144335","0.0-1.0-183.0","0","0","74305","","null","","","null","20","NaN","","","","","","","","","","","","","","",""
"","S2","","html-keyboard-response","133","144588","0.0-1.0-184.0","0","0","74305","","null","","","null","20","","NaN","","","","","","","","","","","","","",""
"","response","","html-keyboard-response","134","144832","0.0-1.0-185.0","0","0","74305","","241","","","75","20","","","1","20","training","adjacent","DC","4","3","M.jpg","N.jpg","1","0","0","",""
"","feedback","","html-keyboard-response","135","145834","0.0-1.0-186.0-0.0","0","0","74305","","null","","","null","20","","","","","","","","","","","","","","","",""
"","time_out","","html-keyboard-response","136","147837","0.0-1.0-188.0-0.0","0","0","74305","","null","","","null","20","","","","","","","","","","","","","","","",""
"","ITI","","html-keyboard-response","137","148840","0.0-1.0-189.0","0","0","74305","","null","","","null","20","","","","","","","","","","","","","","","NaN",""
"","S1","","html-keyboard-response","138","149092","0.0-1.0-191.0","0","0","74305","","null","","","null","21","","","","","","","","","","","","","","","",""
"","ISI","","html-keyboard-response","139","151094","0.0-1.0-192.0","0","0","74305","","null","","","null","21","NaN","","","","","","","","","","","","","","",""
"","S2","","html-keyboard-response","140","151347","0.0-1.0-193.0","0","0","74305","","null","","","null","21","","NaN","","","","","","","","","","","","","",""
"","response","","html-keyboard-response","141","151631","0.0-1.0-194.0","0","0","74305","","282","","","68","21","","","1","21","training","adjacent","GF","7","6","Q.jpg","P.jpg","0","0","1","",""
"","feedback","","html-keyboard-response","142","152633","0.0-1.0-195.0-0.0","0","0","74305","","null","","","null","21","","","","","","","","","","","","","","","",""
"","ITI","","html-keyboard-response","143","153635","0.0-1.0-198.0","0","0","74305","","null","","","null","21","","","","","","","","","","","","","","","NaN",""
"","S1","","html-keyboard-response","144","153888","0.0-1.0-200.0","0","0","74305","","null","","","null","22","","","","","","","","","","","","","","","",""
"","ISI","","html-keyboard-response","145","155889","0.0-1.0-201.0","0","0","74305","","null","","","null","22","NaN","","","","","","","","","","","","","","",""
"","S2","","html-keyboard-response","146","156143","0.0-1.0-202.0","0","0","74305","","null","","","null","22","","NaN","","","","","","","","","","","","","",""
"","response","","html-keyboard-response","147","156166","0.0-1.0-203.0","0","0","74305","","22","","","75","22","","","1","22","training","adjacent","CB","3","2","N.jpg","L.jpg","1","0","0","",""
"","feedback","","html-keyboard-response","148","157168","0.0-1.0-204.0-0.0","0","0","74305","","null","","","null","22","","","","","","","","","","","","","","","",""
"","time_out","","html-keyboard-response","149","159170","0.0-1.0-206.0-0.0","0","0","74305","","null","","","null","22","","","","","","","","","","","","","","","",""
"","ITI","","html-keyboard-response","150","160172","0.0-1.0-207.0","0","0","74305","","null","","","null","22","","","","","","","","","","","","","","","NaN",""
"","S1","","html-keyboard-response","151","160424","0.0-1.0-209.0","0","0","74305","","null","","","null","23","","","","","","","","","","","","","","","",""
"","ISI","","html-keyboard-response","152","162426","0.0-1.0-210.0","0","0","74305","","null","","","null","23","NaN","","","","","","","","","","","","","","",""
"","S2","","html-keyboard-response","153","162679","0.0-1.0-211.0","0","0","74305","","null","","","null","23","","NaN","","","","","","","","","","","","","",""
"","response","","html-keyboard-response","154","162911","0.0-1.0-212.0","0","0","74305","","231","","","75","23","","","1","23","training","adjacent","BC","2","3","L.jpg","N.jpg","1","1","1","",""
"","feedback","","html-keyboard-response","155","163913","0.0-1.0-213.0-0.0","0","0","74305","","null","","","null","23","","","","","","","","","","","","","","","",""
"","ITI","","html-keyboard-response","156","164913","0.0-1.0-216.0","0","0","74305","","null","","","null","23","","","","","","","","","","","","","","","NaN",""
"","S1","","html-keyboard-response","157","165165","0.0-1.0-218.0","0","0","74305","","null","","","null","24","","","","","","","","","","","","","","","",""
"","ISI","","html-keyboard-response","158","167167","0.0-1.0-219.0","0","0","74305","","null","","","null","24","NaN","","","","","","","","","","","","","","",""
"","S2","","html-keyboard-response","159","167419","0.0-1.0-220.0","0","0","74305","","null","","","null","24","","NaN","","","","","","","","","","","","","",""
"","response","","html-keyboard-response","160","167587","0.0-1.0-221.0","0","0","74305","","168","","","75","24","","","1","24","training","adjacent","CB","3","2","N.jpg","L.jpg","1","0","0","",""
"","feedback","","html-keyboard-response","161","168589","0.0-1.0-222.0-0.0","0","0","74305","","null","","","null","24","","","","","","","","","","","","","","","",""
"","time_out","","html-keyboard-response","162","170591","0.0-1.0-224.0-0.0","0","0","74305","","null","","","null","24","","","","","","","","","","","","","","","",""
"","ITI","","html-keyboard-response","163","171595","0.0-1.0-225.0","0","0","74305","","null","","","null","24","","","","","","","","","","","","","","","NaN",""
"","S1","","html-keyboard-response","164","171848","0.0-1.0-227.0","0","0","74305","","null","","","null","25","","","","","","","","","","","","","","","",""
"","ISI","","html-keyboard-response","165","173849","0.0-1.0-228.0","0","0","74305","","null","","","null","25","NaN","","","","","","","","","","","","","","",""
"","S2","","html-keyboard-response","166","174101","0.0-1.0-229.0","0","0","74305","","null","","","null","25","","NaN","","","","","","","","","","","","","",""
"","response","","html-keyboard-response","167","174325","0.0-1.0-230.0","0","0","74305","","222","","","68","25","","","1","25","training","adjacent","EF","5","6","R.jpg","P.jpg","0","1","0","",""
"","feedback","","html-keyboard-response","168","175327","0.0-1.0-231.0-0.0","0","0","74305","","null","","","null","25","","","","","","","","","","","","","","","",""
"","time_out","","html-keyboard-response","169","177329","0.0-1.0-233.0-0.0","0","0","74305","","null","","","null","25","","","","","","","","","","","","","","","",""
"","ITI","","html-keyboard-response","170","178332","0.0-1.0-234.0","0","0","74305","","null","","","null","25","","","","","","","","","","","","","","","NaN",""
"","S1","","html-keyboard-response","171","178597","0.0-1.0-236.0","0","0","74305","","null","","","null","26","","","","","","","","","","","","","","","",""
"","ISI","","html-keyboard-response","172","180599","0.0-1.0-237.0","0","0","74305","","null","","","null","26","NaN","","","","","","","","","","","","","","",""
"","S2","","html-keyboard-response","173","180851","0.0-1.0-238.0","0","0","74305","","null","","","null","26","","NaN","","","","","","","","","","","","","",""
"","response","","html-keyboard-response","174","181069","0.0-1.0-239.0","0","0","74305","","217","","","75","26","","","1","26","training","adjacent","BC","2","3","L.jpg","N.jpg","1","1","1","",""
"","feedback","","html-keyboard-response","175","182072","0.0-1.0-240.0-0.0","0","0","74305","","null","","","null","26","","","","","","","","","","","","","","","",""
"","ITI","","html-keyboard-response","176","183074","0.0-1.0-243.0","0","0","74305","","null","","","null","26","","","","","","","","","","","","","","","NaN",""
"","S1","","html-keyboard-response","177","183326","0.0-1.0-245.0","0","0","74305","","null","","","null","27","","","","","","","","","","","","","","","",""
"","ISI","","html-keyboard-response","178","185329","0.0-1.0-246.0","0","0","74305","","null","","","null","27","NaN","","","","","","","","","","","","","","",""
"","S2","","html-keyboard-response","179","185581","0.0-1.0-247.0","0","0","74305","","null","","","null","27","","NaN","","","","","","","","","","","","","",""
"","response","","html-keyboard-response","180","185845","0.0-1.0-248.0","0","0","74305","","263","","","75","27","","","1","27","training","adjacent","BA","2","1","L.jpg","O.jpg","1","0","0","",""
"","feedback","","html-keyboard-response","181","186848","0.0-1.0-249.0-0.0","0","0","74305","","null","","","null","27","","","","","","","","","","","","","","","",""
"","time_out","","html-keyboard-response","182","188850","0.0-1.0-251.0-0.0","0","0","74305","","null","","","null","27","","","","","","","","","","","","","","","",""
"","ITI","","html-keyboard-response","183","189852","0.0-1.0-252.0","0","0","74305","","null","","","null","27","","","","","","","","","","","","","","","NaN",""
"","S1","","html-keyboard-response","184","190104","0.0-1.0-254.0","0","0","74305","","null","","","null","28","","","","","","","","","","","","","","","",""
"","ISI","","html-keyboard-response","185","192106","0.0-1.0-255.0","0","0","74305","","null","","","null","28","NaN","","","","","","","","","","","","","","",""
"","S2","","html-keyboard-response","186","192358","0.0-1.0-256.0","0","0","74305","","null","","","null","28","","NaN","","","","","","","","","","","","","",""
"","response","","html-keyboard-response","187","192587","0.0-1.0-257.0","0","0","74305","","227","","","68","28","","","1","28","training","adjacent","DE","4","5","M.jpg","R.jpg","0","1","0","",""
"","feedback","","html-keyboard-response","188","193590","0.0-1.0-258.0-0.0","0","0","74305","","null","","","null","28","","","","","","","","","","","","","","","",""
"","time_out","","html-keyboard-response","189","195591","0.0-1.0-260.0-0.0","0","0","74305","","null","","","null","28","","","","","","","","","","","","","","","",""
"","ITI","","html-keyboard-response","190","196595","0.0-1.0-261.0","0","0","74305","","null","","","null","28","","","","","","","","","","","","","","","NaN",""
"","S1","","html-keyboard-response","191","196848","0.0-1.0-263.0","0","0","74305","","null","","","null","29","","","","","","","","","","","","","","","",""
"","ISI","","html-keyboard-response","192","198850","0.0-1.0-264.0","0","0","74305","","null","","","null","29","NaN","","","","","","","","","","","","","","",""
"","S2","","html-keyboard-response","193","199103","0.0-1.0-265.0","0","0","74305","","null","","","null","29","","NaN","","","","","","","","","","","","","",""
"","response","","html-keyboard-response","194","199117","0.0-1.0-266.0","0","0","74305","","12","","","68","29","","","1","29","training","adjacent","ED","5","4","R.jpg","M.jpg","0","0","1","",""
"","feedback","","html-keyboard-response","195","200130","0.0-1.0-267.0-0.0","0","0","74305","","null","","","null","29","","","","","","","","","","","","","","","",""
"","ITI","","html-keyboard-response","196","201133","0.0-1.0-270.0","0","0","74305","","null","","","null","29","","","","","","","","","","","","","","","NaN",""
"","S1","","html-keyboard-response","197","201388","0.0-1.0-272.0","0","0","74305","","null","","","null","30","","","","","","","","","","","","","","","",""
"","ISI","","html-keyboard-response","198","203390","0.0-1.0-273.0","0","0","74305","","null","","","null","30","NaN","","","","","","","","","","","","","","",""
"","S2","","html-keyboard-response","199","203642","0.0-1.0-274.0","0","0","74305","","null","","","null","30","","NaN","","","","","","","","","","","","","",""
"","response","","html-keyboard-response","200","203876","0.0-1.0-275.0","0","0","74305","","233","","","75","30","","","1","30","training","adjacent","DE","4","5","M.jpg","R.jpg","1","1","1","",""
"","feedback","","html-keyboard-response","201","204879","0.0-1.0-276.0-0.0","0","0","74305","","null","","","null","30","","","","","","","","","","","","","","","",""
"","ITI","","html-keyboard-response","202","205882","0.0-1.0-279.0","0","0","74305","","null","","","null","30","","","","","","","","","","","","","","","NaN",""
"","S1","","html-keyboard-response","203","206134","0.0-1.0-281.0","0","0","74305","","null","","","null","31","","","","","","","","","","","","","","","",""
"","ISI","","html-keyboard-response","204","208135","0.0-1.0-282.0","0","0","74305","","null","","","null","31","NaN","","","","","","","","","","","","","","",""
"","S2","","html-keyboard-response","205","208387","0.0-1.0-283.0","0","0","74305","","null","","","null","31","","NaN","","","","","","","","","","","","","",""
"","response","","html-keyboard-response","206","208587","0.0-1.0-284.0","0","0","74305","","198","","","68","31","","","1","31","training","adjacent","EF","5","6","R.jpg","P.jpg","0","1","0","",""
"","feedback","","html-keyboard-response","207","209588","0.0-1.0-285.0-0.0","0","0","74305","","null","","","null","31","","","","","","","","","","","","","","","",""
"","time_out","","html-keyboard-response","208","211590","0.0-1.0-287.0-0.0","0","0","74305","","null","","","null","31","","","","","","","","","","","","","","","",""
"","ITI","","html-keyboard-response","209","212592","0.0-1.0-288.0","0","0","74305","","null","","","null","31","","","","","","","","","","","","","","","NaN",""
"","S1","","html-keyboard-response","210","212844","0.0-1.0-290.0","0","0","74305","","null","","","null","32","","","","","","","","","","","","","","","",""
"","ISI","","html-keyboard-response","211","214846","0.0-1.0-291.0","0","0","74305","","null","","","null","32","NaN","","","","","","","","","","","","","","",""
"","S2","","html-keyboard-response","212","215098","0.0-1.0-292.0","0","0","74305","","null","","","null","32","","NaN","","","","","","","","","","","","","",""
"","response","","html-keyboard-response","213","215267","0.0-1.0-293.0","0","0","74305","","169","","","75","32","","","1","32","training","adjacent","FE","6","5","P.jpg","R.jpg","1","0","0","",""
"","feedback","","html-keyboard-response","214","216270","0.0-1.0-294.0-0.0","0","0","74305","","null","","","null","32","","","","","","","","","","","","","","","",""
"","time_out","","html-keyboard-response","215","218273","0.0-1.0-296.0-0.0","0","0","74305","","null","","","null","32","","","","","","","","","","","","","","","",""
"","ITI","","html-keyboard-response","216","219275","0.0-1.0-297.0","0","0","74305","","null","","","null","32","","","","","","","","","","","","","","","NaN",""
"","S1","","html-keyboard-response","217","219526","0.0-1.0-299.0","0","0","74305","","null","","","null","33","","","","","","","","","","","","","","","",""
"","ISI","","html-keyboard-response","218","221528","0.0-1.0-300.0","0","0","74305","","null","","","null","33","NaN","","","","","","","","","","","","","","",""
"","S2","","html-keyboard-response","219","221780","0.0-1.0-301.0","0","0","74305","","null","","","null","33","","NaN","","","","","","","","","","","","","",""
"","response","","html-keyboard-response","220","221803","0.0-1.0-302.0","0","0","74305","","22","","","75","33","","","1","33","training","adjacent","BA","2","1","L.jpg","O.jpg","1","0","0","",""
"","feedback","","html-keyboard-response","221","222805","0.0-1.0-303.0-0.0","0","0","74305","","null","","","null","33","","","","","","","","","","","","","","","",""
"","time_out","","html-keyboard-response","222","224806","0.0-1.0-305.0-0.0","0","0","74305","","null","","","null","33","","","","","","","","","","","","","","","",""
"","ITI","","html-keyboard-response","223","225807","0.0-1.0-306.0","0","0","74305","","null","","","null","33","","","","","","","","","","","","","","","NaN",""
"","S1","","html-keyboard-response","224","226059","0.0-1.0-308.0","0","0","74305","","null","","","null","34","","","","","","","","","","","","","","","",""
"","ISI","","html-keyboard-response","225","228061","0.0-1.0-309.0","0","0","74305","","null","","","null","34","NaN","","","","","","","","","","","","","","",""
"","S2","","html-keyboard-response","226","228313","0.0-1.0-310.0","0","0","74305","","null","","","null","34","","NaN","","","","","","","","","","","","","",""
"","response","","html-keyboard-response","227","228810","0.0-1.0-311.0","0","0","74305","","495","","","75","34","","","1","34","training","adjacent","FE","6","5","P.jpg","R.jpg","1","0","0","",""
"","feedback","","html-keyboard-response","228","229824","0.0-1.0-312.0-0.0","0","0","74305","","null","","","null","34","","","","","","","","","","","","","","","",""
"","time_out","","html-keyboard-response","229","231826","0.0-1.0-314.0-0.0","0","0","74305","","null","","","null","34","","","","","","","","","","","","","","","",""
"","ITI","","html-keyboard-response","230","232829","0.0-1.0-315.0","0","0","74305","","null","","","null","34","","","","","","","","","","","","","","","NaN",""
"","S1","","html-keyboard-response","231","233081","0.0-1.0-317.0","0","0","74305","","null","","","null","35","","","","","","","","","","","","","","","",""
"","ISI","","html-keyboard-response","232","235083","0.0-1.0-318.0","0","0","74305","","null","","","null","35","NaN","","","","","","","","","","","","","","",""
"","S2","","html-keyboard-response","233","235335","0.0-1.0-319.0","0","0","74305","","null","","","null","35","","NaN","","","","","","","","","","","","","",""
"","response","","html-keyboard-response","234","235682","0.0-1.0-320.0","0","0","74305","","345","","","75","35","","","1","35","training","adjacent","BC","2","3","L.jpg","N.jpg","1","1","1","",""
"","feedback","","html-keyboard-response","235","236685","0.0-1.0-321.0-0.0","0","0","74305","","null","","","null","35","","","","","","","","","","","","","","","",""
"","ITI","","html-keyboard-response","236","237688","0.0-1.0-324.0","0","0","74305","","null","","","null","35","","","","","","","","","","","","","","","NaN",""
"","S1","","html-keyboard-response","237","237940","0.0-1.0-326.0","0","0","74305","","null","","","null","36","","","","","","","","","","","","","","","",""
"","ISI","","html-keyboard-response","238","239942","0.0-1.0-327.0","0","0","74305","","null","","","null","36","NaN","","","","","","","","","","","","","","",""
"","S2","","html-keyboard-response","239","240195","0.0-1.0-328.0","0","0","74305","","null","","","null","36","","NaN","","","","","","","","","","","","","",""
"","response","","html-keyboard-response","240","240418","0.0-1.0-329.0","0","0","74305","","222","","","68","36","","","1","36","training","adjacent","ED","5","4","R.jpg","M.jpg","0","0","1","",""
"","feedback","","html-keyboard-response","241","241421","0.0-1.0-330.0-0.0","0","0","74305","","null","","","null","36","","","","","","","","","","","","","","","",""
"","ITI","","html-keyboard-response","242","242423","0.0-1.0-333.0","0","0","74305","","null","","","null","36","","","","","","","","","","","","","","","NaN",""
"","S1","","html-keyboard-response","243","242676","0.0-1.0-335.0","0","0","74305","","null","","","null","37","","","","","","","","","","","","","","","",""
"","ISI","","html-keyboard-response","244","244678","0.0-1.0-336.0","0","0","74305","","null","","","null","37","NaN","","","","","","","","","","","","","","",""
"","S2","","html-keyboard-response","245","244930","0.0-1.0-337.0","0","0","74305","","null","","","null","37","","NaN","","","","","","","","","","","","","",""
"","response","","html-keyboard-response","246","245218","0.0-1.0-338.0","0","0","74305","","287","","","68","37","","","1","37","training","adjacent","GF","7","6","Q.jpg","P.jpg","0","0","1","",""
"","feedback","","html-keyboard-response","247","246221","0.0-1.0-339.0-0.0","0","0","74305","","null","","","null","37","","","","","","","","","","","","","","","",""
"","ITI","","html-keyboard-response","248","247225","0.0-1.0-342.0","0","0","74305","","null","","","null","37","","","","","","","","","","","","","","","NaN",""
"","S1","","html-keyboard-response","249","247479","0.0-1.0-344.0","0","0","74305","","null","","","null","38","","","","","","","","","","","","","","","",""
"","ISI","","html-keyboard-response","250","249481","0.0-1.0-345.0","0","0","74305","","null","","","null","38","NaN","","","","","","","","","","","","","","",""
"","S2","","html-keyboard-response","251","249734","0.0-1.0-346.0","0","0","74305","","null","","","null","38","","NaN","","","","","","","","","","","","","",""
"","response","","html-keyboard-response","252","250026","0.0-1.0-347.0","0","0","74305","","291","","","68","38","","","1","38","training","adjacent","GF","7","6","Q.jpg","P.jpg","0","0","1","",""
"","feedback","","html-keyboard-response","253","251029","0.0-1.0-348.0-0.0","0","0","74305","","null","","","null","38","","","","","","","","","","","","","","","",""
"","ITI","","html-keyboard-response","254","252032","0.0-1.0-351.0","0","0","74305","","null","","","null","38","","","","","","","","","","","","","","","NaN",""
"","S1","","html-keyboard-response","255","252285","0.0-1.0-353.0","0","0","74305","","null","","","null","39","","","","","","","","","","","","","","","",""
"","ISI","","html-keyboard-response","256","254287","0.0-1.0-354.0","0","0","74305","","null","","","null","39","NaN","","","","","","","","","","","","","","",""
"","S2","","html-keyboard-response","257","254540","0.0-1.0-355.0","0","0","74305","","null","","","null","39","","NaN","","","","","","","","","","","","","",""
"","response","","html-keyboard-response","258","254819","0.0-1.0-356.0","0","0","74305","","277","","","75","39","","","1","39","training","adjacent","FG","6","7","P.jpg","Q.jpg","1","1","1","",""
"","feedback","","html-keyboard-response","259","255821","0.0-1.0-357.0-0.0","0","0","74305","","null","","","null","39","","","","","","","","","","","","","","","",""
"","ITI","","html-keyboard-response","260","256824","0.0-1.0-360.0","0","0","74305","","null","","","null","39","","","","","","","","","","","","","","","NaN",""
"","S1","","html-keyboard-response","261","257078","0.0-1.0-362.0","0","0","74305","","null","","","null","40","","","","","","","","","","","","","","","",""
"","ISI","","html-keyboard-response","262","259080","0.0-1.0-363.0","0","0","74305","","null","","","null","40","NaN","","","","","","","","","","","","","","",""
"","S2","","html-keyboard-response","263","259333","0.0-1.0-364.0","0","0","74305","","null","","","null","40","","NaN","","","","","","","","","","","","","",""
"","response","","html-keyboard-response","264","259578","0.0-1.0-365.0","0","0","74305","","243","","","68","40","","","1","40","training","adjacent","GF","7","6","Q.jpg","P.jpg","0","0","1","",""
"","feedback","","html-keyboard-response","265","260581","0.0-1.0-366.0-0.0","0","0","74305","","null","","","null","40","","","","","","","","","","","","","","","",""
"","ITI","","html-keyboard-response","266","261583","0.0-1.0-369.0","0","0","74305","","null","","","null","40","","","","","","","","","","","","","","","NaN",""
"","S1","","html-keyboard-response","267","261835","0.0-1.0-371.0","0","0","74305","","null","","","null","41","","","","","","","","","","","","","","","",""
"","ISI","","html-keyboard-response","268","263836","0.0-1.0-372.0","0","0","74305","","null","","","null","41","NaN","","","","","","","","","","","","","","",""
"","S2","","html-keyboard-response","269","264088","0.0-1.0-373.0","0","0","74305","","null","","","null","41","","NaN","","","","","","","","","","","","","",""
"","response","","html-keyboard-response","270","264587","0.0-1.0-374.0","0","0","74305","","497","","","75","41","","","1","41","training","adjacent","FE","6","5","P.jpg","R.jpg","1","0","0","",""
"","feedback","","html-keyboard-response","271","265589","0.0-1.0-375.0-0.0","0","0","74305","","null","","","null","41","","","","","","","","","","","","","","","",""
"","time_out","","html-keyboard-response","272","267592","0.0-1.0-377.0-0.0","0","0","74305","","null","","","null","41","","","","","","","","","","","","","","","",""
"","ITI","","html-keyboard-response","273","268594","0.0-1.0-378.0","0","0","74305","","null","","","null","41","","","","","","","","","","","","","","","NaN",""
"","S1","","html-keyboard-response","274","268846","0.0-1.0-380.0","0","0","74305","","null","","","null","42","","","","","","","","","","","","","","","",""
"","ISI","","html-keyboard-response","275","270848","0.0-1.0-381.0","0","0","74305","","null","","","null","42","NaN","","","","","","","","","","","","","","",""
"","S2","","html-keyboard-response","276","271100","0.0-1.0-382.0","0","0","74305","","null","","","null","42","","NaN","","","","","","","","","","","","","",""
"","response","","html-keyboard-response","277","271427","0.0-1.0-383.0","0","0","74305","","326","","","75","42","","","1","42","training","adjacent","BA","2","1","L.jpg","O.jpg","1","0","0","",""
"","feedback","","html-keyboard-response","278","272430","0.0-1.0-384.0-0.0","0","0","74305","","null","","","null","42","","","","","","","","","","","","","","","",""
"","time_out","","html-keyboard-response","279","274432","0.0-1.0-386.0-0.0","0","0","74305","","null","","","null","42","","","","","","","","","","","","","","","",""
"","ITI","","html-keyboard-response","280","275434","0.0-1.0-387.0","0","0","74305","","null","","","null","42","","","","","","","","","","","","","","","NaN",""
"","S1","","html-keyboard-response","281","275688","0.0-1.0-389.0","0","0","74305","","null","","","null","43","","","","","","","","","","","","","","","",""
"","ISI","","html-keyboard-response","282","277690","0.0-1.0-390.0","0","0","74305","","null","","","null","43","NaN","","","","","","","","","","","","","","",""
"","S2","","html-keyboard-response","283","277943","0.0-1.0-391.0","0","0","74305","","null","","","null","43","","NaN","","","","","","","","","","","","","",""
"","response","","html-keyboard-response","284","278218","0.0-1.0-392.0","0","0","74305","","274","","","68","43","","","1","43","training","adjacent","ED","5","4","R.jpg","M.jpg","0","0","1","",""
"","feedback","","html-keyboard-response","285","279221","0.0-1.0-393.0-0.0","0","0","74305","","null","","","null","43","","","","","","","","","","","","","","","",""
"","ITI","","html-keyboard-response","286","280224","0.0-1.0-396.0","0","0","74305","","null","","","null","43","","","","","","","","","","","","","","","NaN",""
"","S1","","html-keyboard-response","287","280475","0.0-1.0-398.0","0","0","74305","","null","","","null","44","","","","","","","","","","","","","","","",""
"","ISI","","html-keyboard-response","288","282477","0.0-1.0-399.0","0","0","74305","","null","","","null","44","NaN","","","","","","","","","","","","","","",""
"","S2","","html-keyboard-response","289","282729","0.0-1.0-400.0","0","0","74305","","null","","","null","44","","NaN","","","","","","","","","","","","","",""
"","response","","html-keyboard-response","290","283090","0.0-1.0-401.0","0","0","74305","","359","","","68","44","","","1","44","training","adjacent","CD","3","4","N.jpg","M.jpg","0","1","0","",""
"","feedback","","html-keyboard-response","291","284094","0.0-1.0-402.0-0.0","0","0","74305","","null","","","null","44","","","","","","","","","","","","","","","",""
"","time_out","","html-keyboard-response","292","286094","0.0-1.0-404.0-0.0","0","0","74305","","null","","","null","44","","","","","","","","","","","","","","","",""
"","ITI","","html-keyboard-response","293","287097","0.0-1.0-405.0","0","0","74305","","null","","","null","44","","","","","","","","","","","","","","","NaN",""
"","S1","","html-keyboard-response","294","287350","0.0-1.0-407.0","0","0","74305","","null","","","null","45","","","","","","","","","","","","","","","",""
"","ISI","","html-keyboard-response","295","289353","0.0-1.0-408.0","0","0","74305","","null","","","null","45","NaN","","","","","","","","","","","","","","",""
"","S2","","html-keyboard-response","296","289604","0.0-1.0-409.0","0","0","74305","","null","","","null","45","","NaN","","","","","","","","","","","","","",""
"","response","","html-keyboard-response","297","289865","0.0-1.0-410.0","0","0","74305","","258","","","68","45","","","1","45","training","adjacent","EF","5","6","R.jpg","P.jpg","0","1","0","",""
"","feedback","","html-keyboard-response","298","290868","0.0-1.0-411.0-0.0","0","0","74305","","null","","","null","45","","","","","","","","","","","","","","","",""
"","time_out","","html-keyboard-response","299","292870","0.0-1.0-413.0-0.0","0","0","74305","","null","","","null","45","","","","","","","","","","","","","","","",""
"","ITI","","html-keyboard-response","300","293874","0.0-1.0-414.0","0","0","74305","","null","","","null","45","","","","","","","","","","","","","","","NaN",""
"","S1","","html-keyboard-response","301","294126","0.0-1.0-416.0","0","0","74305","","null","","","null","46","","","","","","","","","","","","","","","",""
"","ISI","","html-keyboard-response","302","296127","0.0-1.0-417.0","0","0","74305","","null","","","null","46","NaN","","","","","","","","","","","","","","",""
"","S2","","html-keyboard-response","303","296380","0.0-1.0-418.0","0","0","74305","","null","","","null","46","","NaN","","","","","","","","","","","","","",""
"","response","","html-keyboard-response","304","296625","0.0-1.0-419.0","0","0","74305","","243","","","68","46","","","1","46","training","adjacent","AB","1","2","O.jpg","L.jpg","0","1","0","",""
"","feedback","","html-keyboard-response","305","297627","0.0-1.0-420.0-0.0","0","0","74305","","null","","","null","46","","","","","","","","","","","","","","","",""
"","time_out","","html-keyboard-response","306","299629","0.0-1.0-422.0-0.0","0","0","74305","","null","","","null","46","","","","","","","","","","","","","","","",""
"","ITI","","html-keyboard-response","307","300632","0.0-1.0-423.0","0","0","74305","","null","","","null","46","","","","","","","","","","","","","","","NaN",""
"","S1","","html-keyboard-response","308","300884","0.0-1.0-425.0","0","0","74305","","null","","","null","47","","","","","","","","","","","","","","","",""
"","ISI","","html-keyboard-response","309","302887","0.0-1.0-426.0","0","0","74305","","null","","","null","47","NaN","","","","","","","","","","","","","","",""
"","S2","","html-keyboard-response","310","303140","0.0-1.0-427.0","0","0","74305","","null","","","null","47","","NaN","","","","","","","","","","","","","",""
"","response","","html-keyboard-response","311","303400","0.0-1.0-428.0","0","0","74305","","258","","","75","47","","","1","47","training","adjacent","FE","6","5","P.jpg","R.jpg","1","0","0","",""
"","feedback","","html-keyboard-response","312","304402","0.0-1.0-429.0-0.0","0","0","74305","","null","","","null","47","","","","","","","","","","","","","","","",""
"","time_out","","html-keyboard-response","313","306405","0.0-1.0-431.0-0.0","0","0","74305","","null","","","null","47","","","","","","","","","","","","","","","",""
"","ITI","","html-keyboard-response","314","307407","0.0-1.0-432.0","0","0","74305","","null","","","null","47","","","","","","","","","","","","","","","NaN",""
"","block_over","","html-keyboard-response","315","322616","0.0-1.0-433.0-0.0","0","0","74305","","15207","","","32","47","","","","","","","","","","","","","","","",""
"","S1","","html-keyboard-response","316","322872","0.0-1.0-434.0","0","0","74305","","null","","","null","48","","","","","","","","","","","","","","","",""
"","ISI","","html-keyboard-response","317","324874","0.0-1.0-435.0","0","0","74305","","null","","","null","48","NaN","","","","","","","","","","","","","","",""
"","S2","","html-keyboard-response","318","325127","0.0-1.0-436.0","0","0","74305","","null","","","null","48","","NaN","","","","","","","","","","","","","",""
"","response","","html-keyboard-response","319","325487","0.0-1.0-437.0","0","0","74305","","358","","","75","48","","","2","48","training","adjacent","EF","5","6","R.jpg","P.jpg","1","1","1","",""
"","feedback","","html-keyboard-response","320","326488","0.0-1.0-438.0-0.0","0","0","74305","","null","","","null","48","","","","","","","","","","","","","","","",""
"","ITI","","html-keyboard-response","321","327491","0.0-1.0-441.0","0","0","74305","","null","","","null","48","","","","","","","","","","","","","","","NaN",""
"","S1","","html-keyboard-response","322","327743","0.0-1.0-443.0","0","0","74305","","null","","","null","49","","","","","","","","","","","","","","","",""
"","ISI","","html-keyboard-response","323","329745","0.0-1.0-444.0","0","0","74305","","null","","","null","49","NaN","","","","","","","","","","","","","","",""
"","S2","","html-keyboard-response","324","329998","0.0-1.0-445.0","0","0","74305","","null","","","null","49","","NaN","","","","","","","","","","","","","",""
"","response","","html-keyboard-response","325","330336","0.0-1.0-446.0","0","0","74305","","337","","","68","49","","","2","49","training","adjacent","CD","3","4","N.jpg","M.jpg","0","1","0","",""
"","feedback","","html-keyboard-response","326","331339","0.0-1.0-447.0-0.0","0","0","74305","","null","","","null","49","","","","","","","","","","","","","","","",""
"","time_out","","html-keyboard-response","327","333341","0.0-1.0-449.0-0.0","0","0","74305","","null","","","null","49","","","","","","","","","","","","","","","",""
"","ITI","","html-keyboard-response","328","334344","0.0-1.0-450.0","0","0","74305","","null","","","null","49","","","","","","","","","","","","","","","NaN",""
"","S1","","html-keyboard-response","329","334597","0.0-1.0-452.0","0","0","74305","","null","","","null","50","","","","","","","","","","","","","","","",""
"","ISI","","html-keyboard-response","330","336599","0.0-1.0-453.0","0","0","74305","","null","","","null","50","NaN","","","","","","","","","","","","","","",""
"","S2","","html-keyboard-response","331","336851","0.0-1.0-454.0","0","0","74305","","null","","","null","50","","NaN","","","","","","","","","","","","","",""
"","response","","html-keyboard-response","332","337088","0.0-1.0-455.0","0","0","74305","","236","","","75","50","","","2","50","training","adjacent","EF","5","6","R.jpg","P.jpg","1","1","1","",""
"","feedback","","html-keyboard-response","333","338091","0.0-1.0-456.0-0.0","0","0","74305","","null","","","null","50","","","","","","","","","","","","","","","",""
"","ITI","","html-keyboard-response","334","339093","0.0-1.0-459.0","0","0","74305","","null","","","null","50","","","","","","","","","","","","","","","NaN",""
"","S1","","html-keyboard-response","335","339345","0.0-1.0-461.0","0","0","74305","","null","","","null","51","","","","","","","","","","","","","","","",""
"","ISI","","html-keyboard-response","336","341347","0.0-1.0-462.0","0","0","74305","","null","","","null","51","NaN","","","","","","","","","","","","","","",""
"","S2","","html-keyboard-response","337","341608","0.0-1.0-463.0","0","0","74305","","null","","","null","51","","NaN","","","","","","","","","","","","","",""
"","response","","html-keyboard-response","338","341816","0.0-1.0-464.0","0","0","74305","","207","","","68","51","","","2","51","training","adjacent","BC","2","3","L.jpg","N.jpg","0","1","0","",""
"","feedback","","html-keyboard-response","339","342819","0.0-1.0-465.0-0.0","0","0","74305","","null","","","null","51","","","","","","","","","","","","","","","",""
"","time_out","","html-keyboard-response","340","344821","0.0-1.0-467.0-0.0","0","0","74305","","null","","","null","51","","","","","","","","","","","","","","","",""
"","ITI","","html-keyboard-response","341","345824","0.0-1.0-468.0","0","0","74305","","null","","","null","51","","","","","","","","","","","","","","","NaN",""
"","S1","","html-keyboard-response","342","346077","0.0-1.0-470.0","0","0","74305","","null","","","null","52","","","","","","","","","","","","","","","",""
"","ISI","","html-keyboard-response","343","348082","0.0-1.0-471.0","0","0","74305","","null","","","null","52","NaN","","","","","","","","","","","","","","",""
"","S2","","html-keyboard-response","344","348334","0.0-1.0-472.0","0","0","74305","","null","","","null","52","","NaN","","","","","","","","","","","","","",""
"","response","","html-keyboard-response","345","348645","0.0-1.0-473.0","0","0","74305","","310","","","75","52","","","2","52","training","adjacent","GF","7","6","Q.jpg","P.jpg","1","0","0","",""
"","feedback","","html-keyboard-response","346","349648","0.0-1.0-474.0-0.0","0","0","74305","","null","","","null","52","","","","","","","","","","","","","","","",""
"","time_out","","html-keyboard-response","347","351650","0.0-1.0-476.0-0.0","0","0","74305","","null","","","null","52","","","","","","","","","","","","","","","",""
"","ITI","","html-keyboard-response","348","352652","0.0-1.0-477.0","0","0","74305","","null","","","null","52","","","","","","","","","","","","","","","NaN",""
"","S1","","html-keyboard-response","349","352905","0.0-1.0-479.0","0","0","74305","","null","","","null","53","","","","","","","","","","","","","","","",""
"","ISI","","html-keyboard-response","350","354908","0.0-1.0-480.0","0","0","74305","","null","","","null","53","NaN","","","","","","","","","","","","","","",""
"","S2","","html-keyboard-response","351","355160","0.0-1.0-481.0","0","0","74305","","null","","","null","53","","NaN","","","","","","","","","","","","","",""
"","response","","html-keyboard-response","352","355382","0.0-1.0-482.0","0","0","74305","","220","","","68","53","","","2","53","training","adjacent","DE","4","5","M.jpg","R.jpg","0","1","0","",""
"","feedback","","html-keyboard-response","353","356384","0.0-1.0-483.0-0.0","0","0","74305","","null","","","null","53","","","","","","","","","","","","","","","",""
"","time_out","","html-keyboard-response","354","358386","0.0-1.0-485.0-0.0","0","0","74305","","null","","","null","53","","","","","","","","","","","","","","","",""
"","ITI","","html-keyboard-response","355","359389","0.0-1.0-486.0","0","0","74305","","null","","","null","53","","","","","","","","","","","","","","","NaN",""
"","S1","","html-keyboard-response","356","359640","0.0-1.0-488.0","0","0","74305","","null","","","null","54","","","","","","","","","","","","","","","",""
"","ISI","","html-keyboard-response","357","361642","0.0-1.0-489.0","0","0","74305","","null","","","null","54","NaN","","","","","","","","","","","","","","",""
"","S2","","html-keyboard-response","358","361895","0.0-1.0-490.0","0","0","74305","","null","","","null","54","","NaN","","","","","","","","","","","","","",""
"","response","","html-keyboard-response","359","362093","0.0-1.0-491.0","0","0","74305","","198","","","68","54","","","2","54","training","adjacent","FG","6","7","P.jpg","Q.jpg","0","1","0","",""
"","feedback","","html-keyboard-response","360","363110","0.0-1.0-492.0-0.0","0","0","74305","","null","","","null","54","","","","","","","","","","","","","","","",""
"","time_out","","html-keyboard-response","361","365113","0.0-1.0-494.0-0.0","0","0","74305","","null","","","null","54","","","","","","","","","","","","","","","",""
"","ITI","","html-keyboard-response","362","366115","0.0-1.0-495.0","0","0","74305","","null","","","null","54","","","","","","","","","","","","","","","NaN",""
"","S1","","html-keyboard-response","363","366368","0.0-1.0-497.0","0","0","74305","","null","","","null","55","","","","","","","","","","","","","","","",""
"","ISI","","html-keyboard-response","364","368371","0.0-1.0-498.0","0","0","74305","","null","","","null","55","NaN","","","","","","","","","","","","","","",""
"","S2","","html-keyboard-response","365","368624","0.0-1.0-499.0","0","0","74305","","null","","","null","55","","NaN","","","","","","","","","","","","","",""
"","response","","html-keyboard-response","366","368717","0.0-1.0-500.0","0","0","74305","","91","","","75","55","","","2","55","training","adjacent","ED","5","4","R.jpg","M.jpg","1","0","0","",""
"","feedback","","html-keyboard-response","367","369720","0.0-1.0-501.0-0.0","0","0","74305","","null","","","null","55","","","","","","","","","","","","","","","",""
"","time_out","","html-keyboard-response","368","371723","0.0-1.0-503.0-0.0","0","0","74305","","null","","","null","55","","","","","","","","","","","","","","","",""
"","ITI","","html-keyboard-response","369","372725","0.0-1.0-504.0","0","0","74305","","null","","","null","55","","","","","","","","","","","","","","","NaN",""
"","S1","","html-keyboard-response","370","372978","0.0-1.0-506.0","0","0","74305","","null","","","null","56","","","","","","","","","","","","","","","",""
"","ISI","","html-keyboard-response","371","374981","0.0-1.0-507.0","0","0","74305","","null","","","null","56","NaN","","","","","","","","","","","","","","",""
"","S2","","html-keyboard-response","372","375234","0.0-1.0-508.0","0","0","74305","","null","","","null","56","","NaN","","","","","","","","","","","","","",""
"","response","","html-keyboard-response","373","375540","0.0-1.0-509.0","0","0","74305","","305","","","75","56","","","2","56","training","adjacent","CD","3","4","N.jpg","M.jpg","1","1","1","",""
"","feedback","","html-keyboard-response","374","376543","0.0-1.0-510.0-0.0","0","0","74305","","null","","","null","56","","","","","","","","","","","","","","","",""
"","ITI","","html-keyboard-response","375","377546","0.0-1.0-513.0","0","0","74305","","null","","","null","56","","","","","","","","","","","","","","","NaN",""
"","S1","","html-keyboard-response","376","377798","0.0-1.0-515.0","0","0","74305","","null","","","null","57","","","","","","","","","","","","","","","",""
"","ISI","","html-keyboard-response","377","379801","0.0-1.0-516.0","0","0","74305","","null","","","null","57","NaN","","","","","","","","","","","","","","",""
"","S2","","html-keyboard-response","378","380053","0.0-1.0-517.0","0","0","74305","","null","","","null","57","","NaN","","","","","","","","","","","","","",""
"","response","","html-keyboard-response","379","380333","0.0-1.0-518.0","0","0","74305","","279","","","68","57","","","2","57","training","adjacent","EF","5","6","R.jpg","P.jpg","0","1","0","",""
"","feedback","","html-keyboard-response","380","381336","0.0-1.0-519.0-0.0","0","0","74305","","null","","","null","57","","","","","","","","","","","","","","","",""
"","time_out","","html-keyboard-response","381","383340","0.0-1.0-521.0-0.0","0","0","74305","","null","","","null","57","","","","","","","","","","","","","","","",""
"","ITI","","html-keyboard-response","382","384342","0.0-1.0-522.0","0","0","74305","","null","","","null","57","","","","","","","","","","","","","","","NaN",""
"","S1","","html-keyboard-response","383","384595","0.0-1.0-524.0","0","0","74305","","null","","","null","58","","","","","","","","","","","","","","","",""
"","ISI","","html-keyboard-response","384","386598","0.0-1.0-525.0","0","0","74305","","null","","","null","58","NaN","","","","","","","","","","","","","","",""
"","S2","","html-keyboard-response","385","386851","0.0-1.0-526.0","0","0","74305","","null","","","null","58","","NaN","","","","","","","","","","","","","",""
"","response","","html-keyboard-response","386","387253","0.0-1.0-527.0","0","0","74305","","400","","","68","58","","","2","58","training","adjacent","CB","3","2","N.jpg","L.jpg","0","0","1","",""
"","feedback","","html-keyboard-response","387","388257","0.0-1.0-528.0-0.0","0","0","74305","","null","","","null","58","","","","","","","","","","","","","","","",""
"","ITI","","html-keyboard-response","388","389259","0.0-1.0-531.0","0","0","74305","","null","","","null","58","","","","","","","","","","","","","","","NaN",""
"","S1","","html-keyboard-response","389","389511","0.0-1.0-533.0","0","0","74305","","null","","","null","59","","","","","","","","","","","","","","","",""
"","ISI","","html-keyboard-response","390","391514","0.0-1.0-534.0","0","0","74305","","null","","","null","59","NaN","","","","","","","","","","","","","","",""
"","S2","","html-keyboard-response","391","391766","0.0-1.0-535.0","0","0","74305","","null","","","null","59","","NaN","","","","","","","","","","","","","",""
"","response","","html-keyboard-response","392","391917","0.0-1.0-536.0","0","0","74305","","150","","","68","59","","","2","59","training","adjacent","GF","7","6","Q.jpg","P.jpg","0","0","1","",""
"","feedback","","html-keyboard-response","393","392920","0.0-1.0-537.0-0.0","0","0","74305","","null","","","null","59","","","","","","","","","","","","","","","",""
"","ITI","","html-keyboard-response","394","393922","0.0-1.0-540.0","0","0","74305","","null","","","null","59","","","","","","","","","","","","","","","NaN",""
"","S1","","html-keyboard-response","395","394174","0.0-1.0-542.0","0","0","74305","","null","","","null","60","","","","","","","","","","","","","","","",""
"","ISI","","html-keyboard-response","396","396176","0.0-1.0-543.0","0","0","74305","","null","","","null","60","NaN","","","","","","","","","","","","","","",""
"","S2","","html-keyboard-response","397","396428","0.0-1.0-544.0","0","0","74305","","null","","","null","60","","NaN","","","","","","","","","","","","","",""
"","response","","html-keyboard-response","398","396644","0.0-1.0-545.0","0","0","74305","","216","","","68","60","","","2","60","training","adjacent","GF","7","6","Q.jpg","P.jpg","0","0","1","",""
"","feedback","","html-keyboard-response","399","397647","0.0-1.0-546.0-0.0","0","0","74305","","null","","","null","60","","","","","","","","","","","","","","","",""
"","ITI","","html-keyboard-response","400","398649","0.0-1.0-549.0","0","0","74305","","null","","","null","60","","","","","","","","","","","","","","","NaN",""
"","S1","","html-keyboard-response","401","398902","0.0-1.0-551.0","0","0","74305","","null","","","null","61","","","","","","","","","","","","","","","",""
"","ISI","","html-keyboard-response","402","400904","0.0-1.0-552.0","0","0","74305","","null","","","null","61","NaN","","","","","","","","","","","","","","",""
"","S2","","html-keyboard-response","403","401157","0.0-1.0-553.0","0","0","74305","","null","","","null","61","","NaN","","","","","","","","","","","","","",""
"","response","","html-keyboard-response","404","401388","0.0-1.0-554.0","0","0","74305","","229","","","75","61","","","2","61","training","adjacent","DC","4","3","M.jpg","N.jpg","1","0","0","",""
"","feedback","","html-keyboard-response","405","402390","0.0-1.0-555.0-0.0","0","0","74305","","null","","","null","61","","","","","","","","","","","","","","","",""
"","time_out","","html-keyboard-response","406","404393","0.0-1.0-557.0-0.0","0","0","74305","","null","","","null","61","","","","","","","","","","","","","","","",""
"","ITI","","html-keyboard-response","407","405396","0.0-1.0-558.0","0","0","74305","","null","","","null","61","","","","","","","","","","","","","","","NaN",""
"","S1","","html-keyboard-response","408","405648","0.0-1.0-560.0","0","0","74305","","null","","","null","62","","","","","","","","","","","","","","","",""
"","ISI","","html-keyboard-response","409","407651","0.0-1.0-561.0","0","0","74305","","null","","","null","62","NaN","","","","","","","","","","","","","","",""
"","S2","","html-keyboard-response","410","407903","0.0-1.0-562.0","0","0","74305","","null","","","null","62","","NaN","","","","","","","","","","","","","",""
"","response","","html-keyboard-response","411","408338","0.0-1.0-563.0","0","0","74305","","433","","","75","62","","","2","62","training","adjacent","BA","2","1","L.jpg","O.jpg","1","0","0","",""
"","feedback","","html-keyboard-response","412","409339","0.0-1.0-564.0-0.0","0","0","74305","","null","","","null","62","","","","","","","","","","","","","","","",""
"","time_out","","html-keyboard-response","413","411341","0.0-1.0-566.0-0.0","0","0","74305","","null","","","null","62","","","","","","","","","","","","","","","",""
"","ITI","","html-keyboard-response","414","412343","0.0-1.0-567.0","0","0","74305","","null","","","null","62","","","","","","","","","","","","","","","NaN",""
"","S1","","html-keyboard-response","415","412595","0.0-1.0-569.0","0","0","74305","","null","","","null","63","","","","","","","","","","","","","","","",""
"","ISI","","html-keyboard-response","416","414597","0.0-1.0-570.0","0","0","74305","","null","","","null","63","NaN","","","","","","","","","","","","","","",""
"","S2","","html-keyboard-response","417","414849","0.0-1.0-571.0","0","0","74305","","null","","","null","63","","NaN","","","","","","","","","","","","","",""
"","response","","html-keyboard-response","418","415186","0.0-1.0-572.0","0","0","74305","","335","","","75","63","","","2","63","training","adjacent","FE","6","5","P.jpg","R.jpg","1","0","0","",""
"","feedback","","html-keyboard-response","419","416189","0.0-1.0-573.0-0.0","0","0","74305","","null","","","null","63","","","","","","","","","","","","","","","",""
"","time_out","","html-keyboard-response","420","418192","0.0-1.0-575.0-0.0","0","0","74305","","null","","","null","63","","","","","","","","","","","","","","","",""
"","ITI","","html-keyboard-response","421","419198","0.0-1.0-576.0","0","0","74305","","null","","","null","63","","","","","","","","","","","","","","","NaN",""
"","S1","","html-keyboard-response","422","419451","0.0-1.0-578.0","0","0","74305","","null","","","null","64","","","","","","","","","","","","","","","",""
"","ISI","","html-keyboard-response","423","421453","0.0-1.0-579.0","0","0","74305","","null","","","null","64","NaN","","","","","","","","","","","","","","",""
"","S2","","html-keyboard-response","424","421705","0.0-1.0-580.0","0","0","74305","","null","","","null","64","","NaN","","","","","","","","","","","","","",""
"","response","","html-keyboard-response","425","422139","0.0-1.0-581.0","0","0","74305","","433","","","75","64","","","2","64","training","adjacent","BC","2","3","L.jpg","N.jpg","1","1","1","",""
"","feedback","","html-keyboard-response","426","423142","0.0-1.0-582.0-0.0","0","0","74305","","null","","","null","64","","","","","","","","","","","","","","","",""
"","ITI","","html-keyboard-response","427","424144","0.0-1.0-585.0","0","0","74305","","null","","","null","64","","","","","","","","","","","","","","","NaN",""
"","S1","","html-keyboard-response","428","424397","0.0-1.0-587.0","0","0","74305","","null","","","null","65","","","","","","","","","","","","","","","",""
"","ISI","","html-keyboard-response","429","426398","0.0-1.0-588.0","0","0","74305","","null","","","null","65","NaN","","","","","","","","","","","","","","",""
"","S2","","html-keyboard-response","430","426651","0.0-1.0-589.0","0","0","74305","","null","","","null","65","","NaN","","","","","","","","","","","","","",""
"","response","","html-keyboard-response","431","426923","0.0-1.0-590.0","0","0","74305","","271","","","75","65","","","2","65","training","adjacent","AB","1","2","O.jpg","L.jpg","1","1","1","",""
"","feedback","","html-keyboard-response","432","427926","0.0-1.0-591.0-0.0","0","0","74305","","null","","","null","65","","","","","","","","","","","","","","","",""
"","ITI","","html-keyboard-response","433","428929","0.0-1.0-594.0","0","0","74305","","null","","","null","65","","","","","","","","","","","","","","","NaN",""
"","S1","","html-keyboard-response","434","429181","0.0-1.0-596.0","0","0","74305","","null","","","null","66","","","","","","","","","","","","","","","",""
"","ISI","","html-keyboard-response","435","431184","0.0-1.0-597.0","0","0","74305","","null","","","null","66","NaN","","","","","","","","","","","","","","",""
"","S2","","html-keyboard-response","436","431437","0.0-1.0-598.0","0","0","74305","","null","","","null","66","","NaN","","","","","","","","","","","","","",""
"","response","","html-keyboard-response","437","431714","0.0-1.0-599.0","0","0","74305","","276","","","68","66","","","2","66","training","adjacent","CB","3","2","N.jpg","L.jpg","0","0","1","",""
"","feedback","","html-keyboard-response","438","432716","0.0-1.0-600.0-0.0","0","0","74305","","null","","","null","66","","","","","","","","","","","","","","","",""
"","ITI","","html-keyboard-response","439","433718","0.0-1.0-603.0","0","0","74305","","null","","","null","66","","","","","","","","","","","","","","","NaN",""
"","S1","","html-keyboard-response","440","433970","0.0-1.0-605.0","0","0","74305","","null","","","null","67","","","","","","","","","","","","","","","",""
"","ISI","","html-keyboard-response","441","435973","0.0-1.0-606.0","0","0","74305","","null","","","null","67","NaN","","","","","","","","","","","","","","",""
"","S2","","html-keyboard-response","442","436226","0.0-1.0-607.0","0","0","74305","","null","","","null","67","","NaN","","","","","","","","","","","","","",""
"","response","","html-keyboard-response","443","436458","0.0-1.0-608.0","0","0","74305","","230","","","68","67","","","2","67","training","adjacent","BA","2","1","L.jpg","O.jpg","0","0","1","",""
"","feedback","","html-keyboard-response","444","437460","0.0-1.0-609.0-0.0","0","0","74305","","null","","","null","67","","","","","","","","","","","","","","","",""
"","ITI","","html-keyboard-response","445","438462","0.0-1.0-612.0","0","0","74305","","null","","","null","67","","","","","","","","","","","","","","","NaN",""
"","S1","","html-keyboard-response","446","438715","0.0-1.0-614.0","0","0","74305","","null","","","null","68","","","","","","","","","","","","","","","",""
"","ISI","","html-keyboard-response","447","440717","0.0-1.0-615.0","0","0","74305","","null","","","null","68","NaN","","","","","","","","","","","","","","",""
"","S2","","html-keyboard-response","448","440970","0.0-1.0-616.0","0","0","74305","","null","","","null","68","","NaN","","","","","","","","","","","","","",""
"","response","","html-keyboard-response","449","441179","0.0-1.0-617.0","0","0","74305","","208","","","68","68","","","2","68","training","adjacent","BA","2","1","L.jpg","O.jpg","0","0","1","",""
"","feedback","","html-keyboard-response","450","442182","0.0-1.0-618.0-0.0","0","0","74305","","null","","","null","68","","","","","","","","","","","","","","","",""
"","ITI","","html-keyboard-response","451","443185","0.0-1.0-621.0","0","0","74305","","null","","","null","68","","","","","","","","","","","","","","","NaN",""
"","S1","","html-keyboard-response","452","443437","0.0-1.0-623.0","0","0","74305","","null","","","null","69","","","","","","","","","","","","","","","",""
"","ISI","","html-keyboard-response","453","445440","0.0-1.0-624.0","0","0","74305","","null","","","null","69","NaN","","","","","","","","","","","","","","",""
"","S2","","html-keyboard-response","454","445692","0.0-1.0-625.0","0","0","74305","","null","","","null","69","","NaN","","","","","","","","","","","","","",""
"","response","","html-keyboard-response","455","445915","0.0-1.0-626.0","0","0","74305","","222","","","68","69","","","2","69","training","adjacent","BA","2","1","L.jpg","O.jpg","0","0","1","",""
"","feedback","","html-keyboard-response","456","446918","0.0-1.0-627.0-0.0","0","0","74305","","null","","","null","69","","","","","","","","","","","","","","","",""
"","ITI","","html-keyboard-response","457","447921","0.0-1.0-630.0","0","0","74305","","null","","","null","69","","","","","","","","","","","","","","","NaN",""
"","S1","","html-keyboard-response","458","448173","0.0-1.0-632.0","0","0","74305","","null","","","null","70","","","","","","","","","","","","","","","",""
"","ISI","","html-keyboard-response","459","450176","0.0-1.0-633.0","0","0","74305","","null","","","null","70","NaN","","","","","","","","","","","","","","",""
"","S2","","html-keyboard-response","460","450428","0.0-1.0-634.0","0","0","74305","","null","","","null","70","","NaN","","","","","","","","","","","","","",""
"","response","","html-keyboard-response","461","450665","0.0-1.0-635.0","0","0","74305","","236","","","68","70","","","2","70","training","adjacent","DC","4","3","M.jpg","N.jpg","0","0","1","",""
"","feedback","","html-keyboard-response","462","451668","0.0-1.0-636.0-0.0","0","0","74305","","null","","","null","70","","","","","","","","","","","","","","","",""
"","ITI","","html-keyboard-response","463","452670","0.0-1.0-639.0","0","0","74305","","null","","","null","70","","","","","","","","","","","","","","","NaN",""
"","S1","","html-keyboard-response","464","452923","0.0-1.0-641.0","0","0","74305","","null","","","null","71","","","","","","","","","","","","","","","",""
"","ISI","","html-keyboard-response","465","454925","0.0-1.0-642.0","0","0","74305","","null","","","null","71","NaN","","","","","","","","","","","","","","",""
"","S2","","html-keyboard-response","466","455178","0.0-1.0-643.0","0","0","74305","","null","","","null","71","","NaN","","","","","","","","","","","","","",""
"","response","","html-keyboard-response","467","455371","0.0-1.0-644.0","0","0","74305","","191","","","68","71","","","2","71","training","adjacent","CB","3","2","N.jpg","L.jpg","0","0","1","",""
"","feedback","","html-keyboard-response","468","456373","0.0-1.0-645.0-0.0","0","0","74305","","null","","","null","71","","","","","","","","","","","","","","","",""
"","ITI","","html-keyboard-response","469","457376","0.0-1.0-648.0","0","0","74305","","null","","","null","71","","","","","","","","","","","","","","","NaN",""
"","S1","","html-keyboard-response","470","457629","0.0-1.0-650.0","0","0","74305","","null","","","null","72","","","","","","","","","","","","","","","",""
"","ISI","","html-keyboard-response","471","459631","0.0-1.0-651.0","0","0","74305","","null","","","null","72","NaN","","","","","","","","","","","","","","",""
"","S2","","html-keyboard-response","472","459883","0.0-1.0-652.0","0","0","74305","","null","","","null","72","","NaN","","","","","","","","","","","","","",""
"","response","","html-keyboard-response","473","460153","0.0-1.0-653.0","0","0","74305","","269","","","75","72","","","2","72","training","adjacent","AB","1","2","O.jpg","L.jpg","1","1","1","",""
"","feedback","","html-keyboard-response","474","461155","0.0-1.0-654.0-0.0","0","0","74305","","null","","","null","72","","","","","","","","","","","","","","","",""
"","ITI","","html-keyboard-response","475","462157","0.0-1.0-657.0","0","0","74305","","null","","","null","72","","","","","","","","","","","","","","","NaN",""
"","S1","","html-keyboard-response","476","462409","0.0-1.0-659.0","0","0","74305","","null","","","null","73","","","","","","","","","","","","","","","",""
"","ISI","","html-keyboard-response","477","464412","0.0-1.0-660.0","0","0","74305","","null","","","null","73","NaN","","","","","","","","","","","","","","",""
"","S2","","html-keyboard-response","478","464664","0.0-1.0-661.0","0","0","74305","","null","","","null","73","","NaN","","","","","","","","","","","","","",""
"","response","","html-keyboard-response","479","465091","0.0-1.0-662.0","0","0","74305","","426","","","75","73","","","2","73","training","adjacent","DE","4","5","M.jpg","R.jpg","1","1","1","",""
"","feedback","","html-keyboard-response","480","466093","0.0-1.0-663.0-0.0","0","0","74305","","null","","","null","73","","","","","","","","","","","","","","","",""
"","ITI","","html-keyboard-response","481","467096","0.0-1.0-666.0","0","0","74305","","null","","","null","73","","","","","","","","","","","","","","","NaN",""
"","S1","","html-keyboard-response","482","467349","0.0-1.0-668.0","0","0","74305","","null","","","null","74","","","","","","","","","","","","","","","",""
"","ISI","","html-keyboard-response","483","469349","0.0-1.0-669.0","0","0","74305","","null","","","null","74","NaN","","","","","","","","","","","","","","",""
"","S2","","html-keyboard-response","484","469601","0.0-1.0-670.0","0","0","74305","","null","","","null","74","","NaN","","","","","","","","","","","","","",""
"","response","","html-keyboard-response","485","469881","0.0-1.0-671.0","0","0","74305","","278","","","75","74","","","2","74","training","adjacent","DC","4","3","M.jpg","N.jpg","1","0","0","",""
"","feedback","","html-keyboard-response","486","470884","0.0-1.0-672.0-0.0","0","0","74305","","null","","","null","74","","","","","","","","","","","","","","","",""
"","time_out","","html-keyboard-response","487","472887","0.0-1.0-674.0-0.0","0","0","74305","","null","","","null","74","","","","","","","","","","","","","","","",""
"","ITI","","html-keyboard-response","488","473891","0.0-1.0-675.0","0","0","74305","","null","","","null","74","","","","","","","","","","","","","","","NaN",""
"","S1","","html-keyboard-response","489","474143","0.0-1.0-677.0","0","0","74305","","null","","","null","75","","","","","","","","","","","","","","","",""
"","ISI","","html-keyboard-response","490","476145","0.0-1.0-678.0","0","0","74305","","null","","","null","75","NaN","","","","","","","","","","","","","","",""
"","S2","","html-keyboard-response","491","476398","0.0-1.0-679.0","0","0","74305","","null","","","null","75","","NaN","","","","","","","","","","","","","",""
"","response","","html-keyboard-response","492","476856","0.0-1.0-680.0","0","0","74305","","457","","","68","75","","","2","75","training","adjacent","CD","3","4","N.jpg","M.jpg","0","1","0","",""
"","feedback","","html-keyboard-response","493","477858","0.0-1.0-681.0-0.0","0","0","74305","","null","","","null","75","","","","","","","","","","","","","","","",""
"","time_out","","html-keyboard-response","494","479865","0.0-1.0-683.0-0.0","0","0","74305","","null","","","null","75","","","","","","","","","","","","","","","",""
"","ITI","","html-keyboard-response","495","480868","0.0-1.0-684.0","0","0","74305","","null","","","null","75","","","","","","","","","","","","","","","NaN",""
"","S1","","html-keyboard-response","496","481121","0.0-1.0-686.0","0","0","74305","","null","","","null","76","","","","","","","","","","","","","","","",""
"","ISI","","html-keyboard-response","497","483122","0.0-1.0-687.0","0","0","74305","","null","","","null","76","NaN","","","","","","","","","","","","","","",""
"","S2","","html-keyboard-response","498","483374","0.0-1.0-688.0","0","0","74305","","null","","","null","76","","NaN","","","","","","","","","","","","","",""
"","response","","html-keyboard-response","499","483928","0.0-1.0-689.0","0","0","74305","","552","","","75","76","","","2","76","training","adjacent","CB","3","2","N.jpg","L.jpg","1","0","0","",""
"","feedback","","html-keyboard-response","500","484932","0.0-1.0-690.0-0.0","0","0","74305","","null","","","null","76","","","","","","","","","","","","","","","",""
"","time_out","","html-keyboard-response","501","486935","0.0-1.0-692.0-0.0","0","0","74305","","null","","","null","76","","","","","","","","","","","","","","","",""
"","ITI","","html-keyboard-response","502","487938","0.0-1.0-693.0","0","0","74305","","null","","","null","76","","","","","","","","","","","","","","","NaN",""
"","S1","","html-keyboard-response","503","488190","0.0-1.0-695.0","0","0","74305","","null","","","null","77","","","","","","","","","","","","","","","",""
"","ISI","","html-keyboard-response","504","490193","0.0-1.0-696.0","0","0","74305","","null","","","null","77","NaN","","","","","","","","","","","","","","",""
"","S2","","html-keyboard-response","505","490445","0.0-1.0-697.0","0","0","74305","","null","","","null","77","","NaN","","","","","","","","","","","","","",""
"","response","","html-keyboard-response","506","490823","0.0-1.0-698.0","0","0","74305","","376","","","75","77","","","2","77","training","adjacent","AB","1","2","O.jpg","L.jpg","1","1","1","",""
"","feedback","","html-keyboard-response","507","491824","0.0-1.0-699.0-0.0","0","0","74305","","null","","","null","77","","","","","","","","","","","","","","","",""
"","ITI","","html-keyboard-response","508","492826","0.0-1.0-702.0","0","0","74305","","null","","","null","77","","","","","","","","","","","","","","","NaN",""
"","S1","","html-keyboard-response","509","493078","0.0-1.0-704.0","0","0","74305","","null","","","null","78","","","","","","","","","","","","","","","",""
"","ISI","","html-keyboard-response","510","495087","0.0-1.0-705.0","0","0","74305","","null","","","null","78","NaN","","","","","","","","","","","","","","",""
"","S2","","html-keyboard-response","511","495339","0.0-1.0-706.0","0","0","74305","","null","","","null","78","","NaN","","","","","","","","","","","","","",""
"","response","","html-keyboard-response","512","495599","0.0-1.0-707.0","0","0","74305","","259","","","68","78","","","2","78","training","adjacent","FE","6","5","P.jpg","R.jpg","0","0","1","",""
"","feedback","","html-keyboard-response","513","496601","0.0-1.0-708.0-0.0","0","0","74305","","null","","","null","78","","","","","","","","","","","","","","","",""
"","ITI","","html-keyboard-response","514","497603","0.0-1.0-711.0","0","0","74305","","null","","","null","78","","","","","","","","","","","","","","","NaN",""
"","S1","","html-keyboard-response","515","497857","0.0-1.0-713.0","0","0","74305","","null","","","null","79","","","","","","","","","","","","","","","",""
"","ISI","","html-keyboard-response","516","499859","0.0-1.0-714.0","0","0","74305","","null","","","null","79","NaN","","","","","","","","","","","","","","",""
"","S2","","html-keyboard-response","517","500111","0.0-1.0-715.0","0","0","74305","","null","","","null","79","","NaN","","","","","","","","","","","","","",""
"","response","","html-keyboard-response","518","500377","0.0-1.0-716.0","0","0","74305","","264","","","75","79","","","2","79","training","adjacent","ED","5","4","R.jpg","M.jpg","1","0","0","",""
"","feedback","","html-keyboard-response","519","501380","0.0-1.0-717.0-0.0","0","0","74305","","null","","","null","79","","","","","","","","","","","","","","","",""
"","time_out","","html-keyboard-response","520","503382","0.0-1.0-719.0-0.0","0","0","74305","","null","","","null","79","","","","","","","","","","","","","","","",""
"","ITI","","html-keyboard-response","521","504385","0.0-1.0-720.0","0","0","74305","","null","","","null","79","","","","","","","","","","","","","","","NaN",""
"","S1","","html-keyboard-response","522","504637","0.0-1.0-722.0","0","0","74305","","null","","","null","80","","","","","","","","","","","","","","","",""
"","ISI","","html-keyboard-response","523","506639","0.0-1.0-723.0","0","0","74305","","null","","","null","80","NaN","","","","","","","","","","","","","","",""
"","S2","","html-keyboard-response","524","506890","0.0-1.0-724.0","0","0","74305","","null","","","null","80","","NaN","","","","","","","","","","","","","",""
"","response","","html-keyboard-response","525","507223","0.0-1.0-725.0","0","0","74305","","331","","","68","80","","","2","80","training","adjacent","FG","6","7","P.jpg","Q.jpg","0","1","0","",""
"","feedback","","html-keyboard-response","526","508226","0.0-1.0-726.0-0.0","0","0","74305","","null","","","null","80","","","","","","","","","","","","","","","",""
"","time_out","","html-keyboard-response","527","510228","0.0-1.0-728.0-0.0","0","0","74305","","null","","","null","80","","","","","","","","","","","","","","","",""
"","ITI","","html-keyboard-response","528","511231","0.0-1.0-729.0","0","0","74305","","null","","","null","80","","","","","","","","","","","","","","","NaN",""
"","S1","","html-keyboard-response","529","511483","0.0-1.0-731.0","0","0","74305","","null","","","null","81","","","","","","","","","","","","","","","",""
"","ISI","","html-keyboard-response","530","513485","0.0-1.0-732.0","0","0","74305","","null","","","null","81","NaN","","","","","","","","","","","","","","",""
"","S2","","html-keyboard-response","531","513738","0.0-1.0-733.0","0","0","74305","","null","","","null","81","","NaN","","","","","","","","","","","","","",""
"","response","","html-keyboard-response","532","514119","0.0-1.0-734.0","0","0","74305","","380","","","75","81","","","2","81","training","adjacent","ED","5","4","R.jpg","M.jpg","1","0","0","",""
"","feedback","","html-keyboard-response","533","515121","0.0-1.0-735.0-0.0","0","0","74305","","null","","","null","81","","","","","","","","","","","","","","","",""
"","time_out","","html-keyboard-response","534","517123","0.0-1.0-737.0-0.0","0","0","74305","","null","","","null","81","","","","","","","","","","","","","","","",""
"","ITI","","html-keyboard-response","535","518126","0.0-1.0-738.0","0","0","74305","","null","","","null","81","","","","","","","","","","","","","","","NaN",""
"","S1","","html-keyboard-response","536","518378","0.0-1.0-740.0","0","0","74305","","null","","","null","82","","","","","","","","","","","","","","","",""
"","ISI","","html-keyboard-response","537","520380","0.0-1.0-741.0","0","0","74305","","null","","","null","82","NaN","","","","","","","","","","","","","","",""
"","S2","","html-keyboard-response","538","520635","0.0-1.0-742.0","0","0","74305","","null","","","null","82","","NaN","","","","","","","","","","","","","",""
"","response","","html-keyboard-response","539","521152","0.0-1.0-743.0","0","0","74305","","515","","","75","82","","","2","82","training","adjacent","FE","6","5","P.jpg","R.jpg","1","0","0","",""
"","feedback","","html-keyboard-response","540","522155","0.0-1.0-744.0-0.0","0","0","74305","","null","","","null","82","","","","","","","","","","","","","","","",""
"","time_out","","html-keyboard-response","541","524158","0.0-1.0-746.0-0.0","0","0","74305","","null","","","null","82","","","","","","","","","","","","","","","",""
"","ITI","","html-keyboard-response","542","525160","0.0-1.0-747.0","0","0","74305","","null","","","null","82","","","","","","","","","","","","","","","NaN",""
"","S1","","html-keyboard-response","543","525413","0.0-1.0-749.0","0","0","74305","","null","","","null","83","","","","","","","","","","","","","","","",""
"","ISI","","html-keyboard-response","544","527415","0.0-1.0-750.0","0","0","74305","","null","","","null","83","NaN","","","","","","","","","","","","","","",""
"","S2","","html-keyboard-response","545","527668","0.0-1.0-751.0","0","0","74305","","null","","","null","83","","NaN","","","","","","","","","","","","","",""
"","response","","html-keyboard-response","546","528032","0.0-1.0-752.0","0","0","74305","","363","","","75","83","","","2","83","training","adjacent","AB","1","2","O.jpg","L.jpg","1","1","1","",""
"","feedback","","html-keyboard-response","547","529033","0.0-1.0-753.0-0.0","0","0","74305","","null","","","null","83","","","","","","","","","","","","","","","",""
"","ITI","","html-keyboard-response","548","530032","0.0-1.0-756.0","0","0","74305","","null","","","null","83","","","","","","","","","","","","","","","NaN",""
"","S1","","html-keyboard-response","549","530284","0.0-1.0-758.0","0","0","74305","","null","","","null","84","","","","","","","","","","","","","","","",""
"","ISI","","html-keyboard-response","550","532286","0.0-1.0-759.0","0","0","74305","","null","","","null","84","NaN","","","","","","","","","","","","","","",""
"","S2","","html-keyboard-response","551","532539","0.0-1.0-760.0","0","0","74305","","null","","","null","84","","NaN","","","","","","","","","","","","","",""
"","response","","html-keyboard-response","552","532916","0.0-1.0-761.0","0","0","74305","","376","","","68","84","","","2","84","training","adjacent","FE","6","5","P.jpg","R.jpg","0","0","1","",""
"","feedback","","html-keyboard-response","553","533919","0.0-1.0-762.0-0.0","0","0","74305","","null","","","null","84","","","","","","","","","","","","","","","",""
"","ITI","","html-keyboard-response","554","534921","0.0-1.0-765.0","0","0","74305","","null","","","null","84","","","","","","","","","","","","","","","NaN",""
"","S1","","html-keyboard-response","555","535172","0.0-1.0-767.0","0","0","74305","","null","","","null","85","","","","","","","","","","","","","","","",""
"","ISI","","html-keyboard-response","556","537174","0.0-1.0-768.0","0","0","74305","","null","","","null","85","NaN","","","","","","","","","","","","","","",""
"","S2","","html-keyboard-response","557","537427","0.0-1.0-769.0","0","0","74305","","null","","","null","85","","NaN","","","","","","","","","","","","","",""
"","response","","html-keyboard-response","558","537972","0.0-1.0-770.0","0","0","74305","","543","","","75","85","","","2","85","training","adjacent","FG","6","7","P.jpg","Q.jpg","1","1","1","",""
"","feedback","","html-keyboard-response","559","538974","0.0-1.0-771.0-0.0","0","0","74305","","null","","","null","85","","","","","","","","","","","","","","","",""
"","ITI","","html-keyboard-response","560","539976","0.0-1.0-774.0","0","0","74305","","null","","","null","85","","","","","","","","","","","","","","","NaN",""
"","S1","","html-keyboard-response","561","540228","0.0-1.0-776.0","0","0","74305","","null","","","null","86","","","","","","","","","","","","","","","",""
"","ISI","","html-keyboard-response","562","542230","0.0-1.0-777.0","0","0","74305","","null","","","null","86","NaN","","","","","","","","","","","","","","",""
"","S2","","html-keyboard-response","563","542482","0.0-1.0-778.0","0","0","74305","","null","","","null","86","","NaN","","","","","","","","","","","","","",""
"","response","","html-keyboard-response","564","542748","0.0-1.0-779.0","0","0","74305","","265","","","68","86","","","2","86","training","adjacent","DE","4","5","M.jpg","R.jpg","0","1","0","",""
"","feedback","","html-keyboard-response","565","543750","0.0-1.0-780.0-0.0","0","0","74305","","null","","","null","86","","","","","","","","","","","","","","","",""
"","time_out","","html-keyboard-response","566","545752","0.0-1.0-782.0-0.0","0","0","74305","","null","","","null","86","","","","","","","","","","","","","","","",""
"","ITI","","html-keyboard-response","567","546754","0.0-1.0-783.0","0","0","74305","","null","","","null","86","","","","","","","","","","","","","","","NaN",""
"","S1","","html-keyboard-response","568","547006","0.0-1.0-785.0","0","0","74305","","null","","","null","87","","","","","","","","","","","","","","","",""
"","ISI","","html-keyboard-response","569","549007","0.0-1.0-786.0","0","0","74305","","null","","","null","87","NaN","","","","","","","","","","","","","","",""
"","S2","","html-keyboard-response","570","549260","0.0-1.0-787.0","0","0","74305","","null","","","null","87","","NaN","","","","","","","","","","","","","",""
"","response","","html-keyboard-response","571","549565","0.0-1.0-788.0","0","0","74305","","303","","","75","87","","","2","87","training","adjacent","DC","4","3","M.jpg","N.jpg","1","0","0","",""
"","feedback","","html-keyboard-response","572","550567","0.0-1.0-789.0-0.0","0","0","74305","","null","","","null","87","","","","","","","","","","","","","","","",""
"","time_out","","html-keyboard-response","573","552570","0.0-1.0-791.0-0.0","0","0","74305","","null","","","null","87","","","","","","","","","","","","","","","",""
"","ITI","","html-keyboard-response","574","553572","0.0-1.0-792.0","0","0","74305","","null","","","null","87","","","","","","","","","","","","","","","NaN",""
"","S1","","html-keyboard-response","575","553825","0.0-1.0-794.0","0","0","74305","","null","","","null","88","","","","","","","","","","","","","","","",""
"","ISI","","html-keyboard-response","576","555827","0.0-1.0-795.0","0","0","74305","","null","","","null","88","NaN","","","","","","","","","","","","","","",""
"","S2","","html-keyboard-response","577","556080","0.0-1.0-796.0","0","0","74305","","null","","","null","88","","NaN","","","","","","","","","","","","","",""
"","response","","html-keyboard-response","578","556332","0.0-1.0-797.0","0","0","74305","","252","","","75","88","","","2","88","training","adjacent","BC","2","3","L.jpg","N.jpg","1","1","1","",""
"","feedback","","html-keyboard-response","579","557336","0.0-1.0-798.0-0.0","0","0","74305","","null","","","null","88","","","","","","","","","","","","","","","",""
"","ITI","","html-keyboard-response","580","558339","0.0-1.0-801.0","0","0","74305","","null","","","null","88","","","","","","","","","","","","","","","NaN",""
"","S1","","html-keyboard-response","581","558591","0.0-1.0-803.0","0","0","74305","","null","","","null","89","","","","","","","","","","","","","","","",""
"","ISI","","html-keyboard-response","582","560593","0.0-1.0-804.0","0","0","74305","","null","","","null","89","NaN","","","","","","","","","","","","","","",""
"","S2","","html-keyboard-response","583","560847","0.0-1.0-805.0","0","0","74305","","null","","","null","89","","NaN","","","","","","","","","","","","","",""
"","response","","html-keyboard-response","584","561359","0.0-1.0-806.0","0","0","74305","","510","","","68","89","","","2","89","training","adjacent","EF","5","6","R.jpg","P.jpg","0","1","0","",""
"","feedback","","html-keyboard-response","585","562361","0.0-1.0-807.0-0.0","0","0","74305","","null","","","null","89","","","","","","","","","","","","","","","",""
