"success","ttype","start_time","trial_type","trial_index","time_elapsed","internal_node_id","warning","missed_checkup","PID","view_history","rt","responses","repeat_instructions","key_press","index","keypress_isi","keypress_S2","block","trial_num","phase","group_type","pair_type","S1_stim","S2_stim","S1_img","S2_img","S1_chosen","S1_higher","accuracy","keypress_iti","total_bonus_tally"
"true","full_screen","d03032023hr2255","fullscreen","0","2578","0.0-0.0","0","0","42867","","","","","","","","","","","","","","","","","","","","","",""
"","instructions","","instructions","1","23320","0.0-1.0-0.0-0.0","0","0","42867","[{""page_index"":0,""viewing_time"":2058},{""page_index"":1,""viewing_time"":7711},{""page_index"":2,""viewing_time"":9778},{""page_index"":3,""viewing_time"":1194}]","20741","","","","","","","","","","","","","","","","","","","",""
"","comprehension_check","","survey-multi-choice","2","49246","0.0-1.0-0.0-1.0","0","0","42867","","25923","{""Q0"":""True"",""Q1"":""D"",""Q2"":""Only when the screen 'MAKE A CHOICE' is shown"",""Q3"":""Green mark"",""Q4"":""either D or K""}","1","","","","","","","","","","","","","","","","","",""
"","missed_instruction_checkup","","html-keyboard-response","3","51200","0.0-1.0-0.0-2.0-0.0","0","1","42867","","1952","","","32","","","","","","","","","","","","","","","","",""
"","instructions","","instructions","4","74857","0.0-1.0-0.1-0.1","0","0","42867","[{""page_index"":0,""viewing_time"":2017},{""page_index"":1,""viewing_time"":17450},{""page_index"":2,""viewing_time"":3066},{""page_index"":3,""viewing_time"":1123}]","23657","","","","","","","","","","","","","","","","","","","",""
"","comprehension_check","","survey-multi-choice","5","86524","0.0-1.0-0.1-1.1","0","0","42867","","11664","{""Q0"":""True"",""Q1"":""K"",""Q2"":""Once the second image appears and while the screen 'MAKE A CHOICE' is shown"",""Q3"":""Green mark"",""Q4"":""either D or K""}","0","","","","","","","","","","","","","","","","","",""
"","start_exp","","html-keyboard-response","6","87619","0.0-1.0-1.0","0","0","42867","","1093","","","32","","","","","","","","","","","","","","","","",""
"","S1","","html-keyboard-response","7","87872","0.0-1.0-2.0","0","0","42867","","null","","","null","0","","","","","","","","","","","","","","","",""
"","ISI","","html-keyboard-response","8","88375","0.0-1.0-3.0","0","0","42867","","null","","","null","0","NaN","","","","","","","","","","","","","","",""
"","S2","","html-keyboard-response","9","88627","0.0-1.0-4.0","0","0","42867","","null","","","null","0","","NaN","","","","","","","","","","","","","",""
"","response","","html-keyboard-response","10","88849","0.0-1.0-5.0-0.0","0","0","42867","","220","","","68","0","","","1","0","training","adjacent","CD","3","4","R.jpg","N.jpg","0","1","0","",""
"","feedback","","html-keyboard-response","11","89853","0.0-1.0-6.0-0.0","0","0","42867","","null","","","null","0","","","","","","","","","","","","","","","",""
"","time_out","","html-keyboard-response","12","91855","0.0-1.0-8.0-0.0","0","0","42867","","null","","","null","0","","","","","","","","","","","","","","","",""
"","ITI","","html-keyboard-response","13","92857","0.0-1.0-9.0","0","0","42867","","null","","","null","0","","","","","","","","","","","","","","","NaN",""
"","S1","","html-keyboard-response","14","93110","0.0-1.0-11.0","0","0","42867","","null","","","null","1","","","","","","","","","","","","","","","",""
"","ISI","","html-keyboard-response","15","93612","0.0-1.0-12.0","0","0","42867","","99","","","75","1","k","","","","","","","","","","","","","","",""
"","S2","","html-keyboard-response","16","93854","0.0-1.0-13.0","0","0","42867","","240","","","75","1","","k","1","1","training","adjacent","DE","4","5","N.jpg","M.jpg","1","1","1","",""
"","feedback","","html-keyboard-response","17","94857","0.0-1.0-15.0-0.0","0","0","42867","","null","","","null","1","","","","","","","","","","","","","","","",""
"","ITI","","html-keyboard-response","18","95859","0.0-1.0-18.0","0","0","42867","","null","","","null","1","","","","","","","","","","","","","","","NaN",""
"","S1","","html-keyboard-response","19","96111","0.0-1.0-20.0","0","0","42867","","null","","","null","2","","","","","","","","","","","","","","","",""
"","ISI","","html-keyboard-response","20","96614","0.0-1.0-21.0","0","0","42867","","null","","","null","2","NaN","","","","","","","","","","","","","","",""
"","S2","","html-keyboard-response","21","96867","0.0-1.0-22.0","0","0","42867","","null","","","null","2","","NaN","","","","","","","","","","","","","",""
"","response","","html-keyboard-response","22","96953","0.0-1.0-23.0-0.0","0","0","42867","","85","","","75","2","","","1","2","training","adjacent","BA","2","1","P.jpg","Q.jpg","1","0","0","",""
"","feedback","","html-keyboard-response","23","97972","0.0-1.0-24.0-0.0","0","0","42867","","null","","","null","2","","","","","","","","","","","","","","","",""
"","time_out","","html-keyboard-response","24","99974","0.0-1.0-26.0-0.0","0","0","42867","","null","","","null","2","","","","","","","","","","","","","","","",""
"","ITI","","html-keyboard-response","25","100976","0.0-1.0-27.0","0","0","42867","","null","","","null","2","","","","","","","","","","","","","","","NaN",""
"","S1","","html-keyboard-response","26","101230","0.0-1.0-29.0","0","0","42867","","null","","","null","3","","","","","","","","","","","","","","","",""
"","ISI","","html-keyboard-response","27","101732","0.0-1.0-30.0","0","0","42867","","null","","","null","3","NaN","","","","","","","","","","","","","","",""
"","S2","","html-keyboard-response","28","101974","0.0-1.0-31.0","0","0","42867","","240","","","68","3","","d","1","3","training","adjacent","BA","2","1","P.jpg","Q.jpg","0","0","1","",""
"","feedback","","html-keyboard-response","29","102977","0.0-1.0-33.0-0.0","0","0","42867","","null","","","null","3","","","","","","","","","","","","","","","",""
"","ITI","","html-keyboard-response","30","103979","0.0-1.0-36.0","0","0","42867","","null","","","null","3","","","","","","","","","","","","","","","NaN",""
"","S1","","html-keyboard-response","31","104232","0.0-1.0-38.0","0","0","42867","","null","","","null","4","","","","","","","","","","","","","","","",""
"","ISI","","html-keyboard-response","32","104734","0.0-1.0-39.0","0","0","42867","","null","","","null","4","NaN","","","","","","","","","","","","","","",""
"","S2","","html-keyboard-response","33","104955","0.0-1.0-40.0","0","0","42867","","220","","","75","4","","k","1","4","training","adjacent","BC","2","3","P.jpg","R.jpg","1","1","1","",""
"","feedback","","html-keyboard-response","34","105958","0.0-1.0-42.0-0.0","0","0","42867","","null","","","null","4","","","","","","","","","","","","","","","",""
"","ITI","","html-keyboard-response","35","106960","0.0-1.0-45.0","0","0","42867","","null","","","null","4","","","","","","","","","","","","","","","NaN",""
"","S1","","html-keyboard-response","36","107216","0.0-1.0-47.0","0","0","42867","","null","","","null","5","","","","","","","","","","","","","","","",""
"","ISI","","html-keyboard-response","37","107718","0.0-1.0-48.0","0","0","42867","","null","","","null","5","NaN","","","","","","","","","","","","","","",""
"","S2","","html-keyboard-response","38","107928","0.0-1.0-49.0","0","0","42867","","209","","","75","5","","k","1","5","training","adjacent","CB","3","2","R.jpg","P.jpg","1","0","0","",""
"","feedback","","html-keyboard-response","39","108931","0.0-1.0-51.0-0.0","0","0","42867","","null","","","null","5","","","","","","","","","","","","","","","",""
"","time_out","","html-keyboard-response","40","110933","0.0-1.0-53.0-0.0","0","0","42867","","null","","","null","5","","","","","","","","","","","","","","","",""
"","ITI","","html-keyboard-response","41","111936","0.0-1.0-54.0","0","0","42867","","null","","","null","5","","","","","","","","","","","","","","","NaN",""
"","S1","","html-keyboard-response","42","112190","0.0-1.0-56.0","0","0","42867","","null","","","null","6","","","","","","","","","","","","","","","",""
"","ISI","","html-keyboard-response","43","112692","0.0-1.0-57.0","0","0","42867","","null","","","null","6","NaN","","","","","","","","","","","","","","",""
"","S2","","html-keyboard-response","44","112940","0.0-1.0-58.0","0","0","42867","","246","","","75","6","","k","1","6","training","adjacent","DC","4","3","N.jpg","R.jpg","1","0","0","",""
"","feedback","","html-keyboard-response","45","113943","0.0-1.0-60.0-0.0","0","0","42867","","null","","","null","6","","","","","","","","","","","","","","","",""
"","time_out","","html-keyboard-response","46","115957","0.0-1.0-62.0-0.0","0","0","42867","","null","","","null","6","","","","","","","","","","","","","","","",""
"","ITI","","html-keyboard-response","47","116959","0.0-1.0-63.0","0","0","42867","","null","","","null","6","","","","","","","","","","","","","","","NaN",""
"","S1","","html-keyboard-response","48","117212","0.0-1.0-65.0","0","0","42867","","null","","","null","7","","","","","","","","","","","","","","","",""
"","ISI","","html-keyboard-response","49","117714","0.0-1.0-66.0","0","0","42867","","null","","","null","7","NaN","","","","","","","","","","","","","","",""
"","S2","","html-keyboard-response","50","117956","0.0-1.0-67.0","0","0","42867","","241","","","68","7","","d","1","7","training","adjacent","GF","7","6","O.jpg","L.jpg","0","0","1","",""
"","feedback","","html-keyboard-response","51","118959","0.0-1.0-69.0-0.0","0","0","42867","","null","","","null","7","","","","","","","","","","","","","","","",""
"","ITI","","html-keyboard-response","52","119962","0.0-1.0-72.0","0","0","42867","","null","","","null","7","","","","","","","","","","","","","","","NaN",""
"","S1","","html-keyboard-response","53","120214","0.0-1.0-74.0","0","0","42867","","null","","","null","8","","","","","","","","","","","","","","","",""
"","ISI","","html-keyboard-response","54","120716","0.0-1.0-75.0","0","0","42867","","null","","","null","8","NaN","","","","","","","","","","","","","","",""
"","S2","","html-keyboard-response","55","120823","0.0-1.0-76.0","0","0","42867","","106","","","68","8","","d","1","8","training","adjacent","AB","1","2","Q.jpg","P.jpg","0","1","0","",""
"","feedback","","html-keyboard-response","56","121825","0.0-1.0-78.0-0.0","0","0","42867","","null","","","null","8","","","","","","","","","","","","","","","",""
"","time_out","","html-keyboard-response","57","123828","0.0-1.0-80.0-0.0","0","0","42867","","null","","","null","8","","","","","","","","","","","","","","","",""
"","ITI","","html-keyboard-response","58","124831","0.0-1.0-81.0","0","0","42867","","null","","","null","8","","","","","","","","","","","","","","","NaN",""
"","S1","","html-keyboard-response","59","125083","0.0-1.0-83.0","0","0","42867","","null","","","null","9","","","","","","","","","","","","","","","",""
"","ISI","","html-keyboard-response","60","125585","0.0-1.0-84.0","0","0","42867","","null","","","null","9","NaN","","","","","","","","","","","","","","",""
"","S2","","html-keyboard-response","61","125779","0.0-1.0-85.0","0","0","42867","","193","","","75","9","","k","1","9","training","adjacent","DC","4","3","N.jpg","R.jpg","1","0","0","",""
"","feedback","","html-keyboard-response","62","126782","0.0-1.0-87.0-0.0","0","0","42867","","null","","","null","9","","","","","","","","","","","","","","","",""
"","time_out","","html-keyboard-response","63","128784","0.0-1.0-89.0-0.0","0","0","42867","","null","","","null","9","","","","","","","","","","","","","","","",""
"","ITI","","html-keyboard-response","64","129787","0.0-1.0-90.0","0","0","42867","","null","","","null","9","","","","","","","","","","","","","","","NaN",""
"","S1","","html-keyboard-response","65","130040","0.0-1.0-92.0","0","0","42867","","null","","","null","10","","","","","","","","","","","","","","","",""
"","ISI","","html-keyboard-response","66","130552","0.0-1.0-93.0","0","0","42867","","null","","","null","10","NaN","","","","","","","","","","","","","","",""
"","S2","","html-keyboard-response","67","130805","0.0-1.0-94.0","0","0","42867","","null","","","null","10","","NaN","","","","","","","","","","","","","",""
"","response","","html-keyboard-response","68","130843","0.0-1.0-95.0-0.0","0","0","42867","","36","","","75","10","","","1","10","training","adjacent","CD","3","4","R.jpg","N.jpg","1","1","1","",""
"","feedback","","html-keyboard-response","69","131852","0.0-1.0-96.0-0.0","0","0","42867","","null","","","null","10","","","","","","","","","","","","","","","",""
"","ITI","","html-keyboard-response","70","132855","0.0-1.0-99.0","0","0","42867","","null","","","null","10","","","","","","","","","","","","","","","NaN",""
"","S1","","html-keyboard-response","71","133108","0.0-1.0-101.0","0","0","42867","","null","","","null","11","","","","","","","","","","","","","","","",""
"","ISI","","html-keyboard-response","72","133610","0.0-1.0-102.0","0","0","42867","","null","","","null","11","NaN","","","","","","","","","","","","","","",""
"","S2","","html-keyboard-response","73","133863","0.0-1.0-103.0","0","0","42867","","null","","","null","11","","NaN","","","","","","","","","","","","","",""
"","response","","html-keyboard-response","74","134166","0.0-1.0-104.0-0.0","0","0","42867","","301","","","75","11","","","1","11","training","adjacent","CD","3","4","R.jpg","N.jpg","1","1","1","",""
"","feedback","","html-keyboard-response","75","135168","0.0-1.0-105.0-0.0","0","0","42867","","null","","","null","11","","","","","","","","","","","","","","","",""
"","ITI","","html-keyboard-response","76","136170","0.0-1.0-108.0","0","0","42867","","null","","","null","11","","","","","","","","","","","","","","","NaN",""
"","S1","","html-keyboard-response","77","136422","0.0-1.0-110.0","0","0","42867","","null","","","null","12","","","","","","","","","","","","","","","",""
"","ISI","","html-keyboard-response","78","136924","0.0-1.0-111.0","0","0","42867","","null","","","null","12","NaN","","","","","","","","","","","","","","",""
"","S2","","html-keyboard-response","79","137178","0.0-1.0-112.0","0","0","42867","","null","","","null","12","","NaN","","","","","","","","","","","","","",""
"","response","","html-keyboard-response","80","137528","0.0-1.0-113.0-0.0","0","0","42867","","349","","","75","12","","","1","12","training","adjacent","CB","3","2","R.jpg","P.jpg","1","0","0","",""
"","feedback","","html-keyboard-response","81","138531","0.0-1.0-114.0-0.0","0","0","42867","","null","","","null","12","","","","","","","","","","","","","","","",""
"","time_out","","html-keyboard-response","82","140533","0.0-1.0-116.0-0.0","0","0","42867","","null","","","null","12","","","","","","","","","","","","","","","",""
"","ITI","","html-keyboard-response","83","141535","0.0-1.0-117.0","0","0","42867","","null","","","null","12","","","","","","","","","","","","","","","NaN",""
"","S1","","html-keyboard-response","84","141787","0.0-1.0-119.0","0","0","42867","","null","","","null","13","","","","","","","","","","","","","","","",""
"","ISI","","html-keyboard-response","85","142290","0.0-1.0-120.0","0","0","42867","","null","","","null","13","NaN","","","","","","","","","","","","","","",""
"","S2","","html-keyboard-response","86","142542","0.0-1.0-121.0","0","0","42867","","null","","","null","13","","NaN","","","","","","","","","","","","","",""
"","response","","html-keyboard-response","87","142616","0.0-1.0-122.0-0.0","0","0","42867","","73","","","68","13","","","1","13","training","adjacent","GF","7","6","O.jpg","L.jpg","0","0","1","",""
"","feedback","","html-keyboard-response","88","143619","0.0-1.0-123.0-0.0","0","0","42867","","null","","","null","13","","","","","","","","","","","","","","","",""
"","ITI","","html-keyboard-response","89","144622","0.0-1.0-126.0","0","0","42867","","null","","","null","13","","","","","","","","","","","","","","","NaN",""
"","S1","","html-keyboard-response","90","144874","0.0-1.0-128.0","0","0","42867","","null","","","null","14","","","","","","","","","","","","","","","",""
"","ISI","","html-keyboard-response","91","145376","0.0-1.0-129.0","0","0","42867","","null","","","null","14","NaN","","","","","","","","","","","","","","",""
"","S2","","html-keyboard-response","92","145629","0.0-1.0-130.0","0","0","42867","","null","","","null","14","","NaN","","","","","","","","","","","","","",""
"","response","","html-keyboard-response","93","145721","0.0-1.0-131.0-0.0","0","0","42867","","89","","","68","14","","","1","14","training","adjacent","FE","6","5","L.jpg","M.jpg","0","0","1","",""
"","feedback","","html-keyboard-response","94","146723","0.0-1.0-132.0-0.0","0","0","42867","","null","","","null","14","","","","","","","","","","","","","","","",""
"","ITI","","html-keyboard-response","95","147732","0.0-1.0-135.0","0","0","42867","","null","","","null","14","","","","","","","","","","","","","","","NaN",""
"","S1","","html-keyboard-response","96","147985","0.0-1.0-137.0","0","0","42867","","null","","","null","15","","","","","","","","","","","","","","","",""
"","ISI","","html-keyboard-response","97","148487","0.0-1.0-138.0","0","0","42867","","null","","","null","15","NaN","","","","","","","","","","","","","","",""
"","S2","","html-keyboard-response","98","148741","0.0-1.0-139.0","0","0","42867","","null","","","null","15","","NaN","","","","","","","","","","","","","",""
"","response","","html-keyboard-response","99","148989","0.0-1.0-140.0-0.0","0","0","42867","","247","","","68","15","","","1","15","training","adjacent","EF","5","6","M.jpg","L.jpg","0","1","0","",""
"","feedback","","html-keyboard-response","100","149992","0.0-1.0-141.0-0.0","0","0","42867","","null","","","null","15","","","","","","","","","","","","","","","",""
"","time_out","","html-keyboard-response","101","151994","0.0-1.0-143.0-0.0","0","0","42867","","null","","","null","15","","","","","","","","","","","","","","","",""
"","ITI","","html-keyboard-response","102","152995","0.0-1.0-144.0","0","0","42867","","null","","","null","15","","","","","","","","","","","","","","","NaN",""
"","S1","","html-keyboard-response","103","153248","0.0-1.0-146.0","0","0","42867","","null","","","null","16","","","","","","","","","","","","","","","",""
"","ISI","","html-keyboard-response","104","153750","0.0-1.0-147.0","0","0","42867","","null","","","null","16","NaN","","","","","","","","","","","","","","",""
"","S2","","html-keyboard-response","105","154003","0.0-1.0-148.0","0","0","42867","","null","","","null","16","","NaN","","","","","","","","","","","","","",""
"","response","","html-keyboard-response","106","154295","0.0-1.0-149.0-0.0","0","0","42867","","291","","","68","16","","","1","16","training","adjacent","EF","5","6","M.jpg","L.jpg","0","1","0","",""
"","feedback","","html-keyboard-response","107","155298","0.0-1.0-150.0-0.0","0","0","42867","","null","","","null","16","","","","","","","","","","","","","","","",""
"","time_out","","html-keyboard-response","108","157300","0.0-1.0-152.0-0.0","0","0","42867","","null","","","null","16","","","","","","","","","","","","","","","",""
"","ITI","","html-keyboard-response","109","158318","0.0-1.0-153.0","0","0","42867","","null","","","null","16","","","","","","","","","","","","","","","NaN",""
"","S1","","html-keyboard-response","110","158571","0.0-1.0-155.0","0","0","42867","","null","","","null","17","","","","","","","","","","","","","","","",""
"","ISI","","html-keyboard-response","111","159073","0.0-1.0-156.0","0","0","42867","","null","","","null","17","NaN","","","","","","","","","","","","","","",""
"","S2","","html-keyboard-response","112","159326","0.0-1.0-157.0","0","0","42867","","null","","","null","17","","NaN","","","","","","","","","","","","","",""
"","response","","html-keyboard-response","113","159583","0.0-1.0-158.0-0.0","0","0","42867","","256","","","75","17","","","1","17","training","adjacent","BC","2","3","P.jpg","R.jpg","1","1","1","",""
"","feedback","","html-keyboard-response","114","160586","0.0-1.0-159.0-0.0","0","0","42867","","null","","","null","17","","","","","","","","","","","","","","","",""
"","ITI","","html-keyboard-response","115","161589","0.0-1.0-162.0","0","0","42867","","null","","","null","17","","","","","","","","","","","","","","","NaN",""
"","S1","","html-keyboard-response","116","161842","0.0-1.0-164.0","0","0","42867","","null","","","null","18","","","","","","","","","","","","","","","",""
"","ISI","","html-keyboard-response","117","162344","0.0-1.0-165.0","0","0","42867","","null","","","null","18","NaN","","","","","","","","","","","","","","",""
"","S2","","html-keyboard-response","118","162597","0.0-1.0-166.0","0","0","42867","","null","","","null","18","","NaN","","","","","","","","","","","","","",""
"","response","","html-keyboard-response","119","162693","0.0-1.0-167.0-0.0","0","0","42867","","95","","","75","18","","","1","18","training","adjacent","FE","6","5","L.jpg","M.jpg","1","0","0","",""
"","feedback","","html-keyboard-response","120","163695","0.0-1.0-168.0-0.0","0","0","42867","","null","","","null","18","","","","","","","","","","","","","","","",""
"","time_out","","html-keyboard-response","121","165698","0.0-1.0-170.0-0.0","0","0","42867","","null","","","null","18","","","","","","","","","","","","","","","",""
"","ITI","","html-keyboard-response","122","166700","0.0-1.0-171.0","0","0","42867","","null","","","null","18","","","","","","","","","","","","","","","NaN",""
"","S1","","html-keyboard-response","123","166952","0.0-1.0-173.0","0","0","42867","","null","","","null","19","","","","","","","","","","","","","","","",""
"","ISI","","html-keyboard-response","124","167454","0.0-1.0-174.0","0","0","42867","","null","","","null","19","NaN","","","","","","","","","","","","","","",""
"","S2","","html-keyboard-response","125","167708","0.0-1.0-175.0","0","0","42867","","null","","","null","19","","NaN","","","","","","","","","","","","","",""
"","response","","html-keyboard-response","126","167994","0.0-1.0-176.0-0.0","0","0","42867","","285","","","75","19","","","1","19","training","adjacent","EF","5","6","M.jpg","L.jpg","1","1","1","",""
"","feedback","","html-keyboard-response","127","168997","0.0-1.0-177.0-0.0","0","0","42867","","null","","","null","19","","","","","","","","","","","","","","","",""
"","ITI","","html-keyboard-response","128","169999","0.0-1.0-180.0","0","0","42867","","null","","","null","19","","","","","","","","","","","","","","","NaN",""
"","S1","","html-keyboard-response","129","170252","0.0-1.0-182.0","0","0","42867","","null","","","null","20","","","","","","","","","","","","","","","",""
"","ISI","","html-keyboard-response","130","170757","0.0-1.0-183.0","0","0","42867","","null","","","null","20","NaN","","","","","","","","","","","","","","",""
"","S2","","html-keyboard-response","131","171011","0.0-1.0-184.0","0","0","42867","","null","","","null","20","","NaN","","","","","","","","","","","","","",""
"","response","","html-keyboard-response","132","171298","0.0-1.0-185.0-0.0","0","0","42867","","286","","","75","20","","","1","20","training","adjacent","AB","1","2","Q.jpg","P.jpg","1","1","1","",""
"","feedback","","html-keyboard-response","133","172301","0.0-1.0-186.0-0.0","0","0","42867","","null","","","null","20","","","","","","","","","","","","","","","",""
"","ITI","","html-keyboard-response","134","173304","0.0-1.0-189.0","0","0","42867","","null","","","null","20","","","","","","","","","","","","","","","NaN",""
"","S1","","html-keyboard-response","135","173556","0.0-1.0-191.0","0","0","42867","","null","","","null","21","","","","","","","","","","","","","","","",""
"","ISI","","html-keyboard-response","136","174059","0.0-1.0-192.0","0","0","42867","","null","","","null","21","NaN","","","","","","","","","","","","","","",""
"","S2","","html-keyboard-response","137","174311","0.0-1.0-193.0","0","0","42867","","null","","","null","21","","NaN","","","","","","","","","","","","","",""
"","response","","html-keyboard-response","138","174613","0.0-1.0-194.0-0.0","0","0","42867","","301","","","68","21","","","1","21","training","adjacent","DE","4","5","N.jpg","M.jpg","0","1","0","",""
"","feedback","","html-keyboard-response","139","175615","0.0-1.0-195.0-0.0","0","0","42867","","null","","","null","21","","","","","","","","","","","","","","","",""
"","time_out","","html-keyboard-response","140","177618","0.0-1.0-197.0-0.0","0","0","42867","","null","","","null","21","","","","","","","","","","","","","","","",""
"","ITI","","html-keyboard-response","141","178620","0.0-1.0-198.0","0","0","42867","","null","","","null","21","","","","","","","","","","","","","","","NaN",""
"","S1","","html-keyboard-response","142","178873","0.0-1.0-200.0","0","0","42867","","null","","","null","22","","","","","","","","","","","","","","","",""
"","ISI","","html-keyboard-response","143","179376","0.0-1.0-201.0","0","0","42867","","null","","","null","22","NaN","","","","","","","","","","","","","","",""
"","S2","","html-keyboard-response","144","179624","0.0-1.0-202.0","0","0","42867","","247","","","75","22","","k","1","22","training","adjacent","FE","6","5","L.jpg","M.jpg","1","0","0","",""
"","feedback","","html-keyboard-response","145","180627","0.0-1.0-204.0-0.0","0","0","42867","","null","","","null","22","","","","","","","","","","","","","","","",""
"","time_out","","html-keyboard-response","146","182629","0.0-1.0-206.0-0.0","0","0","42867","","null","","","null","22","","","","","","","","","","","","","","","",""
"","ITI","","html-keyboard-response","147","183631","0.0-1.0-207.0","0","0","42867","","null","","","null","22","","","","","","","","","","","","","","","NaN",""
"","S1","","html-keyboard-response","148","183884","0.0-1.0-209.0","0","0","42867","","null","","","null","23","","","","","","","","","","","","","","","",""
"","ISI","","html-keyboard-response","149","184386","0.0-1.0-210.0","0","0","42867","","null","","","null","23","NaN","","","","","","","","","","","","","","",""
"","S2","","html-keyboard-response","150","184639","0.0-1.0-211.0","0","0","42867","","null","","","null","23","","NaN","","","","","","","","","","","","","",""
"","response","","html-keyboard-response","151","184759","0.0-1.0-212.0-0.0","0","0","42867","","119","","","75","23","","","1","23","training","adjacent","AB","1","2","Q.jpg","P.jpg","1","1","1","",""
"","feedback","","html-keyboard-response","152","185761","0.0-1.0-213.0-0.0","0","0","42867","","null","","","null","23","","","","","","","","","","","","","","","",""
"","ITI","","html-keyboard-response","153","186764","0.0-1.0-216.0","0","0","42867","","null","","","null","23","","","","","","","","","","","","","","","NaN",""
"","S1","","html-keyboard-response","154","187017","0.0-1.0-218.0","0","0","42867","","null","","","null","24","","","","","","","","","","","","","","","",""
"","ISI","","html-keyboard-response","155","187519","0.0-1.0-219.0","0","0","42867","","null","","","null","24","NaN","","","","","","","","","","","","","","",""
"","S2","","html-keyboard-response","156","187772","0.0-1.0-220.0","0","0","42867","","null","","","null","24","","NaN","","","","","","","","","","","","","",""
"","response","","html-keyboard-response","157","187830","0.0-1.0-221.0-0.0","0","0","42867","","57","","","75","24","","","1","24","training","adjacent","AB","1","2","Q.jpg","P.jpg","1","1","1","",""
"","feedback","","html-keyboard-response","158","188833","0.0-1.0-222.0-0.0","0","0","42867","","null","","","null","24","","","","","","","","","","","","","","","",""
"","ITI","","html-keyboard-response","159","189835","0.0-1.0-225.0","0","0","42867","","null","","","null","24","","","","","","","","","","","","","","","NaN",""
"","S1","","html-keyboard-response","160","190092","0.0-1.0-227.0","0","0","42867","","null","","","null","25","","","","","","","","","","","","","","","",""
"","ISI","","html-keyboard-response","161","190595","0.0-1.0-228.0","0","0","42867","","null","","","null","25","NaN","","","","","","","","","","","","","","",""
"","S2","","html-keyboard-response","162","190847","0.0-1.0-229.0","0","0","42867","","null","","","null","25","","NaN","","","","","","","","","","","","","",""
"","response","","html-keyboard-response","163","190933","0.0-1.0-230.0-0.0","0","0","42867","","84","","","75","25","","","1","25","training","adjacent","FE","6","5","L.jpg","M.jpg","1","0","0","",""
"","feedback","","html-keyboard-response","164","191936","0.0-1.0-231.0-0.0","0","0","42867","","null","","","null","25","","","","","","","","","","","","","","","",""
"","time_out","","html-keyboard-response","165","193939","0.0-1.0-233.0-0.0","0","0","42867","","null","","","null","25","","","","","","","","","","","","","","","",""
"","ITI","","html-keyboard-response","166","194941","0.0-1.0-234.0","0","0","42867","","null","","","null","25","","","","","","","","","","","","","","","NaN",""
"","S1","","html-keyboard-response","167","195194","0.0-1.0-236.0","0","0","42867","","null","","","null","26","","","","","","","","","","","","","","","",""
"","ISI","","html-keyboard-response","168","195696","0.0-1.0-237.0","0","0","42867","","null","","","null","26","NaN","","","","","","","","","","","","","","",""
"","S2","","html-keyboard-response","169","195949","0.0-1.0-238.0","0","0","42867","","null","","","null","26","","NaN","","","","","","","","","","","","","",""
"","response","","html-keyboard-response","170","195957","0.0-1.0-239.0-0.0","0","0","42867","","7","","","75","26","","","1","26","training","adjacent","ED","5","4","M.jpg","N.jpg","1","0","0","",""
"","feedback","","html-keyboard-response","171","196960","0.0-1.0-240.0-0.0","0","0","42867","","null","","","null","26","","","","","","","","","","","","","","","",""
"","time_out","","html-keyboard-response","172","198963","0.0-1.0-242.0-0.0","0","0","42867","","null","","","null","26","","","","","","","","","","","","","","","",""
"","ITI","","html-keyboard-response","173","199966","0.0-1.0-243.0","0","0","42867","","null","","","null","26","","","","","","","","","","","","","","","NaN",""
"","S1","","html-keyboard-response","174","200218","0.0-1.0-245.0","0","0","42867","","null","","","null","27","","","","","","","","","","","","","","","",""
"","ISI","","html-keyboard-response","175","200720","0.0-1.0-246.0","0","0","42867","","null","","","null","27","NaN","","","","","","","","","","","","","","",""
"","S2","","html-keyboard-response","176","200972","0.0-1.0-247.0","0","0","42867","","null","","","null","27","","NaN","","","","","","","","","","","","","",""
"","response","","html-keyboard-response","177","200994","0.0-1.0-248.0-0.0","0","0","42867","","20","","","75","27","","","1","27","training","adjacent","BA","2","1","P.jpg","Q.jpg","1","0","0","",""
"","feedback","","html-keyboard-response","178","201998","0.0-1.0-249.0-0.0","0","0","42867","","null","","","null","27","","","","","","","","","","","","","","","",""
"","time_out","","html-keyboard-response","179","204000","0.0-1.0-251.0-0.0","0","0","42867","","null","","","null","27","","","","","","","","","","","","","","","",""
"","ITI","","html-keyboard-response","180","205002","0.0-1.0-252.0","0","0","42867","","null","","","null","27","","","","","","","","","","","","","","","NaN",""
"","S1","","html-keyboard-response","181","205255","0.0-1.0-254.0","0","0","42867","","null","","","null","28","","","","","","","","","","","","","","","",""
"","ISI","","html-keyboard-response","182","205757","0.0-1.0-255.0","0","0","42867","","null","","","null","28","NaN","","","","","","","","","","","","","","",""
"","S2","","html-keyboard-response","183","206011","0.0-1.0-256.0","0","0","42867","","null","","","null","28","","NaN","","","","","","","","","","","","","",""
"","response","","html-keyboard-response","184","206107","0.0-1.0-257.0-0.0","0","0","42867","","95","","","75","28","","","1","28","training","adjacent","EF","5","6","M.jpg","L.jpg","1","1","1","",""
"","feedback","","html-keyboard-response","185","207110","0.0-1.0-258.0-0.0","0","0","42867","","null","","","null","28","","","","","","","","","","","","","","","",""
"","ITI","","html-keyboard-response","186","208113","0.0-1.0-261.0","0","0","42867","","null","","","null","28","","","","","","","","","","","","","","","NaN",""
"","S1","","html-keyboard-response","187","208366","0.0-1.0-263.0","0","0","42867","","null","","","null","29","","","","","","","","","","","","","","","",""
"","ISI","","html-keyboard-response","188","208868","0.0-1.0-264.0","0","0","42867","","null","","","null","29","NaN","","","","","","","","","","","","","","",""
"","S2","","html-keyboard-response","189","209097","0.0-1.0-265.0","0","0","42867","","228","","","75","29","","k","1","29","training","adjacent","ED","5","4","M.jpg","N.jpg","1","0","0","",""
"","feedback","","html-keyboard-response","190","210100","0.0-1.0-267.0-0.0","0","0","42867","","null","","","null","29","","","","","","","","","","","","","","","",""
"","time_out","","html-keyboard-response","191","212103","0.0-1.0-269.0-0.0","0","0","42867","","null","","","null","29","","","","","","","","","","","","","","","",""
"","ITI","","html-keyboard-response","192","213105","0.0-1.0-270.0","0","0","42867","","null","","","null","29","","","","","","","","","","","","","","","NaN",""
"","S1","","html-keyboard-response","193","213372","0.0-1.0-272.0","0","0","42867","","null","","","null","30","","","","","","","","","","","","","","","",""
"","ISI","","html-keyboard-response","194","213874","0.0-1.0-273.0","0","0","42867","","null","","","null","30","NaN","","","","","","","","","","","","","","",""
"","S2","","html-keyboard-response","195","214079","0.0-1.0-274.0","0","0","42867","","204","","","75","30","","k","1","30","training","adjacent","DC","4","3","N.jpg","R.jpg","1","0","0","",""
"","feedback","","html-keyboard-response","196","215082","0.0-1.0-276.0-0.0","0","0","42867","","null","","","null","30","","","","","","","","","","","","","","","",""
"","time_out","","html-keyboard-response","197","217084","0.0-1.0-278.0-0.0","0","0","42867","","null","","","null","30","","","","","","","","","","","","","","","",""
"","ITI","","html-keyboard-response","198","218086","0.0-1.0-279.0","0","0","42867","","null","","","null","30","","","","","","","","","","","","","","","NaN",""
"","S1","","html-keyboard-response","199","218355","0.0-1.0-281.0","0","0","42867","","null","","","null","31","","","","","","","","","","","","","","","",""
"","ISI","","html-keyboard-response","200","218857","0.0-1.0-282.0","0","0","42867","","null","","","null","31","NaN","","","","","","","","","","","","","","",""
"","S2","","html-keyboard-response","201","219109","0.0-1.0-283.0","0","0","42867","","null","","","null","31","","NaN","","","","","","","","","","","","","",""
"","response","","html-keyboard-response","202","219128","0.0-1.0-284.0-0.0","0","0","42867","","18","","","68","31","","","1","31","training","adjacent","GF","7","6","O.jpg","L.jpg","0","0","1","",""
"","feedback","","html-keyboard-response","203","220132","0.0-1.0-285.0-0.0","0","0","42867","","null","","","null","31","","","","","","","","","","","","","","","",""
"","ITI","","html-keyboard-response","204","221135","0.0-1.0-288.0","0","0","42867","","null","","","null","31","","","","","","","","","","","","","","","NaN",""
"","S1","","html-keyboard-response","205","221388","0.0-1.0-290.0","0","0","42867","","null","","","null","32","","","","","","","","","","","","","","","",""
"","ISI","","html-keyboard-response","206","221889","0.0-1.0-291.0","0","0","42867","","null","","","null","32","NaN","","","","","","","","","","","","","","",""
"","S2","","html-keyboard-response","207","222143","0.0-1.0-292.0","0","0","42867","","null","","","null","32","","NaN","","","","","","","","","","","","","",""
"","response","","html-keyboard-response","208","222148","0.0-1.0-293.0-0.0","0","0","42867","","4","","","68","32","","","1","32","training","adjacent","ED","5","4","M.jpg","N.jpg","0","0","1","",""
"","feedback","","html-keyboard-response","209","223151","0.0-1.0-294.0-0.0","0","0","42867","","null","","","null","32","","","","","","","","","","","","","","","",""
"","ITI","","html-keyboard-response","210","224153","0.0-1.0-297.0","0","0","42867","","null","","","null","32","","","","","","","","","","","","","","","NaN",""
"","S1","","html-keyboard-response","211","224405","0.0-1.0-299.0","0","0","42867","","null","","","null","33","","","","","","","","","","","","","","","",""
"","ISI","","html-keyboard-response","212","224907","0.0-1.0-300.0","0","0","42867","","null","","","null","33","NaN","","","","","","","","","","","","","","",""
"","S2","","html-keyboard-response","213","225160","0.0-1.0-301.0","0","0","42867","","null","","","null","33","","NaN","","","","","","","","","","","","","",""
"","response","","html-keyboard-response","214","225488","0.0-1.0-302.0-0.0","0","0","42867","","326","","","68","33","","","1","33","training","adjacent","CD","3","4","R.jpg","N.jpg","0","1","0","",""
"","feedback","","html-keyboard-response","215","226492","0.0-1.0-303.0-0.0","0","0","42867","","null","","","null","33","","","","","","","","","","","","","","","",""
"","time_out","","html-keyboard-response","216","228496","0.0-1.0-305.0-0.0","0","0","42867","","null","","","null","33","","","","","","","","","","","","","","","",""
"","ITI","","html-keyboard-response","217","229499","0.0-1.0-306.0","0","0","42867","","null","","","null","33","","","","","","","","","","","","","","","NaN",""
"","S1","","html-keyboard-response","218","229751","0.0-1.0-308.0","0","0","42867","","null","","","null","34","","","","","","","","","","","","","","","",""
"","ISI","","html-keyboard-response","219","230254","0.0-1.0-309.0","0","0","42867","","null","","","null","34","NaN","","","","","","","","","","","","","","",""
"","S2","","html-keyboard-response","220","230506","0.0-1.0-310.0","0","0","42867","","null","","","null","34","","NaN","","","","","","","","","","","","","",""
"","response","","html-keyboard-response","221","231973","0.0-1.0-311.0-0.0","0","0","42867","","1466","","","75","34","","","1","34","training","adjacent","CB","3","2","R.jpg","P.jpg","1","0","0","",""
"","feedback","","html-keyboard-response","222","232976","0.0-1.0-312.0-0.0","0","0","42867","","null","","","null","34","","","","","","","","","","","","","","","",""
"","time_out","","html-keyboard-response","223","234979","0.0-1.0-314.0-0.0","0","0","42867","","null","","","null","34","","","","","","","","","","","","","","","",""
"","ITI","","html-keyboard-response","224","235981","0.0-1.0-315.0","0","0","42867","","null","","","null","34","","","","","","","","","","","","","","","NaN",""
"","S1","","html-keyboard-response","225","236233","0.0-1.0-317.0","0","0","42867","","null","","","null","35","","","","","","","","","","","","","","","",""
"","ISI","","html-keyboard-response","226","236736","0.0-1.0-318.0","0","0","42867","","null","","","null","35","NaN","","","","","","","","","","","","","","",""
"","S2","","html-keyboard-response","227","236968","0.0-1.0-319.0","0","0","42867","","231","","","75","35","","k","1","35","training","adjacent","FG","6","7","L.jpg","O.jpg","1","1","1","",""
"","feedback","","html-keyboard-response","228","237971","0.0-1.0-321.0-0.0","0","0","42867","","null","","","null","35","","","","","","","","","","","","","","","",""
"","ITI","","html-keyboard-response","229","238974","0.0-1.0-324.0","0","0","42867","","null","","","null","35","","","","","","","","","","","","","","","NaN",""
"","S1","","html-keyboard-response","230","239227","0.0-1.0-326.0","0","0","42867","","null","","","null","36","","","","","","","","","","","","","","","",""
"","ISI","","html-keyboard-response","231","239730","0.0-1.0-327.0","0","0","42867","","null","","","null","36","NaN","","","","","","","","","","","","","","",""
"","S2","","html-keyboard-response","232","239981","0.0-1.0-328.0","0","0","42867","","null","","","null","36","","NaN","","","","","","","","","","","","","",""
"","response","","html-keyboard-response","233","240203","0.0-1.0-329.0-0.0","0","0","42867","","221","","","75","36","","","1","36","training","adjacent","GF","7","6","O.jpg","L.jpg","1","0","0","",""
"","feedback","","html-keyboard-response","234","241207","0.0-1.0-330.0-0.0","0","0","42867","","null","","","null","36","","","","","","","","","","","","","","","",""
"","time_out","","html-keyboard-response","235","243210","0.0-1.0-332.0-0.0","0","0","42867","","null","","","null","36","","","","","","","","","","","","","","","",""
"","ITI","","html-keyboard-response","236","244212","0.0-1.0-333.0","0","0","42867","","null","","","null","36","","","","","","","","","","","","","","","NaN",""
"","S1","","html-keyboard-response","237","244465","0.0-1.0-335.0","0","0","42867","","null","","","null","37","","","","","","","","","","","","","","","",""
"","ISI","","html-keyboard-response","238","244967","0.0-1.0-336.0","0","0","42867","","null","","","null","37","NaN","","","","","","","","","","","","","","",""
"","S2","","html-keyboard-response","239","245220","0.0-1.0-337.0","0","0","42867","","null","","","null","37","","NaN","","","","","","","","","","","","","",""
"","response","","html-keyboard-response","240","245240","0.0-1.0-338.0-0.0","0","0","42867","","18","","","68","37","","","1","37","training","adjacent","FG","6","7","L.jpg","O.jpg","0","1","0","",""
"","feedback","","html-keyboard-response","241","246242","0.0-1.0-339.0-0.0","0","0","42867","","null","","","null","37","","","","","","","","","","","","","","","",""
"","time_out","","html-keyboard-response","242","248245","0.0-1.0-341.0-0.0","0","0","42867","","null","","","null","37","","","","","","","","","","","","","","","",""
"","ITI","","html-keyboard-response","243","249248","0.0-1.0-342.0","0","0","42867","","null","","","null","37","","","","","","","","","","","","","","","NaN",""
"","S1","","html-keyboard-response","244","249500","0.0-1.0-344.0","0","0","42867","","null","","","null","38","","","","","","","","","","","","","","","",""
"","ISI","","html-keyboard-response","245","250001","0.0-1.0-345.0","0","0","42867","","null","","","null","38","NaN","","","","","","","","","","","","","","",""
"","S2","","html-keyboard-response","246","250263","0.0-1.0-346.0","0","0","42867","","null","","","null","38","","NaN","","","","","","","","","","","","","",""
"","response","","html-keyboard-response","247","250428","0.0-1.0-347.0-0.0","0","0","42867","","164","","","75","38","","","1","38","training","adjacent","DE","4","5","N.jpg","M.jpg","1","1","1","",""
"","feedback","","html-keyboard-response","248","251430","0.0-1.0-348.0-0.0","0","0","42867","","null","","","null","38","","","","","","","","","","","","","","","",""
"","ITI","","html-keyboard-response","249","252432","0.0-1.0-351.0","0","0","42867","","null","","","null","38","","","","","","","","","","","","","","","NaN",""
"","S1","","html-keyboard-response","250","252685","0.0-1.0-353.0","0","0","42867","","null","","","null","39","","","","","","","","","","","","","","","",""
"","ISI","","html-keyboard-response","251","253188","0.0-1.0-354.0","0","0","42867","","null","","","null","39","NaN","","","","","","","","","","","","","","",""
"","S2","","html-keyboard-response","252","253441","0.0-1.0-355.0","0","0","42867","","null","","","null","39","","NaN","","","","","","","","","","","","","",""
"","response","","html-keyboard-response","253","253470","0.0-1.0-356.0-0.0","0","0","42867","","28","","","75","39","","","1","39","training","adjacent","ED","5","4","M.jpg","N.jpg","1","0","0","",""
"","feedback","","html-keyboard-response","254","254472","0.0-1.0-357.0-0.0","0","0","42867","","null","","","null","39","","","","","","","","","","","","","","","",""
"","time_out","","html-keyboard-response","255","256474","0.0-1.0-359.0-0.0","0","0","42867","","null","","","null","39","","","","","","","","","","","","","","","",""
"","ITI","","html-keyboard-response","256","257477","0.0-1.0-360.0","0","0","42867","","null","","","null","39","","","","","","","","","","","","","","","NaN",""
"","S1","","html-keyboard-response","257","257730","0.0-1.0-362.0","0","0","42867","","null","","","null","40","","","","","","","","","","","","","","","",""
"","ISI","","html-keyboard-response","258","258233","0.0-1.0-363.0","0","0","42867","","null","","","null","40","NaN","","","","","","","","","","","","","","",""
"","S2","","html-keyboard-response","259","258471","0.0-1.0-364.0","0","0","42867","","236","","","68","40","","d","1","40","training","adjacent","DC","4","3","N.jpg","R.jpg","0","0","1","",""
"","feedback","","html-keyboard-response","260","259476","0.0-1.0-366.0-0.0","0","0","42867","","null","","","null","40","","","","","","","","","","","","","","","",""
"","ITI","","html-keyboard-response","261","260478","0.0-1.0-369.0","0","0","42867","","null","","","null","40","","","","","","","","","","","","","","","NaN",""
"","S1","","html-keyboard-response","262","260731","0.0-1.0-371.0","0","0","42867","","null","","","null","41","","","","","","","","","","","","","","","",""
"","ISI","","html-keyboard-response","263","261245","0.0-1.0-372.0","0","0","42867","","null","","","null","41","NaN","","","","","","","","","","","","","","",""
"","S2","","html-keyboard-response","264","261497","0.0-1.0-373.0","0","0","42867","","null","","","null","41","","NaN","","","","","","","","","","","","","",""
"","response","","html-keyboard-response","265","261529","0.0-1.0-374.0-0.0","0","0","42867","","30","","","75","41","","","1","41","training","adjacent","FG","6","7","L.jpg","O.jpg","1","1","1","",""
"","feedback","","html-keyboard-response","266","262532","0.0-1.0-375.0-0.0","0","0","42867","","null","","","null","41","","","","","","","","","","","","","","","",""
"","ITI","","html-keyboard-response","267","263534","0.0-1.0-378.0","0","0","42867","","null","","","null","41","","","","","","","","","","","","","","","NaN",""
"","S1","","html-keyboard-response","268","263787","0.0-1.0-380.0","0","0","42867","","null","","","null","42","","","","","","","","","","","","","","","",""
"","ISI","","html-keyboard-response","269","264290","0.0-1.0-381.0","0","0","42867","","null","","","null","42","NaN","","","","","","","","","","","","","","",""
"","S2","","html-keyboard-response","270","264542","0.0-1.0-382.0","0","0","42867","","null","","","null","42","","NaN","","","","","","","","","","","","","",""
"","response","","html-keyboard-response","271","264756","0.0-1.0-383.0-0.0","0","0","42867","","212","","","75","42","","","1","42","training","adjacent","BC","2","3","P.jpg","R.jpg","1","1","1","",""
"","feedback","","html-keyboard-response","272","265760","0.0-1.0-384.0-0.0","0","0","42867","","null","","","null","42","","","","","","","","","","","","","","","",""
"","ITI","","html-keyboard-response","273","266762","0.0-1.0-387.0","0","0","42867","","null","","","null","42","","","","","","","","","","","","","","","NaN",""
"","S1","","html-keyboard-response","274","267024","0.0-1.0-389.0","0","0","42867","","null","","","null","43","","","","","","","","","","","","","","","",""
"","ISI","","html-keyboard-response","275","267527","0.0-1.0-390.0","0","0","42867","","null","","","null","43","NaN","","","","","","","","","","","","","","",""
"","S2","","html-keyboard-response","276","267780","0.0-1.0-391.0","0","0","42867","","null","","","null","43","","NaN","","","","","","","","","","","","","",""
"","response","","html-keyboard-response","277","267794","0.0-1.0-392.0-0.0","0","0","42867","","12","","","75","43","","","1","43","training","adjacent","DE","4","5","N.jpg","M.jpg","1","1","1","",""
"","feedback","","html-keyboard-response","278","268796","0.0-1.0-393.0-0.0","0","0","42867","","null","","","null","43","","","","","","","","","","","","","","","",""
"","ITI","","html-keyboard-response","279","269799","0.0-1.0-396.0","0","0","42867","","null","","","null","43","","","","","","","","","","","","","","","NaN",""
"","S1","","html-keyboard-response","280","270051","0.0-1.0-398.0","0","0","42867","","null","","","null","44","","","","","","","","","","","","","","","",""
"","ISI","","html-keyboard-response","281","270554","0.0-1.0-399.0","0","0","42867","","null","","","null","44","NaN","","","","","","","","","","","","","","",""
"","S2","","html-keyboard-response","282","270806","0.0-1.0-400.0","0","0","42867","","null","","","null","44","","NaN","","","","","","","","","","","","","",""
"","response","","html-keyboard-response","283","270913","0.0-1.0-401.0-0.0","0","0","42867","","106","","","75","44","","","1","44","training","adjacent","CB","3","2","R.jpg","P.jpg","1","0","0","",""
"","feedback","","html-keyboard-response","284","271915","0.0-1.0-402.0-0.0","0","0","42867","","null","","","null","44","","","","","","","","","","","","","","","",""
"","time_out","","html-keyboard-response","285","273918","0.0-1.0-404.0-0.0","0","0","42867","","null","","","null","44","","","","","","","","","","","","","","","",""
"","ITI","","html-keyboard-response","286","274921","0.0-1.0-405.0","0","0","42867","","null","","","null","44","","","","","","","","","","","","","","","NaN",""
"","S1","","html-keyboard-response","287","275175","0.0-1.0-407.0","0","0","42867","","null","","","null","45","","","","","","","","","","","","","","","",""
"","ISI","","html-keyboard-response","288","275677","0.0-1.0-408.0","0","0","42867","","null","","","null","45","NaN","","","","","","","","","","","","","","",""
"","S2","","html-keyboard-response","289","275930","0.0-1.0-409.0","0","0","42867","","252","","","75","45","","k","1","45","training","adjacent","BA","2","1","P.jpg","Q.jpg","1","0","0","",""
"","feedback","","html-keyboard-response","290","276933","0.0-1.0-411.0-0.0","0","0","42867","","null","","","null","45","","","","","","","","","","","","","","","",""
"","time_out","","html-keyboard-response","291","278950","0.0-1.0-413.0-0.0","0","0","42867","","null","","","null","45","","","","","","","","","","","","","","","",""
"","ITI","","html-keyboard-response","292","279953","0.0-1.0-414.0","0","0","42867","","null","","","null","45","","","","","","","","","","","","","","","NaN",""
"","S1","","html-keyboard-response","293","280206","0.0-1.0-416.0","0","0","42867","","null","","","null","46","","","","","","","","","","","","","","","",""
"","ISI","","html-keyboard-response","294","280709","0.0-1.0-417.0","0","0","42867","","null","","","null","46","NaN","","","","","","","","","","","","","","",""
"","S2","","html-keyboard-response","295","280961","0.0-1.0-418.0","0","0","42867","","null","","","null","46","","NaN","","","","","","","","","","","","","",""
"","response","","html-keyboard-response","296","281606","0.0-1.0-419.0-0.0","0","0","42867","","644","","","68","46","","","1","46","training","adjacent","FG","6","7","L.jpg","O.jpg","0","1","0","",""
"","feedback","","html-keyboard-response","297","282608","0.0-1.0-420.0-0.0","0","0","42867","","null","","","null","46","","","","","","","","","","","","","","","",""
"","time_out","","html-keyboard-response","298","284612","0.0-1.0-422.0-0.0","0","0","42867","","null","","","null","46","","","","","","","","","","","","","","","",""
"","ITI","","html-keyboard-response","299","285614","0.0-1.0-423.0","0","0","42867","","null","","","null","46","","","","","","","","","","","","","","","NaN",""
"","S1","","html-keyboard-response","300","285867","0.0-1.0-425.0","0","0","42867","","null","","","null","47","","","","","","","","","","","","","","","",""
"","ISI","","html-keyboard-response","301","286369","0.0-1.0-426.0","0","0","42867","","null","","","null","47","NaN","","","","","","","","","","","","","","",""
"","S2","","html-keyboard-response","302","286611","0.0-1.0-427.0","0","0","42867","","241","","","68","47","","d","1","47","training","adjacent","BC","2","3","P.jpg","R.jpg","0","1","0","",""
"","feedback","","html-keyboard-response","303","287613","0.0-1.0-429.0-0.0","0","0","42867","","null","","","null","47","","","","","","","","","","","","","","","",""
"","time_out","","html-keyboard-response","304","289616","0.0-1.0-431.0-0.0","0","0","42867","","null","","","null","47","","","","","","","","","","","","","","","",""
"","ITI","","html-keyboard-response","305","290619","0.0-1.0-432.0","0","0","42867","","null","","","null","47","","","","","","","","","","","","","","","NaN",""
"","block_over","","html-keyboard-response","306","294754","0.0-1.0-433.0-0.0","0","0","42867","","4134","","","32","47","","","","","","","","","","","","","","","",""
"","S1","","html-keyboard-response","307","295007","0.0-1.0-434.0","0","0","42867","","null","","","null","48","","","","","","","","","","","","","","","",""
"","ISI","","html-keyboard-response","308","295509","0.0-1.0-435.0","0","0","42867","","null","","","null","48","NaN","","","","","","","","","","","","","","",""
"","S2","","html-keyboard-response","309","295762","0.0-1.0-436.0","0","0","42867","","null","","","null","48","","NaN","","","","","","","","","","","","","",""
"","response","","html-keyboard-response","310","295896","0.0-1.0-437.0-0.0","0","0","42867","","132","","","75","48","","","2","48","training","adjacent","GF","7","6","O.jpg","L.jpg","1","0","0","",""
"","feedback","","html-keyboard-response","311","296899","0.0-1.0-438.0-0.0","0","0","42867","","null","","","null","48","","","","","","","","","","","","","","","",""
"","time_out","","html-keyboard-response","312","298900","0.0-1.0-440.0-0.0","0","0","42867","","null","","","null","48","","","","","","","","","","","","","","","",""
"","ITI","","html-keyboard-response","313","299903","0.0-1.0-441.0","0","0","42867","","null","","","null","48","","","","","","","","","","","","","","","NaN",""
"","S1","","html-keyboard-response","314","300156","0.0-1.0-443.0","0","0","42867","","null","","","null","49","","","","","","","","","","","","","","","",""
"","ISI","","html-keyboard-response","315","300658","0.0-1.0-444.0","0","0","42867","","null","","","null","49","NaN","","","","","","","","","","","","","","",""
"","S2","","html-keyboard-response","316","300910","0.0-1.0-445.0","0","0","42867","","null","","","null","49","","NaN","","","","","","","","","","","","","",""
"","response","","html-keyboard-response","317","301103","0.0-1.0-446.0-0.0","0","0","42867","","190","","","68","49","","","2","49","training","adjacent","BA","2","1","P.jpg","Q.jpg","0","0","1","",""
"","feedback","","html-keyboard-response","318","302106","0.0-1.0-447.0-0.0","0","0","42867","","null","","","null","49","","","","","","","","","","","","","","","",""
"","ITI","","html-keyboard-response","319","303110","0.0-1.0-450.0","0","0","42867","","null","","","null","49","","","","","","","","","","","","","","","NaN",""
"","S1","","html-keyboard-response","320","303363","0.0-1.0-452.0","0","0","42867","","null","","","null","50","","","","","","","","","","","","","","","",""
"","ISI","","html-keyboard-response","321","303865","0.0-1.0-453.0","0","0","42867","","null","","","null","50","NaN","","","","","","","","","","","","","","",""
"","S2","","html-keyboard-response","322","304117","0.0-1.0-454.0","0","0","42867","","null","","","null","50","","NaN","","","","","","","","","","","","","",""
"","response","","html-keyboard-response","323","304383","0.0-1.0-455.0-0.0","0","0","42867","","265","","","68","50","","","2","50","training","adjacent","BC","2","3","P.jpg","R.jpg","0","1","0","",""
"","feedback","","html-keyboard-response","324","305386","0.0-1.0-456.0-0.0","0","0","42867","","null","","","null","50","","","","","","","","","","","","","","","",""
"","time_out","","html-keyboard-response","325","307388","0.0-1.0-458.0-0.0","0","0","42867","","null","","","null","50","","","","","","","","","","","","","","","",""
"","ITI","","html-keyboard-response","326","308391","0.0-1.0-459.0","0","0","42867","","null","","","null","50","","","","","","","","","","","","","","","NaN",""
"","S1","","html-keyboard-response","327","308643","0.0-1.0-461.0","0","0","42867","","null","","","null","51","","","","","","","","","","","","","","","",""
"","ISI","","html-keyboard-response","328","309145","0.0-1.0-462.0","0","0","42867","","null","","","null","51","NaN","","","","","","","","","","","","","","",""
"","S2","","html-keyboard-response","329","309373","0.0-1.0-463.0","0","0","42867","","227","","","75","51","","k","2","51","training","adjacent","CD","3","4","R.jpg","N.jpg","1","1","1","",""
"","feedback","","html-keyboard-response","330","310376","0.0-1.0-465.0-0.0","0","0","42867","","null","","","null","51","","","","","","","","","","","","","","","",""
"","ITI","","html-keyboard-response","331","311379","0.0-1.0-468.0","0","0","42867","","null","","","null","51","","","","","","","","","","","","","","","NaN",""
"","S1","","html-keyboard-response","332","311632","0.0-1.0-470.0","0","0","42867","","null","","","null","52","","","","","","","","","","","","","","","",""
"","ISI","","html-keyboard-response","333","312135","0.0-1.0-471.0","0","0","42867","","null","","","null","52","NaN","","","","","","","","","","","","","","",""
"","S2","","html-keyboard-response","334","312387","0.0-1.0-472.0","0","0","42867","","null","","","null","52","","NaN","","","","","","","","","","","","","",""
"","response","","html-keyboard-response","335","312771","0.0-1.0-473.0-0.0","0","0","42867","","382","","","68","52","","","2","52","training","adjacent","EF","5","6","M.jpg","L.jpg","0","1","0","",""
"","feedback","","html-keyboard-response","336","313773","0.0-1.0-474.0-0.0","0","0","42867","","null","","","null","52","","","","","","","","","","","","","","","",""
"","time_out","","html-keyboard-response","337","315776","0.0-1.0-476.0-0.0","0","0","42867","","null","","","null","52","","","","","","","","","","","","","","","",""
"","ITI","","html-keyboard-response","338","316778","0.0-1.0-477.0","0","0","42867","","null","","","null","52","","","","","","","","","","","","","","","NaN",""
"","S1","","html-keyboard-response","339","317031","0.0-1.0-479.0","0","0","42867","","null","","","null","53","","","","","","","","","","","","","","","",""
"","ISI","","html-keyboard-response","340","317533","0.0-1.0-480.0","0","0","42867","","null","","","null","53","NaN","","","","","","","","","","","","","","",""
"","S2","","html-keyboard-response","341","317786","0.0-1.0-481.0","0","0","42867","","null","","","null","53","","NaN","","","","","","","","","","","","","",""
"","response","","html-keyboard-response","342","318097","0.0-1.0-482.0-0.0","0","0","42867","","309","","","68","53","","","2","53","training","adjacent","BC","2","3","P.jpg","R.jpg","0","1","0","",""
"","feedback","","html-keyboard-response","343","319100","0.0-1.0-483.0-0.0","0","0","42867","","null","","","null","53","","","","","","","","","","","","","","","",""
"","time_out","","html-keyboard-response","344","321102","0.0-1.0-485.0-0.0","0","0","42867","","null","","","null","53","","","","","","","","","","","","","","","",""
"","ITI","","html-keyboard-response","345","322104","0.0-1.0-486.0","0","0","42867","","null","","","null","53","","","","","","","","","","","","","","","NaN",""
"","S1","","html-keyboard-response","346","322357","0.0-1.0-488.0","0","0","42867","","null","","","null","54","","","","","","","","","","","","","","","",""
"","ISI","","html-keyboard-response","347","322860","0.0-1.0-489.0","0","0","42867","","null","","","null","54","NaN","","","","","","","","","","","","","","",""
"","S2","","html-keyboard-response","348","323113","0.0-1.0-490.0","0","0","42867","","null","","","null","54","","NaN","","","","","","","","","","","","","",""
"","response","","html-keyboard-response","349","323389","0.0-1.0-491.0-0.0","0","0","42867","","274","","","75","54","","","2","54","training","adjacent","DE","4","5","N.jpg","M.jpg","1","1","1","",""
"","feedback","","html-keyboard-response","350","324391","0.0-1.0-492.0-0.0","0","0","42867","","null","","","null","54","","","","","","","","","","","","","","","",""
"","ITI","","html-keyboard-response","351","325402","0.0-1.0-495.0","0","0","42867","","null","","","null","54","","","","","","","","","","","","","","","NaN",""
"","S1","","html-keyboard-response","352","325655","0.0-1.0-497.0","0","0","42867","","null","","","null","55","","","","","","","","","","","","","","","",""
"","ISI","","html-keyboard-response","353","326157","0.0-1.0-498.0","0","0","42867","","null","","","null","55","NaN","","","","","","","","","","","","","","",""
"","S2","","html-keyboard-response","354","326409","0.0-1.0-499.0","0","0","42867","","null","","","null","55","","NaN","","","","","","","","","","","","","",""
"","response","","html-keyboard-response","355","327110","0.0-1.0-500.0-0.0","0","0","42867","","698","","","68","55","","","2","55","training","adjacent","DC","4","3","N.jpg","R.jpg","0","0","1","",""
"","feedback","","html-keyboard-response","356","328113","0.0-1.0-501.0-0.0","0","0","42867","","null","","","null","55","","","","","","","","","","","","","","","",""
"","ITI","","html-keyboard-response","357","329116","0.0-1.0-504.0","0","0","42867","","null","","","null","55","","","","","","","","","","","","","","","NaN",""
"","S1","","html-keyboard-response","358","329368","0.0-1.0-506.0","0","0","42867","","null","","","null","56","","","","","","","","","","","","","","","",""
"","ISI","","html-keyboard-response","359","329870","0.0-1.0-507.0","0","0","42867","","null","","","null","56","NaN","","","","","","","","","","","","","","",""
"","S2","","html-keyboard-response","360","330122","0.0-1.0-508.0","0","0","42867","","null","","","null","56","","NaN","","","","","","","","","","","","","",""
"","response","","html-keyboard-response","361","330461","0.0-1.0-509.0-0.0","0","0","42867","","338","","","68","56","","","2","56","training","adjacent","BA","2","1","P.jpg","Q.jpg","0","0","1","",""
"","feedback","","html-keyboard-response","362","331466","0.0-1.0-510.0-0.0","0","0","42867","","null","","","null","56","","","","","","","","","","","","","","","",""
"","ITI","","html-keyboard-response","363","332469","0.0-1.0-513.0","0","0","42867","","null","","","null","56","","","","","","","","","","","","","","","NaN",""
"","S1","","html-keyboard-response","364","332721","0.0-1.0-515.0","0","0","42867","","null","","","null","57","","","","","","","","","","","","","","","",""
"","ISI","","html-keyboard-response","365","333223","0.0-1.0-516.0","0","0","42867","","null","","","null","57","NaN","","","","","","","","","","","","","","",""
"","S2","","html-keyboard-response","366","333475","0.0-1.0-517.0","0","0","42867","","null","","","null","57","","NaN","","","","","","","","","","","","","",""
"","response","","html-keyboard-response","367","333827","0.0-1.0-518.0-0.0","0","0","42867","","350","","","68","57","","","2","57","training","adjacent","ED","5","4","M.jpg","N.jpg","0","0","1","",""
"","feedback","","html-keyboard-response","368","334829","0.0-1.0-519.0-0.0","0","0","42867","","null","","","null","57","","","","","","","","","","","","","","","",""
"","ITI","","html-keyboard-response","369","335831","0.0-1.0-522.0","0","0","42867","","null","","","null","57","","","","","","","","","","","","","","","NaN",""
"","S1","","html-keyboard-response","370","336094","0.0-1.0-524.0","0","0","42867","","null","","","null","58","","","","","","","","","","","","","","","",""
"","ISI","","html-keyboard-response","371","336595","0.0-1.0-525.0","0","0","42867","","null","","","null","58","NaN","","","","","","","","","","","","","","",""
"","S2","","html-keyboard-response","372","336849","0.0-1.0-526.0","0","0","42867","","null","","","null","58","","NaN","","","","","","","","","","","","","",""
"","response","","html-keyboard-response","373","336950","0.0-1.0-527.0-0.0","0","0","42867","","100","","","68","58","","","2","58","training","adjacent","EF","5","6","M.jpg","L.jpg","0","1","0","",""
"","feedback","","html-keyboard-response","374","337952","0.0-1.0-528.0-0.0","0","0","42867","","null","","","null","58","","","","","","","","","","","","","","","",""
"","time_out","","html-keyboard-response","375","339971","0.0-1.0-530.0-0.0","0","0","42867","","null","","","null","58","","","","","","","","","","","","","","","",""
"","ITI","","html-keyboard-response","376","340973","0.0-1.0-531.0","0","0","42867","","null","","","null","58","","","","","","","","","","","","","","","NaN",""
"","S1","","html-keyboard-response","377","341225","0.0-1.0-533.0","0","0","42867","","null","","","null","59","","","","","","","","","","","","","","","",""
"","ISI","","html-keyboard-response","378","341728","0.0-1.0-534.0","0","0","42867","","null","","","null","59","NaN","","","","","","","","","","","","","","",""
"","S2","","html-keyboard-response","379","341981","0.0-1.0-535.0","0","0","42867","","null","","","null","59","","NaN","","","","","","","","","","","","","",""
"","response","","html-keyboard-response","380","342289","0.0-1.0-536.0-0.0","0","0","42867","","307","","","75","59","","","2","59","training","adjacent","AB","1","2","Q.jpg","P.jpg","1","1","1","",""
"","feedback","","html-keyboard-response","381","343292","0.0-1.0-537.0-0.0","0","0","42867","","null","","","null","59","","","","","","","","","","","","","","","",""
"","ITI","","html-keyboard-response","382","344295","0.0-1.0-540.0","0","0","42867","","null","","","null","59","","","","","","","","","","","","","","","NaN",""
"","S1","","html-keyboard-response","383","344547","0.0-1.0-542.0","0","0","42867","","null","","","null","60","","","","","","","","","","","","","","","",""
"","ISI","","html-keyboard-response","384","345050","0.0-1.0-543.0","0","0","42867","","null","","","null","60","NaN","","","","","","","","","","","","","","",""
"","S2","","html-keyboard-response","385","345303","0.0-1.0-544.0","0","0","42867","","null","","","null","60","","NaN","","","","","","","","","","","","","",""
"","response","","html-keyboard-response","386","345620","0.0-1.0-545.0-0.0","0","0","42867","","316","","","75","60","","","2","60","training","adjacent","BC","2","3","P.jpg","R.jpg","1","1","1","",""
"","feedback","","html-keyboard-response","387","346623","0.0-1.0-546.0-0.0","0","0","42867","","null","","","null","60","","","","","","","","","","","","","","","",""
"","ITI","","html-keyboard-response","388","347625","0.0-1.0-549.0","0","0","42867","","null","","","null","60","","","","","","","","","","","","","","","NaN",""
"","S1","","html-keyboard-response","389","347879","0.0-1.0-551.0","0","0","42867","","null","","","null","61","","","","","","","","","","","","","","","",""
"","ISI","","html-keyboard-response","390","348381","0.0-1.0-552.0","0","0","42867","","null","","","null","61","NaN","","","","","","","","","","","","","","",""
"","S2","","html-keyboard-response","391","348634","0.0-1.0-553.0","0","0","42867","","null","","","null","61","","NaN","","","","","","","","","","","","","",""
"","response","","html-keyboard-response","392","348891","0.0-1.0-554.0-0.0","0","0","42867","","255","","","68","61","","","2","61","training","adjacent","CB","3","2","R.jpg","P.jpg","0","0","1","",""
"","feedback","","html-keyboard-response","393","349893","0.0-1.0-555.0-0.0","0","0","42867","","null","","","null","61","","","","","","","","","","","","","","","",""
"","ITI","","html-keyboard-response","394","350896","0.0-1.0-558.0","0","0","42867","","null","","","null","61","","","","","","","","","","","","","","","NaN",""
"","S1","","html-keyboard-response","395","351149","0.0-1.0-560.0","0","0","42867","","null","","","null","62","","","","","","","","","","","","","","","",""
"","ISI","","html-keyboard-response","396","351651","0.0-1.0-561.0","0","0","42867","","null","","","null","62","NaN","","","","","","","","","","","","","","",""
"","S2","","html-keyboard-response","397","351904","0.0-1.0-562.0","0","0","42867","","null","","","null","62","","NaN","","","","","","","","","","","","","",""
"","response","","html-keyboard-response","398","352175","0.0-1.0-563.0-0.0","0","0","42867","","270","","","68","62","","","2","62","training","adjacent","ED","5","4","M.jpg","N.jpg","0","0","1","",""
"","feedback","","html-keyboard-response","399","353178","0.0-1.0-564.0-0.0","0","0","42867","","null","","","null","62","","","","","","","","","","","","","","","",""
"","ITI","","html-keyboard-response","400","354181","0.0-1.0-567.0","0","0","42867","","null","","","null","62","","","","","","","","","","","","","","","NaN",""
"","S1","","html-keyboard-response","401","354434","0.0-1.0-569.0","0","0","42867","","null","","","null","63","","","","","","","","","","","","","","","",""
"","ISI","","html-keyboard-response","402","354946","0.0-1.0-570.0","0","0","42867","","null","","","null","63","NaN","","","","","","","","","","","","","","",""
"","S2","","html-keyboard-response","403","355199","0.0-1.0-571.0","0","0","42867","","null","","","null","63","","NaN","","","","","","","","","","","","","",""
"","response","","html-keyboard-response","404","355742","0.0-1.0-572.0-0.0","0","0","42867","","542","","","68","63","","","2","63","training","adjacent","GF","7","6","O.jpg","L.jpg","0","0","1","",""
"","feedback","","html-keyboard-response","405","356745","0.0-1.0-573.0-0.0","0","0","42867","","null","","","null","63","","","","","","","","","","","","","","","",""
"","ITI","","html-keyboard-response","406","357748","0.0-1.0-576.0","0","0","42867","","null","","","null","63","","","","","","","","","","","","","","","NaN",""
"","S1","","html-keyboard-response","407","358000","0.0-1.0-578.0","0","0","42867","","null","","","null","64","","","","","","","","","","","","","","","",""
"","ISI","","html-keyboard-response","408","358503","0.0-1.0-579.0","0","0","42867","","null","","","null","64","NaN","","","","","","","","","","","","","","",""
"","S2","","html-keyboard-response","409","358770","0.0-1.0-580.0","0","0","42867","","null","","","null","64","","NaN","","","","","","","","","","","","","",""
"","response","","html-keyboard-response","410","358867","0.0-1.0-581.0-0.0","0","0","42867","","96","","","68","64","","","2","64","training","adjacent","EF","5","6","M.jpg","L.jpg","0","1","0","",""
"","feedback","","html-keyboard-response","411","359868","0.0-1.0-582.0-0.0","0","0","42867","","null","","","null","64","","","","","","","","","","","","","","","",""
"","time_out","","html-keyboard-response","412","361871","0.0-1.0-584.0-0.0","0","0","42867","","null","","","null","64","","","","","","","","","","","","","","","",""
"","ITI","","html-keyboard-response","413","362874","0.0-1.0-585.0","0","0","42867","","null","","","null","64","","","","","","","","","","","","","","","NaN",""
"","S1","","html-keyboard-response","414","363127","0.0-1.0-587.0","0","0","42867","","null","","","null","65","","","","","","","","","","","","","","","",""
"","ISI","","html-keyboard-response","415","363630","0.0-1.0-588.0","0","0","42867","","null","","","null","65","NaN","","","","","","","","","","","","","","",""
"","S2","","html-keyboard-response","416","363891","0.0-1.0-589.0","0","0","42867","","null","","","null","65","","NaN","","","","","","","","","","","","","",""
"","response","","html-keyboard-response","417","363992","0.0-1.0-590.0-0.0","0","0","42867","","99","","","68","65","","","2","65","training","adjacent","GF","7","6","O.jpg","L.jpg","0","0","1","",""
"","feedback","","html-keyboard-response","418","364995","0.0-1.0-591.0-0.0","0","0","42867","","null","","","null","65","","","","","","","","","","","","","","","",""
"","ITI","","html-keyboard-response","419","365997","0.0-1.0-594.0","0","0","42867","","null","","","null","65","","","","","","","","","","","","","","","NaN",""
"","S1","","html-keyboard-response","420","366250","0.0-1.0-596.0","0","0","42867","","null","","","null","66","","","","","","","","","","","","","","","",""
"","ISI","","html-keyboard-response","421","366753","0.0-1.0-597.0","0","0","42867","","null","","","null","66","NaN","","","","","","","","","","","","","","",""
"","S2","","html-keyboard-response","422","367005","0.0-1.0-598.0","0","0","42867","","null","","","null","66","","NaN","","","","","","","","","","","","","",""
"","response","","html-keyboard-response","423","367318","0.0-1.0-599.0-0.0","0","0","42867","","311","","","75","66","","","2","66","training","adjacent","EF","5","6","M.jpg","L.jpg","1","1","1","",""
"","feedback","","html-keyboard-response","424","368321","0.0-1.0-600.0-0.0","0","0","42867","","null","","","null","66","","","","","","","","","","","","","","","",""
"","ITI","","html-keyboard-response","425","369325","0.0-1.0-603.0","0","0","42867","","null","","","null","66","","","","","","","","","","","","","","","NaN",""
"","S1","","html-keyboard-response","426","369577","0.0-1.0-605.0","0","0","42867","","null","","","null","67","","","","","","","","","","","","","","","",""
"","ISI","","html-keyboard-response","427","370079","0.0-1.0-606.0","0","0","42867","","null","","","null","67","NaN","","","","","","","","","","","","","","",""
"","S2","","html-keyboard-response","428","370332","0.0-1.0-607.0","0","0","42867","","null","","","null","67","","NaN","","","","","","","","","","","","","",""
"","response","","html-keyboard-response","429","370690","0.0-1.0-608.0-0.0","0","0","42867","","357","","","68","67","","","2","67","training","adjacent","DC","4","3","N.jpg","R.jpg","0","0","1","",""
"","feedback","","html-keyboard-response","430","371692","0.0-1.0-609.0-0.0","0","0","42867","","null","","","null","67","","","","","","","","","","","","","","","",""
"","ITI","","html-keyboard-response","431","372695","0.0-1.0-612.0","0","0","42867","","null","","","null","67","","","","","","","","","","","","","","","NaN",""
"","S1","","html-keyboard-response","432","372947","0.0-1.0-614.0","0","0","42867","","null","","","null","68","","","","","","","","","","","","","","","",""
"","ISI","","html-keyboard-response","433","373449","0.0-1.0-615.0","0","0","42867","","null","","","null","68","NaN","","","","","","","","","","","","","","",""
"","S2","","html-keyboard-response","434","373702","0.0-1.0-616.0","0","0","42867","","null","","","null","68","","NaN","","","","","","","","","","","","","",""
"","response","","html-keyboard-response","435","374121","0.0-1.0-617.0-0.0","0","0","42867","","416","","","75","68","","","2","68","training","adjacent","FG","6","7","L.jpg","O.jpg","1","1","1","",""
"","feedback","","html-keyboard-response","436","375135","0.0-1.0-618.0-0.0","0","0","42867","","null","","","null","68","","","","","","","","","","","","","","","",""
"","ITI","","html-keyboard-response","437","376137","0.0-1.0-621.0","0","0","42867","","null","","","null","68","","","","","","","","","","","","","","","NaN",""
"","S1","","html-keyboard-response","438","376390","0.0-1.0-623.0","0","0","42867","","null","","","null","69","","","","","","","","","","","","","","","",""
"","ISI","","html-keyboard-response","439","376894","0.0-1.0-624.0","0","0","42867","","null","","","null","69","NaN","","","","","","","","","","","","","","",""
"","S2","","html-keyboard-response","440","377146","0.0-1.0-625.0","0","0","42867","","null","","","null","69","","NaN","","","","","","","","","","","","","",""
"","response","","html-keyboard-response","441","377430","0.0-1.0-626.0-0.0","0","0","42867","","283","","","68","69","","","2","69","training","adjacent","FG","6","7","L.jpg","O.jpg","0","1","0","",""
"","feedback","","html-keyboard-response","442","378433","0.0-1.0-627.0-0.0","0","0","42867","","null","","","null","69","","","","","","","","","","","","","","","",""
"","time_out","","html-keyboard-response","443","380436","0.0-1.0-629.0-0.0","0","0","42867","","null","","","null","69","","","","","","","","","","","","","","","",""
"","ITI","","html-keyboard-response","444","381439","0.0-1.0-630.0","0","0","42867","","null","","","null","69","","","","","","","","","","","","","","","NaN",""
"","S1","","html-keyboard-response","445","381691","0.0-1.0-632.0","0","0","42867","","null","","","null","70","","","","","","","","","","","","","","","",""
"","ISI","","html-keyboard-response","446","382194","0.0-1.0-633.0","0","0","42867","","null","","","null","70","NaN","","","","","","","","","","","","","","",""
"","S2","","html-keyboard-response","447","382446","0.0-1.0-634.0","0","0","42867","","null","","","null","70","","NaN","","","","","","","","","","","","","",""
"","response","","html-keyboard-response","448","382667","0.0-1.0-635.0-0.0","0","0","42867","","220","","","75","70","","","2","70","training","adjacent","ED","5","4","M.jpg","N.jpg","1","0","0","",""
"","feedback","","html-keyboard-response","449","383670","0.0-1.0-636.0-0.0","0","0","42867","","null","","","null","70","","","","","","","","","","","","","","","",""
"","time_out","","html-keyboard-response","450","385673","0.0-1.0-638.0-0.0","0","0","42867","","null","","","null","70","","","","","","","","","","","","","","","",""
"","ITI","","html-keyboard-response","451","386675","0.0-1.0-639.0","0","0","42867","","null","","","null","70","","","","","","","","","","","","","","","NaN",""
"","S1","","html-keyboard-response","452","386928","0.0-1.0-641.0","0","0","42867","","null","","","null","71","","","","","","","","","","","","","","","",""
"","ISI","","html-keyboard-response","453","387431","0.0-1.0-642.0","0","0","42867","","null","","","null","71","NaN","","","","","","","","","","","","","","",""
"","S2","","html-keyboard-response","454","387683","0.0-1.0-643.0","0","0","42867","","null","","","null","71","","NaN","","","","","","","","","","","","","",""
"","response","","html-keyboard-response","455","388097","0.0-1.0-644.0-0.0","0","0","42867","","412","","","75","71","","","2","71","training","adjacent","BA","2","1","P.jpg","Q.jpg","1","0","0","",""
"","feedback","","html-keyboard-response","456","389100","0.0-1.0-645.0-0.0","0","0","42867","","null","","","null","71","","","","","","","","","","","","","","","",""
"","time_out","","html-keyboard-response","457","391103","0.0-1.0-647.0-0.0","0","0","42867","","null","","","null","71","","","","","","","","","","","","","","","",""
"","ITI","","html-keyboard-response","458","392106","0.0-1.0-648.0","0","0","42867","","null","","","null","71","","","","","","","","","","","","","","","NaN",""
"","S1","","html-keyboard-response","459","392359","0.0-1.0-650.0","0","0","42867","","null","","","null","72","","","","","","","","","","","","","","","",""
"","ISI","","html-keyboard-response","460","392862","0.0-1.0-651.0","0","0","42867","","null","","","null","72","NaN","","","","","","","","","","","","","","",""
"","S2","","html-keyboard-response","461","393114","0.0-1.0-652.0","0","0","42867","","null","","","null","72","","NaN","","","","","","","","","","","","","",""
"","response","","html-keyboard-response","462","393450","0.0-1.0-653.0-0.0","0","0","42867","","334","","","68","72","","","2","72","training","adjacent","CD","3","4","R.jpg","N.jpg","0","1","0","",""
"","feedback","","html-keyboard-response","463","394452","0.0-1.0-654.0-0.0","0","0","42867","","null","","","null","72","","","","","","","","","","","","","","","",""
"","time_out","","html-keyboard-response","464","396455","0.0-1.0-656.0-0.0","0","0","42867","","null","","","null","72","","","","","","","","","","","","","","","",""
"","ITI","","html-keyboard-response","465","397457","0.0-1.0-657.0","0","0","42867","","null","","","null","72","","","","","","","","","","","","","","","NaN",""
"","S1","","html-keyboard-response","466","397711","0.0-1.0-659.0","0","0","42867","","null","","","null","73","","","","","","","","","","","","","","","",""
"","ISI","","html-keyboard-response","467","398213","0.0-1.0-660.0","0","0","42867","","null","","","null","73","NaN","","","","","","","","","","","","","","",""
"","S2","","html-keyboard-response","468","398468","0.0-1.0-661.0","0","0","42867","","null","","","null","73","","NaN","","","","","","","","","","","","","",""
"","response","","html-keyboard-response","469","398654","0.0-1.0-662.0-0.0","0","0","42867","","184","","","68","73","","","2","73","training","adjacent","AB","1","2","Q.jpg","P.jpg","0","1","0","",""
"","feedback","","html-keyboard-response","470","399657","0.0-1.0-663.0-0.0","0","0","42867","","null","","","null","73","","","","","","","","","","","","","","","",""
"","time_out","","html-keyboard-response","471","401672","0.0-1.0-665.0-0.0","0","0","42867","","null","","","null","73","","","","","","","","","","","","","","","",""
"","ITI","","html-keyboard-response","472","402674","0.0-1.0-666.0","0","0","42867","","null","","","null","73","","","","","","","","","","","","","","","NaN",""
"","S1","","html-keyboard-response","473","402928","0.0-1.0-668.0","0","0","42867","","null","","","null","74","","","","","","","","","","","","","","","",""
"","ISI","","html-keyboard-response","474","403442","0.0-1.0-669.0","0","0","42867","","null","","","null","74","NaN","","","","","","","","","","","","","","",""
"","S2","","html-keyboard-response","475","403695","0.0-1.0-670.0","0","0","42867","","null","","","null","74","","NaN","","","","","","","","","","","","","",""
"","response","","html-keyboard-response","476","403959","0.0-1.0-671.0-0.0","0","0","42867","","262","","","68","74","","","2","74","training","adjacent","AB","1","2","Q.jpg","P.jpg","0","1","0","",""
"","feedback","","html-keyboard-response","477","404962","0.0-1.0-672.0-0.0","0","0","42867","","null","","","null","74","","","","","","","","","","","","","","","",""
"","time_out","","html-keyboard-response","478","406964","0.0-1.0-674.0-0.0","0","0","42867","","null","","","null","74","","","","","","","","","","","","","","","",""
"","ITI","","html-keyboard-response","479","407966","0.0-1.0-675.0","0","0","42867","","null","","","null","74","","","","","","","","","","","","","","","NaN",""
"","S1","","html-keyboard-response","480","408219","0.0-1.0-677.0","0","0","42867","","null","","","null","75","","","","","","","","","","","","","","","",""
"","ISI","","html-keyboard-response","481","408721","0.0-1.0-678.0","0","0","42867","","null","","","null","75","NaN","","","","","","","","","","","","","","",""
"","S2","","html-keyboard-response","482","408983","0.0-1.0-679.0","0","0","42867","","null","","","null","75","","NaN","","","","","","","","","","","","","",""
"","response","","html-keyboard-response","483","409287","0.0-1.0-680.0-0.0","0","0","42867","","303","","","75","75","","","2","75","training","adjacent","BA","2","1","P.jpg","Q.jpg","1","0","0","",""
"","feedback","","html-keyboard-response","484","410289","0.0-1.0-681.0-0.0","0","0","42867","","null","","","null","75","","","","","","","","","","","","","","","",""
"","time_out","","html-keyboard-response","485","412293","0.0-1.0-683.0-0.0","0","0","42867","","null","","","null","75","","","","","","","","","","","","","","","",""
"","ITI","","html-keyboard-response","486","413294","0.0-1.0-684.0","0","0","42867","","null","","","null","75","","","","","","","","","","","","","","","NaN",""
"","S1","","html-keyboard-response","487","413547","0.0-1.0-686.0","0","0","42867","","null","","","null","76","","","","","","","","","","","","","","","",""
"","ISI","","html-keyboard-response","488","414049","0.0-1.0-687.0","0","0","42867","","null","","","null","76","NaN","","","","","","","","","","","","","","",""
"","S2","","html-keyboard-response","489","414302","0.0-1.0-688.0","0","0","42867","","null","","","null","76","","NaN","","","","","","","","","","","","","",""
"","response","","html-keyboard-response","490","414647","0.0-1.0-689.0-0.0","0","0","42867","","344","","","75","76","","","2","76","training","adjacent","FE","6","5","L.jpg","M.jpg","1","0","0","",""
"","feedback","","html-keyboard-response","491","415649","0.0-1.0-690.0-0.0","0","0","42867","","null","","","null","76","","","","","","","","","","","","","","","",""
"","time_out","","html-keyboard-response","492","417651","0.0-1.0-692.0-0.0","0","0","42867","","null","","","null","76","","","","","","","","","","","","","","","",""
"","ITI","","html-keyboard-response","493","418653","0.0-1.0-693.0","0","0","42867","","null","","","null","76","","","","","","","","","","","","","","","NaN",""
"","S1","","html-keyboard-response","494","418906","0.0-1.0-695.0","0","0","42867","","null","","","null","77","","","","","","","","","","","","","","","",""
"","ISI","","html-keyboard-response","495","419408","0.0-1.0-696.0","0","0","42867","","null","","","null","77","NaN","","","","","","","","","","","","","","",""
"","S2","","html-keyboard-response","496","419662","0.0-1.0-697.0","0","0","42867","","null","","","null","77","","NaN","","","","","","","","","","","","","",""
"","response","","html-keyboard-response","497","420251","0.0-1.0-698.0-0.0","0","0","42867","","588","","","75","77","","","2","77","training","adjacent","CD","3","4","R.jpg","N.jpg","1","1","1","",""
"","feedback","","html-keyboard-response","498","421254","0.0-1.0-699.0-0.0","0","0","42867","","null","","","null","77","","","","","","","","","","","","","","","",""
"","ITI","","html-keyboard-response","499","422257","0.0-1.0-702.0","0","0","42867","","null","","","null","77","","","","","","","","","","","","","","","NaN",""
"","S1","","html-keyboard-response","500","422509","0.0-1.0-704.0","0","0","42867","","null","","","null","78","","","","","","","","","","","","","","","",""
"","ISI","","html-keyboard-response","501","423022","0.0-1.0-705.0","0","0","42867","","null","","","null","78","NaN","","","","","","","","","","","","","","",""
"","S2","","html-keyboard-response","502","423276","0.0-1.0-706.0","0","0","42867","","null","","","null","78","","NaN","","","","","","","","","","","","","",""
"","response","","html-keyboard-response","503","423619","0.0-1.0-707.0-0.0","0","0","42867","","342","","","75","78","","","2","78","training","adjacent","CD","3","4","R.jpg","N.jpg","1","1","1","",""
"","feedback","","html-keyboard-response","504","424631","0.0-1.0-708.0-0.0","0","0","42867","","null","","","null","78","","","","","","","","","","","","","","","",""
"","ITI","","html-keyboard-response","505","425633","0.0-1.0-711.0","0","0","42867","","null","","","null","78","","","","","","","","","","","","","","","NaN",""
"","S1","","html-keyboard-response","506","425886","0.0-1.0-713.0","0","0","42867","","null","","","null","79","","","","","","","","","","","","","","","",""
"","ISI","","html-keyboard-response","507","426389","0.0-1.0-714.0","0","0","42867","","null","","","null","79","NaN","","","","","","","","","","","","","","",""
"","S2","","html-keyboard-response","508","426642","0.0-1.0-715.0","0","0","42867","","null","","","null","79","","NaN","","","","","","","","","","","","","",""
"","response","","html-keyboard-response","509","427507","0.0-1.0-716.0-0.0","0","0","42867","","864","","","68","79","","","2","79","training","adjacent","FE","6","5","L.jpg","M.jpg","0","0","1","",""
"","feedback","","html-keyboard-response","510","428511","0.0-1.0-717.0-0.0","0","0","42867","","null","","","null","79","","","","","","","","","","","","","","","",""
"","ITI","","html-keyboard-response","511","429513","0.0-1.0-720.0","0","0","42867","","null","","","null","79","","","","","","","","","","","","","","","NaN",""
"","S1","","html-keyboard-response","512","429766","0.0-1.0-722.0","0","0","42867","","null","","","null","80","","","","","","","","","","","","","","","",""
"","ISI","","html-keyboard-response","513","430269","0.0-1.0-723.0","0","0","42867","","null","","","null","80","NaN","","","","","","","","","","","","","","",""
"","S2","","html-keyboard-response","514","430522","0.0-1.0-724.0","0","0","42867","","null","","","null","80","","NaN","","","","","","","","","","","","","",""
"","response","","html-keyboard-response","515","431363","0.0-1.0-725.0-0.0","0","0","42867","","840","","","75","80","","","2","80","training","adjacent","DE","4","5","N.jpg","M.jpg","1","1","1","",""
"","feedback","","html-keyboard-response","516","432365","0.0-1.0-726.0-0.0","0","0","42867","","null","","","null","80","","","","","","","","","","","","","","","",""
"","ITI","","html-keyboard-response","517","433369","0.0-1.0-729.0","0","0","42867","","null","","","null","80","","","","","","","","","","","","","","","NaN",""
"","S1","","html-keyboard-response","518","433621","0.0-1.0-731.0","0","0","42867","","null","","","null","81","","","","","","","","","","","","","","","",""
"","ISI","","html-keyboard-response","519","434123","0.0-1.0-732.0","0","0","42867","","null","","","null","81","NaN","","","","","","","","","","","","","","",""
"","S2","","html-keyboard-response","520","434376","0.0-1.0-733.0","0","0","42867","","null","","","null","81","","NaN","","","","","","","","","","","","","",""
"","response","","html-keyboard-response","521","434826","0.0-1.0-734.0-0.0","0","0","42867","","449","","","68","81","","","2","81","training","adjacent","CB","3","2","R.jpg","P.jpg","0","0","1","",""
"","feedback","","html-keyboard-response","522","435829","0.0-1.0-735.0-0.0","0","0","42867","","null","","","null","81","","","","","","","","","","","","","","","",""
"","ITI","","html-keyboard-response","523","436831","0.0-1.0-738.0","0","0","42867","","null","","","null","81","","","","","","","","","","","","","","","NaN",""
"","S1","","html-keyboard-response","524","437084","0.0-1.0-740.0","0","0","42867","","null","","","null","82","","","","","","","","","","","","","","","",""
"","ISI","","html-keyboard-response","525","437587","0.0-1.0-741.0","0","0","42867","","null","","","null","82","NaN","","","","","","","","","","","","","","",""
"","S2","","html-keyboard-response","526","437840","0.0-1.0-742.0","0","0","42867","","null","","","null","82","","NaN","","","","","","","","","","","","","",""
"","response","","html-keyboard-response","527","438334","0.0-1.0-743.0-0.0","0","0","42867","","493","","","68","82","","","2","82","training","adjacent","ED","5","4","M.jpg","N.jpg","0","0","1","",""
"","feedback","","html-keyboard-response","528","439337","0.0-1.0-744.0-0.0","0","0","42867","","null","","","null","82","","","","","","","","","","","","","","","",""
"","ITI","","html-keyboard-response","529","440340","0.0-1.0-747.0","0","0","42867","","null","","","null","82","","","","","","","","","","","","","","","NaN",""
"","S1","","html-keyboard-response","530","440592","0.0-1.0-749.0","0","0","42867","","null","","","null","83","","","","","","","","","","","","","","","",""
"","ISI","","html-keyboard-response","531","441095","0.0-1.0-750.0","0","0","42867","","null","","","null","83","NaN","","","","","","","","","","","","","","",""
"","S2","","html-keyboard-response","532","441348","0.0-1.0-751.0","0","0","42867","","null","","","null","83","","NaN","","","","","","","","","","","","","",""
"","response","","html-keyboard-response","533","442068","0.0-1.0-752.0-0.0","0","0","42867","","719","","","75","83","","","2","83","training","adjacent","FG","6","7","L.jpg","O.jpg","1","1","1","",""
"","feedback","","html-keyboard-response","534","443070","0.0-1.0-753.0-0.0","0","0","42867","","null","","","null","83","","","","","","","","","","","","","","","",""
"","ITI","","html-keyboard-response","535","444073","0.0-1.0-756.0","0","0","42867","","null","","","null","83","","","","","","","","","","","","","","","NaN",""
"","S1","","html-keyboard-response","536","444325","0.0-1.0-758.0","0","0","42867","","null","","","null","84","","","","","","","","","","","","","","","",""
"","ISI","","html-keyboard-response","537","444828","0.0-1.0-759.0","0","0","42867","","null","","","null","84","NaN","","","","","","","","","","","","","","",""
"","S2","","html-keyboard-response","538","445081","0.0-1.0-760.0","0","0","42867","","null","","","null","84","","NaN","","","","","","","","","","","","","",""
"","response","","html-keyboard-response","539","445636","0.0-1.0-761.0-0.0","0","0","42867","","553","","","75","84","","","2","84","training","adjacent","DE","4","5","N.jpg","M.jpg","1","1","1","",""
"","feedback","","html-keyboard-response","540","446640","0.0-1.0-762.0-0.0","0","0","42867","","null","","","null","84","","","","","","","","","","","","","","","",""
"","ITI","","html-keyboard-response","541","447643","0.0-1.0-765.0","0","0","42867","","null","","","null","84","","","","","","","","","","","","","","","NaN",""
"","S1","","html-keyboard-response","542","447895","0.0-1.0-767.0","0","0","42867","","null","","","null","85","","","","","","","","","","","","","","","",""
"","ISI","","html-keyboard-response","543","448397","0.0-1.0-768.0","0","0","42867","","null","","","null","85","NaN","","","","","","","","","","","","","","",""
"","S2","","html-keyboard-response","544","448654","0.0-1.0-769.0","0","0","42867","","null","","","null","85","","NaN","","","","","","","","","","","","","",""
"","response","","html-keyboard-response","545","448676","0.0-1.0-770.0-0.0","0","0","42867","","21","","","75","85","","","2","85","training","adjacent","AB","1","2","Q.jpg","P.jpg","1","1","1","",""
"","feedback","","html-keyboard-response","546","449679","0.0-1.0-771.0-0.0","0","0","42867","","null","","","null","85","","","","","","","","","","","","","","","",""
"","ITI","","html-keyboard-response","547","450681","0.0-1.0-774.0","0","0","42867","","null","","","null","85","","","","","","","","","","","","","","","NaN",""
"","S1","","html-keyboard-response","548","450934","0.0-1.0-776.0","0","0","42867","","null","","","null","86","","","","","","","","","","","","","","","",""
"","ISI","","html-keyboard-response","549","451436","0.0-1.0-777.0","0","0","42867","","null","","","null","86","NaN","","","","","","","","","","","","","","",""
"","S2","","html-keyboard-response","550","451689","0.0-1.0-778.0","0","0","42867","","null","","","null","86","","NaN","","","","","","","","","","","","","",""
"","response","","html-keyboard-response","551","451956","0.0-1.0-779.0-0.0","0","0","42867","","266","","","68","86","","","2","86","training","adjacent","CB","3","2","R.jpg","P.jpg","0","0","1","",""
"","feedback","","html-keyboard-response","552","452959","0.0-1.0-780.0-0.0","0","0","42867","","null","","","null","86","","","","","","","","","","","","","","","",""
"","ITI","","html-keyboard-response","553","453961","0.0-1.0-783.0","0","0","42867","","null","","","null","86","","","","","","","","","","","","","","","NaN",""
"","S1","","html-keyboard-response","554","454214","0.0-1.0-785.0","0","0","42867","","null","","","null","87","","","","","","","","","","","","","","","",""
"","ISI","","html-keyboard-response","555","454716","0.0-1.0-786.0","0","0","42867","","null","","","null","87","NaN","","","","","","","","","","","","","","",""
"","S2","","html-keyboard-response","556","454969","0.0-1.0-787.0","0","0","42867","","null","","","null","87","","NaN","","","","","","","","","","","","","",""
"","response","","html-keyboard-response","557","455329","0.0-1.0-788.0-0.0","0","0","42867","","359","","","75","87","","","2","87","training","adjacent","DC","4","3","N.jpg","R.jpg","1","0","0","",""
"","feedback","","html-keyboard-response","558","456333","0.0-1.0-789.0-0.0","0","0","42867","","null","","","null","87","","","","","","","","","","","","","","","",""
"","time_out","","html-keyboard-response","559","458341","0.0-1.0-791.0-0.0","0","0","42867","","null","","","null","87","","","","","","","","","","","","","","","",""
"","ITI","","html-keyboard-response","560","459343","0.0-1.0-792.0","0","0","42867","","null","","","null","87","","","","","","","","","","","","","","","NaN",""
"","S1","","html-keyboard-response","561","459596","0.0-1.0-794.0","0","0","42867","","null","","","null","88","","","","","","","","","","","","","","","",""
"","ISI","","html-keyboard-response","562","460099","0.0-1.0-795.0","0","0","42867","","null","","","null","88","NaN","","","","","","","","","","","","","","",""
"","S2","","html-keyboard-response","563","460350","0.0-1.0-796.0","0","0","42867","","null","","","null","88","","NaN","","","","","","","","","","","","","",""
"","response","","html-keyboard-response","564","460778","0.0-1.0-797.0-0.0","0","0","42867","","426","","","75","88","","","2","88","training","adjacent","CB","3","2","R.jpg","P.jpg","1","0","0","",""
"","feedback","","html-keyboard-response","565","461792","0.0-1.0-798.0-0.0","0","0","42867","","null","","","null","88","","","","","","","","","","","","","","","",""
"","time_out","","html-keyboard-response","566","463794","0.0-1.0-800.0-0.0","0","0","42867","","null","","","null","88","","","","","","","","","","","","","","","",""
"","ITI","","html-keyboard-response","567","464797","0.0-1.0-801.0","0","0","42867","","null","","","null","88","","","","","","","","","","","","","","","NaN",""
"","S1","","html-keyboard-response","568","465049","0.0-1.0-803.0","0","0","42867","","null","","","null","89","","","","","","","","","","","","","","","",""
"","ISI","","html-keyboard-response","569","465560","0.0-1.0-804.0","0","0","42867","","null","","","null","89","NaN","","","","","","","","","","","","","","",""
"","S2","","html-keyboard-response","570","465789","0.0-1.0-805.0","0","0","42867","","228","","","75","89","","k","2","89","training","adjacent","DC","4","3","N.jpg","R.jpg","1","0","0","",""
"","feedback","","html-keyboard-response","571","466792","0.0-1.0-807.0-0.0","0","0","42867","","null","","","null","89","","","","","","","","","","","","","","","",""
"","time_out","","html-keyboard-response","572","468795","0.0-1.0-809.0-0.0","0","0","42867","","null","","","null","89","","","","","","","","","","","","","","","",""
"","ITI","","html-keyboard-response","573","469797","0.0-1.0-810.0","0","0","42867","","null","","","null","89","","","","","","","","","","","","","","","NaN",""
"","S1","","html-keyboard-response","574","470050","0.0-1.0-812.0","0","0","42867","","null","","","null","90","","","","","","","","","","","","","","","",""
"","ISI","","html-keyboard-response","575","470552","0.0-1.0-813.0","0","0","42867","","null","","","null","90","NaN","","","","","","","","","","","","","","",""
"","S2","","html-keyboard-response","576","470805","0.0-1.0-814.0","0","0","42867","","null","","","null","90","","NaN","","","","","","","","","","","","","",""
"","response","","html-keyboard-response","577","471087","0.0-1.0-815.0-0.0","0","0","42867","","281","","","75","90","","","2","90","training","adjacent","DE","4","5","N.jpg","M.jpg","1","1","1","",""
"","feedback","","html-keyboard-response","578","472090","0.0-1.0-816.0-0.0","0","0","42867","","null","","","null","90","","","","","","","","","","","","","","","",""
"","ITI","","html-keyboard-response","579","473092","0.0-1.0-819.0","0","0","42867","","null","","","null","90","","","","","","","","","","","","","","","NaN",""
"","S1","","html-keyboard-response","580","473345","0.0-1.0-821.0","0","0","42867","","null","","","null","91","","","","","","","","","","","","","","","",""
"","ISI","","html-keyboard-response","581","473847","0.0-1.0-822.0","0","0","42867","","null","","","null","91","NaN","","","","","","","","","","","","","","",""
