"success","ttype","start_time","trial_type","trial_index","time_elapsed","internal_node_id","warning","missed_checkup","PID","view_history","rt","responses","repeat_instructions","key_press","index","keypress_isi","keypress_S2","block","trial_num","phase","group_type","pair_type","S1_stim","S2_stim","S1_img","S2_img","S1_chosen","S1_higher","accuracy","keypress_iti","total_bonus_tally"
"true","full_screen","d03082023hr1430","fullscreen","0","8302","0.0-0.0","0","0","96962","","","","","","","","","","","","","","","","","","","","","",""
"","instructions","","instructions","1","135758","0.0-1.0-0.0-0.0","0","0","96962","[{""page_index"":0,""viewing_time"":4486},{""page_index"":1,""viewing_time"":114299},{""page_index"":2,""viewing_time"":6682},{""page_index"":3,""viewing_time"":1982}]","127451","","","","","","","","","","","","","","","","","","","",""
"","comprehension_check","","survey-multi-choice","2","159393","0.0-1.0-0.0-1.0","0","0","96962","","23621","{""Q0"":""True"",""Q1"":""D"",""Q2"":""Once the second image appears and while the screen 'MAKE A CHOICE' is shown"",""Q3"":""Green mark"",""Q4"":""either D or K""}","0","","","","","","","","","","","","","","","","","",""
"","start_exp","","html-keyboard-response","3","161411","0.0-1.0-1.0","0","0","96962","","2008","","","32","","","","","","","","","","","","","","","","",""
"","S1","","html-keyboard-response","4","161668","0.0-1.0-2.0","0","0","96962","","null","","","null","0","","","","","","","","","","","","","","","",""
"","ISI","","html-keyboard-response","5","161829","0.0-1.0-3.0","0","0","96962","","null","","","null","0","NaN","","","","","","","","","","","","","","",""
"","S2","","html-keyboard-response","6","162088","0.0-1.0-4.0","0","0","96962","","null","","","null","0","","NaN","","","","","","","","","","","","","",""
"","response","","html-keyboard-response","7","162748","0.0-1.0-5.0-0.0","0","0","96962","","656","","","75","0","","","1","0","training","adjacent","FG","6","7","Q.jpg","N.jpg","0","1","0","",""
"","feedback","","html-keyboard-response","8","163762","0.0-1.0-6.0-0.0","0","0","96962","","null","","","null","0","","","","","","","","","","","","","","","",""
"","time_out","","html-keyboard-response","9","165767","0.0-1.0-8.0-0.0","0","0","96962","","null","","","null","0","","","","","","","","","","","","","","","",""
"","ITI","","html-keyboard-response","10","166779","0.0-1.0-9.0","0","0","96962","","669","","","32","0","","","","","","","","","","","","","","","space",""
"","S1","","html-keyboard-response","11","167040","0.0-1.0-11.0","0","0","96962","","null","","","null","1","","","","","","","","","","","","","","","",""
"","ISI","","html-keyboard-response","12","167195","0.0-1.0-12.0","0","0","96962","","null","","","null","1","NaN","","","","","","","","","","","","","","",""
"","S2","","html-keyboard-response","13","167463","0.0-1.0-13.0","0","0","96962","","null","","","null","1","","NaN","","","","","","","","","","","","","",""
"","response","","html-keyboard-response","14","167868","0.0-1.0-14.0-0.0","0","0","96962","","402","","","68","1","","","1","1","training","adjacent","ED","5","4","O.jpg","L.jpg","1","0","0","",""
"","feedback","","html-keyboard-response","15","168879","0.0-1.0-15.0-0.0","0","0","96962","","null","","","null","1","","","","","","","","","","","","","","","",""
"","time_out","","html-keyboard-response","16","170892","0.0-1.0-17.0-0.0","0","0","96962","","null","","","null","1","","","","","","","","","","","","","","","",""
"","ITI","","html-keyboard-response","17","171902","0.0-1.0-18.0","0","0","96962","","null","","","null","1","","","","","","","","","","","","","","","NaN",""
"","S1","","html-keyboard-response","18","172163","0.0-1.0-20.0","0","0","96962","","null","","","null","2","","","","","","","","","","","","","","","",""
"","ISI","","html-keyboard-response","19","172321","0.0-1.0-21.0","0","0","96962","","null","","","null","2","NaN","","","","","","","","","","","","","","",""
"","S2","","html-keyboard-response","20","172578","0.0-1.0-22.0","0","0","96962","","null","","","null","2","","NaN","","","","","","","","","","","","","",""
"","response","","html-keyboard-response","21","173098","0.0-1.0-23.0-0.0","0","0","96962","","516","","","68","2","","","1","2","training","adjacent","BA","2","1","M.jpg","R.jpg","1","0","0","",""
"","feedback","","html-keyboard-response","22","174112","0.0-1.0-24.0-0.0","0","0","96962","","null","","","null","2","","","","","","","","","","","","","","","",""
"","time_out","","html-keyboard-response","23","176117","0.0-1.0-26.0-0.0","0","0","96962","","null","","","null","2","","","","","","","","","","","","","","","",""
"","ITI","","html-keyboard-response","24","177125","0.0-1.0-27.0","0","0","96962","","null","","","null","2","","","","","","","","","","","","","","","NaN",""
"","S1","","html-keyboard-response","25","177379","0.0-1.0-29.0","0","0","96962","","null","","","null","3","","","","","","","","","","","","","","","",""
"","ISI","","html-keyboard-response","26","177541","0.0-1.0-30.0","0","0","96962","","null","","","null","3","NaN","","","","","","","","","","","","","","",""
"","S2","","html-keyboard-response","27","177804","0.0-1.0-31.0","0","0","96962","","null","","","null","3","","NaN","","","","","","","","","","","","","",""
"","response","","html-keyboard-response","28","178271","0.0-1.0-32.0-0.0","0","0","96962","","464","","","75","3","","","1","3","training","adjacent","BC","2","3","M.jpg","P.jpg","0","1","0","",""
"","feedback","","html-keyboard-response","29","179276","0.0-1.0-33.0-0.0","0","0","96962","","null","","","null","3","","","","","","","","","","","","","","","",""
"","time_out","","html-keyboard-response","30","181292","0.0-1.0-35.0-0.0","0","0","96962","","null","","","null","3","","","","","","","","","","","","","","","",""
"","ITI","","html-keyboard-response","31","182301","0.0-1.0-36.0","0","0","96962","","null","","","null","3","","","","","","","","","","","","","","","NaN",""
"","S1","","html-keyboard-response","32","182560","0.0-1.0-38.0","0","0","96962","","null","","","null","4","","","","","","","","","","","","","","","",""
"","ISI","","html-keyboard-response","33","182719","0.0-1.0-39.0","0","0","96962","","null","","","null","4","NaN","","","","","","","","","","","","","","",""
"","S2","","html-keyboard-response","34","182980","0.0-1.0-40.0","0","0","96962","","null","","","null","4","","NaN","","","","","","","","","","","","","",""
"","response","","html-keyboard-response","35","183311","0.0-1.0-41.0-0.0","0","0","96962","","327","","","68","4","","","1","4","training","adjacent","DE","4","5","L.jpg","O.jpg","1","1","1","",""
"","feedback","","html-keyboard-response","36","184320","0.0-1.0-42.0-0.0","0","0","96962","","null","","","null","4","","","","","","","","","","","","","","","",""
"","ITI","","html-keyboard-response","37","185332","0.0-1.0-45.0","0","0","96962","","null","","","null","4","","","","","","","","","","","","","","","NaN",""
"","S1","","html-keyboard-response","38","185593","0.0-1.0-47.0","0","0","96962","","null","","","null","5","","","","","","","","","","","","","","","",""
"","ISI","","html-keyboard-response","39","185751","0.0-1.0-48.0","0","0","96962","","null","","","null","5","NaN","","","","","","","","","","","","","","",""
"","S2","","html-keyboard-response","40","186010","0.0-1.0-49.0","0","0","96962","","null","","","null","5","","NaN","","","","","","","","","","","","","",""
"","response","","html-keyboard-response","41","186868","0.0-1.0-50.0-0.0","0","0","96962","","855","","","68","5","","","1","5","training","adjacent","EF","5","6","O.jpg","Q.jpg","1","1","1","",""
"","feedback","","html-keyboard-response","42","187880","0.0-1.0-51.0-0.0","0","0","96962","","null","","","null","5","","","","","","","","","","","","","","","",""
"","ITI","","html-keyboard-response","43","188886","0.0-1.0-54.0","0","0","96962","","null","","","null","5","","","","","","","","","","","","","","","NaN",""
"","S1","","html-keyboard-response","44","189141","0.0-1.0-56.0","0","0","96962","","null","","","null","6","","","","","","","","","","","","","","","",""
"","ISI","","html-keyboard-response","45","189296","0.0-1.0-57.0","0","0","96962","","null","","","null","6","NaN","","","","","","","","","","","","","","",""
"","S2","","html-keyboard-response","46","189551","0.0-1.0-58.0","0","0","96962","","null","","","null","6","","NaN","","","","","","","","","","","","","",""
"","response","","html-keyboard-response","47","190187","0.0-1.0-59.0-0.0","0","0","96962","","631","","","68","6","","","1","6","training","adjacent","DE","4","5","L.jpg","O.jpg","1","1","1","",""
"","feedback","","html-keyboard-response","48","191193","0.0-1.0-60.0-0.0","0","0","96962","","null","","","null","6","","","","","","","","","","","","","","","",""
"","ITI","","html-keyboard-response","49","192196","0.0-1.0-63.0","0","0","96962","","null","","","null","6","","","","","","","","","","","","","","","NaN",""
"","S1","","html-keyboard-response","50","192452","0.0-1.0-65.0","0","0","96962","","null","","","null","7","","","","","","","","","","","","","","","",""
"","ISI","","html-keyboard-response","51","192613","0.0-1.0-66.0","0","0","96962","","null","","","null","7","NaN","","","","","","","","","","","","","","",""
"","S2","","html-keyboard-response","52","192872","0.0-1.0-67.0","0","0","96962","","null","","","null","7","","NaN","","","","","","","","","","","","","",""
"","response","","html-keyboard-response","53","193466","0.0-1.0-68.0-0.0","0","0","96962","","590","","","75","7","","","1","7","training","adjacent","AB","1","2","R.jpg","M.jpg","0","1","0","",""
"","feedback","","html-keyboard-response","54","194471","0.0-1.0-69.0-0.0","0","0","96962","","null","","","null","7","","","","","","","","","","","","","","","",""
"","time_out","","html-keyboard-response","55","196477","0.0-1.0-71.0-0.0","0","0","96962","","null","","","null","7","","","","","","","","","","","","","","","",""
"","ITI","","html-keyboard-response","56","197481","0.0-1.0-72.0","0","0","96962","","null","","","null","7","","","","","","","","","","","","","","","NaN",""
"","S1","","html-keyboard-response","57","197740","0.0-1.0-74.0","0","0","96962","","null","","","null","8","","","","","","","","","","","","","","","",""
"","ISI","","html-keyboard-response","58","197898","0.0-1.0-75.0","0","0","96962","","null","","","null","8","NaN","","","","","","","","","","","","","","",""
"","S2","","html-keyboard-response","59","198152","0.0-1.0-76.0","0","0","96962","","null","","","null","8","","NaN","","","","","","","","","","","","","",""
"","response","","html-keyboard-response","60","198531","0.0-1.0-77.0-0.0","0","0","96962","","377","","","68","8","","","1","8","training","adjacent","GF","7","6","N.jpg","Q.jpg","1","0","0","",""
"","feedback","","html-keyboard-response","61","199538","0.0-1.0-78.0-0.0","0","0","96962","","null","","","null","8","","","","","","","","","","","","","","","",""
"","time_out","","html-keyboard-response","62","201550","0.0-1.0-80.0-0.0","0","0","96962","","null","","","null","8","","","","","","","","","","","","","","","",""
"","ITI","","html-keyboard-response","63","202562","0.0-1.0-81.0","0","0","96962","","null","","","null","8","","","","","","","","","","","","","","","NaN",""
"","S1","","html-keyboard-response","64","202817","0.0-1.0-83.0","0","0","96962","","null","","","null","9","","","","","","","","","","","","","","","",""
"","ISI","","html-keyboard-response","65","202978","0.0-1.0-84.0","0","0","96962","","null","","","null","9","NaN","","","","","","","","","","","","","","",""
"","S2","","html-keyboard-response","66","203239","0.0-1.0-85.0","0","0","96962","","null","","","null","9","","NaN","","","","","","","","","","","","","",""
"","response","","html-keyboard-response","67","203595","0.0-1.0-86.0-0.0","0","0","96962","","353","","","68","9","","","1","9","training","adjacent","FG","6","7","Q.jpg","N.jpg","1","1","1","",""
"","feedback","","html-keyboard-response","68","204607","0.0-1.0-87.0-0.0","0","0","96962","","null","","","null","9","","","","","","","","","","","","","","","",""
"","ITI","","html-keyboard-response","69","205627","0.0-1.0-90.0","0","0","96962","","null","","","null","9","","","","","","","","","","","","","","","NaN",""
"","S1","","html-keyboard-response","70","205889","0.0-1.0-92.0","0","0","96962","","null","","","null","10","","","","","","","","","","","","","","","",""
"","ISI","","html-keyboard-response","71","206047","0.0-1.0-93.0","0","0","96962","","null","","","null","10","NaN","","","","","","","","","","","","","","",""
"","S2","","html-keyboard-response","72","206300","0.0-1.0-94.0","0","0","96962","","null","","","null","10","","NaN","","","","","","","","","","","","","",""
"","response","","html-keyboard-response","73","206732","0.0-1.0-95.0-0.0","0","0","96962","","428","","","68","10","","","1","10","training","adjacent","EF","5","6","O.jpg","Q.jpg","1","1","1","",""
"","feedback","","html-keyboard-response","74","207741","0.0-1.0-96.0-0.0","0","0","96962","","null","","","null","10","","","","","","","","","","","","","","","",""
"","ITI","","html-keyboard-response","75","208753","0.0-1.0-99.0","0","0","96962","","null","","","null","10","","","","","","","","","","","","","","","NaN",""
"","S1","","html-keyboard-response","76","209020","0.0-1.0-101.0","0","0","96962","","null","","","null","11","","","","","","","","","","","","","","","",""
"","ISI","","html-keyboard-response","77","209177","0.0-1.0-102.0","0","0","96962","","null","","","null","11","NaN","","","","","","","","","","","","","","",""
"","S2","","html-keyboard-response","78","209447","0.0-1.0-103.0","0","0","96962","","null","","","null","11","","NaN","","","","","","","","","","","","","",""
"","response","","html-keyboard-response","79","209909","0.0-1.0-104.0-0.0","0","0","96962","","459","","","68","11","","","1","11","training","adjacent","CB","3","2","P.jpg","M.jpg","1","0","0","",""
"","feedback","","html-keyboard-response","80","210921","0.0-1.0-105.0-0.0","0","0","96962","","null","","","null","11","","","","","","","","","","","","","","","",""
"","time_out","","html-keyboard-response","81","212931","0.0-1.0-107.0-0.0","0","0","96962","","null","","","null","11","","","","","","","","","","","","","","","",""
"","ITI","","html-keyboard-response","82","213943","0.0-1.0-108.0","0","0","96962","","null","","","null","11","","","","","","","","","","","","","","","NaN",""
"","S1","","html-keyboard-response","83","214201","0.0-1.0-110.0","0","0","96962","","null","","","null","12","","","","","","","","","","","","","","","",""
"","ISI","","html-keyboard-response","84","214359","0.0-1.0-111.0","0","0","96962","","null","","","null","12","NaN","","","","","","","","","","","","","","",""
"","S2","","html-keyboard-response","85","214617","0.0-1.0-112.0","0","0","96962","","null","","","null","12","","NaN","","","","","","","","","","","","","",""
"","response","","html-keyboard-response","86","215150","0.0-1.0-113.0-0.0","0","0","96962","","529","","","75","12","","","1","12","training","adjacent","BA","2","1","M.jpg","R.jpg","0","0","1","",""
"","feedback","","html-keyboard-response","87","216167","0.0-1.0-114.0-0.0","0","0","96962","","null","","","null","12","","","","","","","","","","","","","","","",""
"","ITI","","html-keyboard-response","88","217171","0.0-1.0-117.0","0","0","96962","","null","","","null","12","","","","","","","","","","","","","","","NaN",""
"","S1","","html-keyboard-response","89","217427","0.0-1.0-119.0","0","0","96962","","null","","","null","13","","","","","","","","","","","","","","","",""
"","ISI","","html-keyboard-response","90","217589","0.0-1.0-120.0","0","0","96962","","null","","","null","13","NaN","","","","","","","","","","","","","","",""
"","S2","","html-keyboard-response","91","217846","0.0-1.0-121.0","0","0","96962","","null","","","null","13","","NaN","","","","","","","","","","","","","",""
"","response","","html-keyboard-response","92","218184","0.0-1.0-122.0-0.0","0","0","96962","","334","","","68","13","","","1","13","training","adjacent","DC","4","3","L.jpg","P.jpg","1","0","0","",""
"","feedback","","html-keyboard-response","93","219189","0.0-1.0-123.0-0.0","0","0","96962","","null","","","null","13","","","","","","","","","","","","","","","",""
"","time_out","","html-keyboard-response","94","221197","0.0-1.0-125.0-0.0","0","0","96962","","null","","","null","13","","","","","","","","","","","","","","","",""
"","ITI","","html-keyboard-response","95","222203","0.0-1.0-126.0","0","0","96962","","null","","","null","13","","","","","","","","","","","","","","","NaN",""
"","S1","","html-keyboard-response","96","222467","0.0-1.0-128.0","0","0","96962","","null","","","null","14","","","","","","","","","","","","","","","",""
"","ISI","","html-keyboard-response","97","222628","0.0-1.0-129.0","0","0","96962","","null","","","null","14","NaN","","","","","","","","","","","","","","",""
"","S2","","html-keyboard-response","98","222891","0.0-1.0-130.0","0","0","96962","","null","","","null","14","","NaN","","","","","","","","","","","","","",""
"","response","","html-keyboard-response","99","223157","0.0-1.0-131.0-0.0","0","0","96962","","263","","","75","14","","","1","14","training","adjacent","AB","1","2","R.jpg","M.jpg","0","1","0","",""
"","feedback","","html-keyboard-response","100","224169","0.0-1.0-132.0-0.0","0","0","96962","","null","","","null","14","","","","","","","","","","","","","","","",""
"","time_out","","html-keyboard-response","101","226180","0.0-1.0-134.0-0.0","0","0","96962","","null","","","null","14","","","","","","","","","","","","","","","",""
"","ITI","","html-keyboard-response","102","227194","0.0-1.0-135.0","0","0","96962","","null","","","null","14","","","","","","","","","","","","","","","NaN",""
"","S1","","html-keyboard-response","103","227451","0.0-1.0-137.0","0","0","96962","","null","","","null","15","","","","","","","","","","","","","","","",""
"","ISI","","html-keyboard-response","104","227616","0.0-1.0-138.0","0","0","96962","","null","","","null","15","NaN","","","","","","","","","","","","","","",""
"","S2","","html-keyboard-response","105","227879","0.0-1.0-139.0","0","0","96962","","null","","","null","15","","NaN","","","","","","","","","","","","","",""
"","response","","html-keyboard-response","106","228558","0.0-1.0-140.0-0.0","0","0","96962","","675","","","68","15","","","1","15","training","adjacent","CB","3","2","P.jpg","M.jpg","1","0","0","",""
"","feedback","","html-keyboard-response","107","229569","0.0-1.0-141.0-0.0","0","0","96962","","null","","","null","15","","","","","","","","","","","","","","","",""
"","time_out","","html-keyboard-response","108","231575","0.0-1.0-143.0-0.0","0","0","96962","","null","","","null","15","","","","","","","","","","","","","","","",""
"","ITI","","html-keyboard-response","109","232580","0.0-1.0-144.0","0","0","96962","","null","","","null","15","","","","","","","","","","","","","","","NaN",""
"","S1","","html-keyboard-response","110","232842","0.0-1.0-146.0","0","0","96962","","null","","","null","16","","","","","","","","","","","","","","","",""
"","ISI","","html-keyboard-response","111","232996","0.0-1.0-147.0","0","0","96962","","null","","","null","16","NaN","","","","","","","","","","","","","","",""
"","S2","","html-keyboard-response","112","233252","0.0-1.0-148.0","0","0","96962","","null","","","null","16","","NaN","","","","","","","","","","","","","",""
"","response","","html-keyboard-response","113","233536","0.0-1.0-149.0-0.0","0","0","96962","","280","","","68","16","","","1","16","training","adjacent","GF","7","6","N.jpg","Q.jpg","1","0","0","",""
"","feedback","","html-keyboard-response","114","234545","0.0-1.0-150.0-0.0","0","0","96962","","null","","","null","16","","","","","","","","","","","","","","","",""
"","time_out","","html-keyboard-response","115","236550","0.0-1.0-152.0-0.0","0","0","96962","","null","","","null","16","","","","","","","","","","","","","","","",""
"","ITI","","html-keyboard-response","116","237555","0.0-1.0-153.0","0","0","96962","","null","","","null","16","","","","","","","","","","","","","","","NaN",""
"","S1","","html-keyboard-response","117","237810","0.0-1.0-155.0","0","0","96962","","null","","","null","17","","","","","","","","","","","","","","","",""
"","ISI","","html-keyboard-response","118","237975","0.0-1.0-156.0","0","0","96962","","null","","","null","17","NaN","","","","","","","","","","","","","","",""
"","S2","","html-keyboard-response","119","238238","0.0-1.0-157.0","0","0","96962","","null","","","null","17","","NaN","","","","","","","","","","","","","",""
"","response","","html-keyboard-response","120","238521","0.0-1.0-158.0-0.0","0","0","96962","","280","","","75","17","","","1","17","training","adjacent","GF","7","6","N.jpg","Q.jpg","0","0","1","",""
"","feedback","","html-keyboard-response","121","239531","0.0-1.0-159.0-0.0","0","0","96962","","null","","","null","17","","","","","","","","","","","","","","","",""
"","ITI","","html-keyboard-response","122","240540","0.0-1.0-162.0","0","0","96962","","null","","","null","17","","","","","","","","","","","","","","","NaN",""
"","S1","","html-keyboard-response","123","240798","0.0-1.0-164.0","0","0","96962","","null","","","null","18","","","","","","","","","","","","","","","",""
"","ISI","","html-keyboard-response","124","240963","0.0-1.0-165.0","0","0","96962","","null","","","null","18","NaN","","","","","","","","","","","","","","",""
"","S2","","html-keyboard-response","125","241219","0.0-1.0-166.0","0","0","96962","","null","","","null","18","","NaN","","","","","","","","","","","","","",""
"","response","","html-keyboard-response","126","241609","0.0-1.0-167.0-0.0","0","0","96962","","386","","","68","18","","","1","18","training","adjacent","CD","3","4","P.jpg","L.jpg","1","1","1","",""
"","feedback","","html-keyboard-response","127","242621","0.0-1.0-168.0-0.0","0","0","96962","","null","","","null","18","","","","","","","","","","","","","","","",""
"","ITI","","html-keyboard-response","128","243632","0.0-1.0-171.0","0","0","96962","","null","","","null","18","","","","","","","","","","","","","","","NaN",""
"","S1","","html-keyboard-response","129","243894","0.0-1.0-173.0","0","0","96962","","null","","","null","19","","","","","","","","","","","","","","","",""
"","ISI","","html-keyboard-response","130","244052","0.0-1.0-174.0","0","0","96962","","null","","","null","19","NaN","","","","","","","","","","","","","","",""
"","S2","","html-keyboard-response","131","244315","0.0-1.0-175.0","0","0","96962","","null","","","null","19","","NaN","","","","","","","","","","","","","",""
"","response","","html-keyboard-response","132","244666","0.0-1.0-176.0-0.0","0","0","96962","","349","","","68","19","","","1","19","training","adjacent","BA","2","1","M.jpg","R.jpg","1","0","0","",""
"","feedback","","html-keyboard-response","133","245674","0.0-1.0-177.0-0.0","0","0","96962","","null","","","null","19","","","","","","","","","","","","","","","",""
"","time_out","","html-keyboard-response","134","247686","0.0-1.0-179.0-0.0","0","0","96962","","null","","","null","19","","","","","","","","","","","","","","","",""
"","ITI","","html-keyboard-response","135","248706","0.0-1.0-180.0","0","0","96962","","null","","","null","19","","","","","","","","","","","","","","","NaN",""
"","S1","","html-keyboard-response","136","248961","0.0-1.0-182.0","0","0","96962","","null","","","null","20","","","","","","","","","","","","","","","",""
"","ISI","","html-keyboard-response","137","249119","0.0-1.0-183.0","0","0","96962","","null","","","null","20","NaN","","","","","","","","","","","","","","",""
"","S2","","html-keyboard-response","138","249382","0.0-1.0-184.0","0","0","96962","","null","","","null","20","","NaN","","","","","","","","","","","","","",""
"","response","","html-keyboard-response","139","249797","0.0-1.0-185.0-0.0","0","0","96962","","411","","","68","20","","","1","20","training","adjacent","CD","3","4","P.jpg","L.jpg","1","1","1","",""
"","feedback","","html-keyboard-response","140","250816","0.0-1.0-186.0-0.0","0","0","96962","","null","","","null","20","","","","","","","","","","","","","","","",""
"","ITI","","html-keyboard-response","141","251825","0.0-1.0-189.0","0","0","96962","","null","","","null","20","","","","","","","","","","","","","","","NaN",""
"","S1","","html-keyboard-response","142","252081","0.0-1.0-191.0","0","0","96962","","null","","","null","21","","","","","","","","","","","","","","","",""
"","ISI","","html-keyboard-response","143","252237","0.0-1.0-192.0","0","0","96962","","null","","","null","21","NaN","","","","","","","","","","","","","","",""
"","S2","","html-keyboard-response","144","252494","0.0-1.0-193.0","0","0","96962","","null","","","null","21","","NaN","","","","","","","","","","","","","",""
"","response","","html-keyboard-response","145","253118","0.0-1.0-194.0-0.0","0","0","96962","","620","","","75","21","","","1","21","training","adjacent","CD","3","4","P.jpg","L.jpg","0","1","0","",""
"","feedback","","html-keyboard-response","146","254131","0.0-1.0-195.0-0.0","0","0","96962","","null","","","null","21","","","","","","","","","","","","","","","",""
"","time_out","","html-keyboard-response","147","256146","0.0-1.0-197.0-0.0","0","0","96962","","null","","","null","21","","","","","","","","","","","","","","","",""
"","ITI","","html-keyboard-response","148","257170","0.0-1.0-198.0","0","0","96962","","null","","","null","21","","","","","","","","","","","","","","","NaN",""
"","S1","","html-keyboard-response","149","257430","0.0-1.0-200.0","0","0","96962","","null","","","null","22","","","","","","","","","","","","","","","",""
"","ISI","","html-keyboard-response","150","257591","0.0-1.0-201.0","0","0","96962","","null","","","null","22","NaN","","","","","","","","","","","","","","",""
"","S2","","html-keyboard-response","151","257846","0.0-1.0-202.0","0","0","96962","","null","","","null","22","","NaN","","","","","","","","","","","","","",""
"","response","","html-keyboard-response","152","258018","0.0-1.0-203.0-0.0","0","0","96962","","170","","","68","22","","","1","22","training","adjacent","DC","4","3","L.jpg","P.jpg","1","0","0","",""
"","feedback","","html-keyboard-response","153","259029","0.0-1.0-204.0-0.0","0","0","96962","","null","","","null","22","","","","","","","","","","","","","","","",""
"","time_out","","html-keyboard-response","154","261035","0.0-1.0-206.0-0.0","0","0","96962","","null","","","null","22","","","","","","","","","","","","","","","",""
"","ITI","","html-keyboard-response","155","262041","0.0-1.0-207.0","0","0","96962","","null","","","null","22","","","","","","","","","","","","","","","NaN",""
"","S1","","html-keyboard-response","156","262302","0.0-1.0-209.0","0","0","96962","","null","","","null","23","","","","","","","","","","","","","","","",""
"","ISI","","html-keyboard-response","157","262466","0.0-1.0-210.0","0","0","96962","","null","","","null","23","NaN","","","","","","","","","","","","","","",""
"","S2","","html-keyboard-response","158","262724","0.0-1.0-211.0","0","0","96962","","null","","","null","23","","NaN","","","","","","","","","","","","","",""
"","response","","html-keyboard-response","159","263011","0.0-1.0-212.0-0.0","0","0","96962","","283","","","68","23","","","1","23","training","adjacent","DE","4","5","L.jpg","O.jpg","1","1","1","",""
"","feedback","","html-keyboard-response","160","264017","0.0-1.0-213.0-0.0","0","0","96962","","null","","","null","23","","","","","","","","","","","","","","","",""
"","ITI","","html-keyboard-response","161","265026","0.0-1.0-216.0","0","0","96962","","null","","","null","23","","","","","","","","","","","","","","","NaN",""
"","S1","","html-keyboard-response","162","265281","0.0-1.0-218.0","0","0","96962","","null","","","null","24","","","","","","","","","","","","","","","",""
"","ISI","","html-keyboard-response","163","265437","0.0-1.0-219.0","0","0","96962","","null","","","null","24","NaN","","","","","","","","","","","","","","",""
"","S2","","html-keyboard-response","164","265698","0.0-1.0-220.0","0","0","96962","","null","","","null","24","","NaN","","","","","","","","","","","","","",""
"","response","","html-keyboard-response","165","266017","0.0-1.0-221.0-0.0","0","0","96962","","315","","","75","24","","","1","24","training","adjacent","CB","3","2","P.jpg","M.jpg","0","0","1","",""
"","feedback","","html-keyboard-response","166","267027","0.0-1.0-222.0-0.0","0","0","96962","","null","","","null","24","","","","","","","","","","","","","","","",""
"","ITI","","html-keyboard-response","167","268034","0.0-1.0-225.0","0","0","96962","","null","","","null","24","","","","","","","","","","","","","","","NaN",""
"","S1","","html-keyboard-response","168","268292","0.0-1.0-227.0","0","0","96962","","null","","","null","25","","","","","","","","","","","","","","","",""
"","ISI","","html-keyboard-response","169","268452","0.0-1.0-228.0","0","0","96962","","null","","","null","25","NaN","","","","","","","","","","","","","","",""
"","S2","","html-keyboard-response","170","268710","0.0-1.0-229.0","0","0","96962","","null","","","null","25","","NaN","","","","","","","","","","","","","",""
"","response","","html-keyboard-response","171","268893","0.0-1.0-230.0-0.0","0","0","96962","","179","","","75","25","","","1","25","training","adjacent","AB","1","2","R.jpg","M.jpg","0","1","0","",""
"","feedback","","html-keyboard-response","172","269906","0.0-1.0-231.0-0.0","0","0","96962","","null","","","null","25","","","","","","","","","","","","","","","",""
"","time_out","","html-keyboard-response","173","271914","0.0-1.0-233.0-0.0","0","0","96962","","null","","","null","25","","","","","","","","","","","","","","","",""
"","ITI","","html-keyboard-response","174","272926","0.0-1.0-234.0","0","0","96962","","null","","","null","25","","","","","","","","","","","","","","","NaN",""
"","S1","","html-keyboard-response","175","273181","0.0-1.0-236.0","0","0","96962","","null","","","null","26","","","","","","","","","","","","","","","",""
"","ISI","","html-keyboard-response","176","273351","0.0-1.0-237.0","0","0","96962","","null","","","null","26","NaN","","","","","","","","","","","","","","",""
"","S2","","html-keyboard-response","177","273617","0.0-1.0-238.0","0","0","96962","","null","","","null","26","","NaN","","","","","","","","","","","","","",""
"","response","","html-keyboard-response","178","273900","0.0-1.0-239.0-0.0","0","0","96962","","280","","","68","26","","","1","26","training","adjacent","FG","6","7","Q.jpg","N.jpg","1","1","1","",""
"","feedback","","html-keyboard-response","179","274910","0.0-1.0-240.0-0.0","0","0","96962","","null","","","null","26","","","","","","","","","","","","","","","",""
"","ITI","","html-keyboard-response","180","275923","0.0-1.0-243.0","0","0","96962","","null","","","null","26","","","","","","","","","","","","","","","NaN",""
"","S1","","html-keyboard-response","181","276180","0.0-1.0-245.0","0","0","96962","","null","","","null","27","","","","","","","","","","","","","","","",""
"","ISI","","html-keyboard-response","182","276349","0.0-1.0-246.0","0","0","96962","","null","","","null","27","NaN","","","","","","","","","","","","","","",""
"","S2","","html-keyboard-response","183","276611","0.0-1.0-247.0","0","0","96962","","null","","","null","27","","NaN","","","","","","","","","","","","","",""
"","response","","html-keyboard-response","184","276822","0.0-1.0-248.0-0.0","0","0","96962","","207","","","68","27","","","1","27","training","adjacent","FE","6","5","Q.jpg","O.jpg","1","0","0","",""
"","feedback","","html-keyboard-response","185","277831","0.0-1.0-249.0-0.0","0","0","96962","","null","","","null","27","","","","","","","","","","","","","","","",""
"","time_out","","html-keyboard-response","186","279839","0.0-1.0-251.0-0.0","0","0","96962","","null","","","null","27","","","","","","","","","","","","","","","",""
"","ITI","","html-keyboard-response","187","280845","0.0-1.0-252.0","0","0","96962","","null","","","null","27","","","","","","","","","","","","","","","NaN",""
"","S1","","html-keyboard-response","188","281104","0.0-1.0-254.0","0","0","96962","","null","","","null","28","","","","","","","","","","","","","","","",""
"","ISI","","html-keyboard-response","189","281262","0.0-1.0-255.0","0","0","96962","","null","","","null","28","NaN","","","","","","","","","","","","","","",""
"","S2","","html-keyboard-response","190","281520","0.0-1.0-256.0","0","0","96962","","null","","","null","28","","NaN","","","","","","","","","","","","","",""
"","response","","html-keyboard-response","191","281839","0.0-1.0-257.0-0.0","0","0","96962","","315","","","75","28","","","1","28","training","adjacent","BA","2","1","M.jpg","R.jpg","0","0","1","",""
"","feedback","","html-keyboard-response","192","282847","0.0-1.0-258.0-0.0","0","0","96962","","null","","","null","28","","","","","","","","","","","","","","","",""
"","ITI","","html-keyboard-response","193","283852","0.0-1.0-261.0","0","0","96962","","null","","","null","28","","","","","","","","","","","","","","","NaN",""
"","S1","","html-keyboard-response","194","284109","0.0-1.0-263.0","0","0","96962","","null","","","null","29","","","","","","","","","","","","","","","",""
"","ISI","","html-keyboard-response","195","284270","0.0-1.0-264.0","0","0","96962","","null","","","null","29","NaN","","","","","","","","","","","","","","",""
"","S2","","html-keyboard-response","196","284527","0.0-1.0-265.0","0","0","96962","","null","","","null","29","","NaN","","","","","","","","","","","","","",""
"","response","","html-keyboard-response","197","285081","0.0-1.0-266.0-0.0","0","0","96962","","552","","","75","29","","","1","29","training","adjacent","FE","6","5","Q.jpg","O.jpg","0","0","1","",""
"","feedback","","html-keyboard-response","198","286086","0.0-1.0-267.0-0.0","0","0","96962","","null","","","null","29","","","","","","","","","","","","","","","",""
"","ITI","","html-keyboard-response","199","287096","0.0-1.0-270.0","0","0","96962","","null","","","null","29","","","","","","","","","","","","","","","NaN",""
"","S1","","html-keyboard-response","200","287356","0.0-1.0-272.0","0","0","96962","","null","","","null","30","","","","","","","","","","","","","","","",""
"","ISI","","html-keyboard-response","201","287522","0.0-1.0-273.0","0","0","96962","","null","","","null","30","NaN","","","","","","","","","","","","","","",""
"","S2","","html-keyboard-response","202","287776","0.0-1.0-274.0","0","0","96962","","null","","","null","30","","NaN","","","","","","","","","","","","","",""
"","response","","html-keyboard-response","203","288169","0.0-1.0-275.0-0.0","0","0","96962","","389","","","75","30","","","1","30","training","adjacent","ED","5","4","O.jpg","L.jpg","0","0","1","",""
"","feedback","","html-keyboard-response","204","289180","0.0-1.0-276.0-0.0","0","0","96962","","null","","","null","30","","","","","","","","","","","","","","","",""
"","ITI","","html-keyboard-response","205","290188","0.0-1.0-279.0","0","0","96962","","null","","","null","30","","","","","","","","","","","","","","","NaN",""
"","S1","","html-keyboard-response","206","290451","0.0-1.0-281.0","0","0","96962","","null","","","null","31","","","","","","","","","","","","","","","",""
"","ISI","","html-keyboard-response","207","290622","0.0-1.0-282.0","0","0","96962","","null","","","null","31","NaN","","","","","","","","","","","","","","",""
"","S2","","html-keyboard-response","208","290880","0.0-1.0-283.0","0","0","96962","","null","","","null","31","","NaN","","","","","","","","","","","","","",""
"","response","","html-keyboard-response","209","291355","0.0-1.0-284.0-0.0","0","0","96962","","472","","","75","31","","","1","31","training","adjacent","BC","2","3","M.jpg","P.jpg","0","1","0","",""
"","feedback","","html-keyboard-response","210","292360","0.0-1.0-285.0-0.0","0","0","96962","","null","","","null","31","","","","","","","","","","","","","","","",""
"","time_out","","html-keyboard-response","211","294372","0.0-1.0-287.0-0.0","0","0","96962","","null","","","null","31","","","","","","","","","","","","","","","",""
"","ITI","","html-keyboard-response","212","295386","0.0-1.0-288.0","0","0","96962","","null","","","null","31","","","","","","","","","","","","","","","NaN",""
"","S1","","html-keyboard-response","213","295648","0.0-1.0-290.0","0","0","96962","","null","","","null","32","","","","","","","","","","","","","","","",""
"","ISI","","html-keyboard-response","214","295809","0.0-1.0-291.0","0","0","96962","","null","","","null","32","NaN","","","","","","","","","","","","","","",""
"","S2","","html-keyboard-response","215","296069","0.0-1.0-292.0","0","0","96962","","null","","","null","32","","NaN","","","","","","","","","","","","","",""
"","response","","html-keyboard-response","216","296314","0.0-1.0-293.0-0.0","0","0","96962","","241","","","68","32","","","1","32","training","adjacent","CB","3","2","P.jpg","M.jpg","1","0","0","",""
"","feedback","","html-keyboard-response","217","297327","0.0-1.0-294.0-0.0","0","0","96962","","null","","","null","32","","","","","","","","","","","","","","","",""
"","time_out","","html-keyboard-response","218","299340","0.0-1.0-296.0-0.0","0","0","96962","","null","","","null","32","","","","","","","","","","","","","","","",""
"","ITI","","html-keyboard-response","219","300348","0.0-1.0-297.0","0","0","96962","","null","","","null","32","","","","","","","","","","","","","","","NaN",""
"","S1","","html-keyboard-response","220","300618","0.0-1.0-299.0","0","0","96962","","null","","","null","33","","","","","","","","","","","","","","","",""
"","ISI","","html-keyboard-response","221","300781","0.0-1.0-300.0","0","0","96962","","null","","","null","33","NaN","","","","","","","","","","","","","","",""
"","S2","","html-keyboard-response","222","301039","0.0-1.0-301.0","0","0","96962","","null","","","null","33","","NaN","","","","","","","","","","","","","",""
"","response","","html-keyboard-response","223","301345","0.0-1.0-302.0-0.0","0","0","96962","","303","","","75","33","","","1","33","training","adjacent","BC","2","3","M.jpg","P.jpg","0","1","0","",""
"","feedback","","html-keyboard-response","224","302353","0.0-1.0-303.0-0.0","0","0","96962","","null","","","null","33","","","","","","","","","","","","","","","",""
"","time_out","","html-keyboard-response","225","304359","0.0-1.0-305.0-0.0","0","0","96962","","null","","","null","33","","","","","","","","","","","","","","","",""
"","ITI","","html-keyboard-response","226","305370","0.0-1.0-306.0","0","0","96962","","null","","","null","33","","","","","","","","","","","","","","","NaN",""
"","S1","","html-keyboard-response","227","305629","0.0-1.0-308.0","0","0","96962","","null","","","null","34","","","","","","","","","","","","","","","",""
"","ISI","","html-keyboard-response","228","305795","0.0-1.0-309.0","0","0","96962","","null","","","null","34","NaN","","","","","","","","","","","","","","",""
"","S2","","html-keyboard-response","229","306059","0.0-1.0-310.0","0","0","96962","","null","","","null","34","","NaN","","","","","","","","","","","","","",""
"","response","","html-keyboard-response","230","306269","0.0-1.0-311.0-0.0","0","0","96962","","206","","","68","34","","","1","34","training","adjacent","EF","5","6","O.jpg","Q.jpg","1","1","1","",""
"","feedback","","html-keyboard-response","231","307275","0.0-1.0-312.0-0.0","0","0","96962","","null","","","null","34","","","","","","","","","","","","","","","",""
"","ITI","","html-keyboard-response","232","308286","0.0-1.0-315.0","0","0","96962","","null","","","null","34","","","","","","","","","","","","","","","NaN",""
"","S1","","html-keyboard-response","233","308546","0.0-1.0-317.0","0","0","96962","","null","","","null","35","","","","","","","","","","","","","","","",""
"","ISI","","html-keyboard-response","234","308704","0.0-1.0-318.0","0","0","96962","","null","","","null","35","NaN","","","","","","","","","","","","","","",""
"","S2","","html-keyboard-response","235","308959","0.0-1.0-319.0","0","0","96962","","null","","","null","35","","NaN","","","","","","","","","","","","","",""
"","response","","html-keyboard-response","236","309297","0.0-1.0-320.0-0.0","0","0","96962","","335","","","68","35","","","1","35","training","adjacent","DC","4","3","L.jpg","P.jpg","1","0","0","",""
"","feedback","","html-keyboard-response","237","310305","0.0-1.0-321.0-0.0","0","0","96962","","null","","","null","35","","","","","","","","","","","","","","","",""
"","time_out","","html-keyboard-response","238","312316","0.0-1.0-323.0-0.0","0","0","96962","","null","","","null","35","","","","","","","","","","","","","","","",""
"","ITI","","html-keyboard-response","239","313326","0.0-1.0-324.0","0","0","96962","","null","","","null","35","","","","","","","","","","","","","","","NaN",""
"","S1","","html-keyboard-response","240","313589","0.0-1.0-326.0","0","0","96962","","null","","","null","36","","","","","","","","","","","","","","","",""
"","ISI","","html-keyboard-response","241","313750","0.0-1.0-327.0","0","0","96962","","null","","","null","36","NaN","","","","","","","","","","","","","","",""
"","S2","","html-keyboard-response","242","314007","0.0-1.0-328.0","0","0","96962","","null","","","null","36","","NaN","","","","","","","","","","","","","",""
"","response","","html-keyboard-response","243","314209","0.0-1.0-329.0-0.0","0","0","96962","","199","","","75","36","","","1","36","training","adjacent","CD","3","4","P.jpg","L.jpg","0","1","0","",""
"","feedback","","html-keyboard-response","244","315221","0.0-1.0-330.0-0.0","0","0","96962","","null","","","null","36","","","","","","","","","","","","","","","",""
"","time_out","","html-keyboard-response","245","317226","0.0-1.0-332.0-0.0","0","0","96962","","null","","","null","36","","","","","","","","","","","","","","","",""
"","ITI","","html-keyboard-response","246","318235","0.0-1.0-333.0","0","0","96962","","null","","","null","36","","","","","","","","","","","","","","","NaN",""
"","S1","","html-keyboard-response","247","318498","0.0-1.0-335.0","0","0","96962","","null","","","null","37","","","","","","","","","","","","","","","",""
"","ISI","","html-keyboard-response","248","318660","0.0-1.0-336.0","0","0","96962","","null","","","null","37","NaN","","","","","","","","","","","","","","",""
"","S2","","html-keyboard-response","249","318916","0.0-1.0-337.0","0","0","96962","","null","","","null","37","","NaN","","","","","","","","","","","","","",""
"","response","","html-keyboard-response","250","319198","0.0-1.0-338.0-0.0","0","0","96962","","279","","","68","37","","","1","37","training","adjacent","FE","6","5","Q.jpg","O.jpg","1","0","0","",""
"","feedback","","html-keyboard-response","251","320211","0.0-1.0-339.0-0.0","0","0","96962","","null","","","null","37","","","","","","","","","","","","","","","",""
"","time_out","","html-keyboard-response","252","322221","0.0-1.0-341.0-0.0","0","0","96962","","null","","","null","37","","","","","","","","","","","","","","","",""
"","ITI","","html-keyboard-response","253","323226","0.0-1.0-342.0","0","0","96962","","null","","","null","37","","","","","","","","","","","","","","","NaN",""
"","S1","","html-keyboard-response","254","323482","0.0-1.0-344.0","0","0","96962","","null","","","null","38","","","","","","","","","","","","","","","",""
"","ISI","","html-keyboard-response","255","323639","0.0-1.0-345.0","0","0","96962","","null","","","null","38","NaN","","","","","","","","","","","","","","",""
"","S2","","html-keyboard-response","256","323897","0.0-1.0-346.0","0","0","96962","","null","","","null","38","","NaN","","","","","","","","","","","","","",""
"","response","","html-keyboard-response","257","324103","0.0-1.0-347.0-0.0","0","0","96962","","201","","","75","38","","","1","38","training","adjacent","FG","6","7","Q.jpg","N.jpg","0","1","0","",""
"","feedback","","html-keyboard-response","258","325122","0.0-1.0-348.0-0.0","0","0","96962","","null","","","null","38","","","","","","","","","","","","","","","",""
"","time_out","","html-keyboard-response","259","327127","0.0-1.0-350.0-0.0","0","0","96962","","null","","","null","38","","","","","","","","","","","","","","","",""
"","ITI","","html-keyboard-response","260","328137","0.0-1.0-351.0","0","0","96962","","null","","","null","38","","","","","","","","","","","","","","","NaN",""
"","S1","","html-keyboard-response","261","328395","0.0-1.0-353.0","0","0","96962","","null","","","null","39","","","","","","","","","","","","","","","",""
"","ISI","","html-keyboard-response","262","328558","0.0-1.0-354.0","0","0","96962","","null","","","null","39","NaN","","","","","","","","","","","","","","",""
"","S2","","html-keyboard-response","263","328813","0.0-1.0-355.0","0","0","96962","","null","","","null","39","","NaN","","","","","","","","","","","","","",""
"","response","","html-keyboard-response","264","329047","0.0-1.0-356.0-0.0","0","0","96962","","230","","","75","39","","","1","39","training","adjacent","GF","7","6","N.jpg","Q.jpg","0","0","1","",""
"","feedback","","html-keyboard-response","265","330052","0.0-1.0-357.0-0.0","0","0","96962","","null","","","null","39","","","","","","","","","","","","","","","",""
"","ITI","","html-keyboard-response","266","331064","0.0-1.0-360.0","0","0","96962","","null","","","null","39","","","","","","","","","","","","","","","NaN",""
"","S1","","html-keyboard-response","267","331327","0.0-1.0-362.0","0","0","96962","","null","","","null","40","","","","","","","","","","","","","","","",""
"","ISI","","html-keyboard-response","268","331489","0.0-1.0-363.0","0","0","96962","","null","","","null","40","NaN","","","","","","","","","","","","","","",""
"","S2","","html-keyboard-response","269","331745","0.0-1.0-364.0","0","0","96962","","null","","","null","40","","NaN","","","","","","","","","","","","","",""
"","response","","html-keyboard-response","270","332076","0.0-1.0-365.0-0.0","0","0","96962","","328","","","75","40","","","1","40","training","adjacent","ED","5","4","O.jpg","L.jpg","0","0","1","",""
"","feedback","","html-keyboard-response","271","333080","0.0-1.0-366.0-0.0","0","0","96962","","null","","","null","40","","","","","","","","","","","","","","","",""
"","ITI","","html-keyboard-response","272","334091","0.0-1.0-369.0","0","0","96962","","null","","","null","40","","","","","","","","","","","","","","","NaN",""
"","S1","","html-keyboard-response","273","334347","0.0-1.0-371.0","0","0","96962","","null","","","null","41","","","","","","","","","","","","","","","",""
"","ISI","","html-keyboard-response","274","334510","0.0-1.0-372.0","0","0","96962","","null","","","null","41","NaN","","","","","","","","","","","","","","",""
"","S2","","html-keyboard-response","275","334772","0.0-1.0-373.0","0","0","96962","","null","","","null","41","","NaN","","","","","","","","","","","","","",""
"","response","","html-keyboard-response","276","335052","0.0-1.0-374.0-0.0","0","0","96962","","276","","","75","41","","","1","41","training","adjacent","DC","4","3","L.jpg","P.jpg","0","0","1","",""
"","feedback","","html-keyboard-response","277","336056","0.0-1.0-375.0-0.0","0","0","96962","","null","","","null","41","","","","","","","","","","","","","","","",""
"","ITI","","html-keyboard-response","278","337062","0.0-1.0-378.0","0","0","96962","","null","","","null","41","","","","","","","","","","","","","","","NaN",""
"","S1","","html-keyboard-response","279","337331","0.0-1.0-380.0","0","0","96962","","null","","","null","42","","","","","","","","","","","","","","","",""
"","ISI","","html-keyboard-response","280","337491","0.0-1.0-381.0","0","0","96962","","null","","","null","42","NaN","","","","","","","","","","","","","","",""
"","S2","","html-keyboard-response","281","337754","0.0-1.0-382.0","0","0","96962","","null","","","null","42","","NaN","","","","","","","","","","","","","",""
"","response","","html-keyboard-response","282","338055","0.0-1.0-383.0-0.0","0","0","96962","","299","","","68","42","","","1","42","training","adjacent","ED","5","4","O.jpg","L.jpg","1","0","0","",""
"","feedback","","html-keyboard-response","283","339062","0.0-1.0-384.0-0.0","0","0","96962","","null","","","null","42","","","","","","","","","","","","","","","",""
"","time_out","","html-keyboard-response","284","341073","0.0-1.0-386.0-0.0","0","0","96962","","null","","","null","42","","","","","","","","","","","","","","","",""
"","ITI","","html-keyboard-response","285","342078","0.0-1.0-387.0","0","0","96962","","null","","","null","42","","","","","","","","","","","","","","","NaN",""
"","S1","","html-keyboard-response","286","342338","0.0-1.0-389.0","0","0","96962","","null","","","null","43","","","","","","","","","","","","","","","",""
"","ISI","","html-keyboard-response","287","342498","0.0-1.0-390.0","0","0","96962","","null","","","null","43","NaN","","","","","","","","","","","","","","",""
"","S2","","html-keyboard-response","288","342760","0.0-1.0-391.0","0","0","96962","","null","","","null","43","","NaN","","","","","","","","","","","","","",""
"","response","","html-keyboard-response","289","342991","0.0-1.0-392.0-0.0","0","0","96962","","227","","","75","43","","","1","43","training","adjacent","BC","2","3","M.jpg","P.jpg","0","1","0","",""
"","feedback","","html-keyboard-response","290","343994","0.0-1.0-393.0-0.0","0","0","96962","","null","","","null","43","","","","","","","","","","","","","","","",""
"","time_out","","html-keyboard-response","291","346003","0.0-1.0-395.0-0.0","0","0","96962","","null","","","null","43","","","","","","","","","","","","","","","",""
"","ITI","","html-keyboard-response","292","347008","0.0-1.0-396.0","0","0","96962","","null","","","null","43","","","","","","","","","","","","","","","NaN",""
"","S1","","html-keyboard-response","293","347268","0.0-1.0-398.0","0","0","96962","","null","","","null","44","","","","","","","","","","","","","","","",""
"","ISI","","html-keyboard-response","294","347440","0.0-1.0-399.0","0","0","96962","","null","","","null","44","NaN","","","","","","","","","","","","","","",""
"","S2","","html-keyboard-response","295","347700","0.0-1.0-400.0","0","0","96962","","null","","","null","44","","NaN","","","","","","","","","","","","","",""
"","response","","html-keyboard-response","296","347922","0.0-1.0-401.0-0.0","0","0","96962","","217","","","68","44","","","1","44","training","adjacent","EF","5","6","O.jpg","Q.jpg","1","1","1","",""
"","feedback","","html-keyboard-response","297","348929","0.0-1.0-402.0-0.0","0","0","96962","","null","","","null","44","","","","","","","","","","","","","","","",""
"","ITI","","html-keyboard-response","298","349941","0.0-1.0-405.0","0","0","96962","","385","","","68","44","","","","","","","","","","","","","","","d",""
"","S1","","html-keyboard-response","299","350198","0.0-1.0-407.0","0","0","96962","","null","","","null","45","","","","","","","","","","","","","","","",""
"","ISI","","html-keyboard-response","300","350359","0.0-1.0-408.0","0","0","96962","","null","","","null","45","NaN","","","","","","","","","","","","","","",""
"","S2","","html-keyboard-response","301","350616","0.0-1.0-409.0","0","0","96962","","null","","","null","45","","NaN","","","","","","","","","","","","","",""
"","response","","html-keyboard-response","302","350924","0.0-1.0-410.0-0.0","0","0","96962","","305","","","68","45","","","1","45","training","adjacent","DE","4","5","L.jpg","O.jpg","1","1","1","",""
"","feedback","","html-keyboard-response","303","351932","0.0-1.0-411.0-0.0","0","0","96962","","null","","","null","45","","","","","","","","","","","","","","","",""
"","ITI","","html-keyboard-response","304","352946","0.0-1.0-414.0","0","0","96962","","null","","","null","45","","","","","","","","","","","","","","","NaN",""
"","S1","","html-keyboard-response","305","353211","0.0-1.0-416.0","0","0","96962","","null","","","null","46","","","","","","","","","","","","","","","",""
"","ISI","","html-keyboard-response","306","353370","0.0-1.0-417.0","0","0","96962","","null","","","null","46","NaN","","","","","","","","","","","","","","",""
"","S2","","html-keyboard-response","307","353626","0.0-1.0-418.0","0","0","96962","","null","","","null","46","","NaN","","","","","","","","","","","","","",""
"","response","","html-keyboard-response","308","353985","0.0-1.0-419.0-0.0","0","0","96962","","354","","","68","46","","","1","46","training","adjacent","FE","6","5","Q.jpg","O.jpg","1","0","0","",""
"","feedback","","html-keyboard-response","309","354996","0.0-1.0-420.0-0.0","0","0","96962","","null","","","null","46","","","","","","","","","","","","","","","",""
"","time_out","","html-keyboard-response","310","357009","0.0-1.0-422.0-0.0","0","0","96962","","null","","","null","46","","","","","","","","","","","","","","","",""
"","ITI","","html-keyboard-response","311","358013","0.0-1.0-423.0","0","0","96962","","null","","","null","46","","","","","","","","","","","","","","","NaN",""
"","S1","","html-keyboard-response","312","358270","0.0-1.0-425.0","0","0","96962","","null","","","null","47","","","","","","","","","","","","","","","",""
"","ISI","","html-keyboard-response","313","358438","0.0-1.0-426.0","0","0","96962","","null","","","null","47","NaN","","","","","","","","","","","","","","",""
"","S2","","html-keyboard-response","314","358699","0.0-1.0-427.0","0","0","96962","","null","","","null","47","","NaN","","","","","","","","","","","","","",""
"","response","","html-keyboard-response","315","359431","0.0-1.0-428.0-0.0","0","0","96962","","730","","","68","47","","","1","47","training","adjacent","AB","1","2","R.jpg","M.jpg","1","1","1","",""
"","feedback","","html-keyboard-response","316","360442","0.0-1.0-429.0-0.0","0","0","96962","","null","","","null","47","","","","","","","","","","","","","","","",""
"","ITI","","html-keyboard-response","317","361448","0.0-1.0-432.0","0","0","96962","","null","","","null","47","","","","","","","","","","","","","","","NaN",""
"","block_over","","html-keyboard-response","318","367412","0.0-1.0-433.0-0.0","0","0","96962","","5959","","","32","47","","","","","","","","","","","","","","","",""
"","S1","","html-keyboard-response","319","367672","0.0-1.0-434.0","0","0","96962","","null","","","null","48","","","","","","","","","","","","","","","",""
"","ISI","","html-keyboard-response","320","367830","0.0-1.0-435.0","0","0","96962","","null","","","null","48","NaN","","","","","","","","","","","","","","",""
"","S2","","html-keyboard-response","321","368093","0.0-1.0-436.0","0","0","96962","","null","","","null","48","","NaN","","","","","","","","","","","","","",""
"","response","","html-keyboard-response","322","368196","0.0-1.0-437.0-0.0","0","0","96962","","99","","","75","48","","","2","48","training","adjacent","FE","6","5","Q.jpg","O.jpg","0","0","1","",""
"","feedback","","html-keyboard-response","323","369209","0.0-1.0-438.0-0.0","0","0","96962","","null","","","null","48","","","","","","","","","","","","","","","",""
"","ITI","","html-keyboard-response","324","370218","0.0-1.0-441.0","0","0","96962","","null","","","null","48","","","","","","","","","","","","","","","NaN",""
"","S1","","html-keyboard-response","325","370476","0.0-1.0-443.0","0","0","96962","","null","","","null","49","","","","","","","","","","","","","","","",""
"","ISI","","html-keyboard-response","326","370640","0.0-1.0-444.0","0","0","96962","","null","","","null","49","NaN","","","","","","","","","","","","","","",""
"","S2","","html-keyboard-response","327","370899","0.0-1.0-445.0","0","0","96962","","null","","","null","49","","NaN","","","","","","","","","","","","","",""
"","response","","html-keyboard-response","328","371267","0.0-1.0-446.0-0.0","0","0","96962","","364","","","68","49","","","2","49","training","adjacent","AB","1","2","R.jpg","M.jpg","1","1","1","",""
"","feedback","","html-keyboard-response","329","372284","0.0-1.0-447.0-0.0","0","0","96962","","null","","","null","49","","","","","","","","","","","","","","","",""
"","ITI","","html-keyboard-response","330","373296","0.0-1.0-450.0","0","0","96962","","null","","","null","49","","","","","","","","","","","","","","","NaN",""
"","S1","","html-keyboard-response","331","373555","0.0-1.0-452.0","0","0","96962","","null","","","null","50","","","","","","","","","","","","","","","",""
"","ISI","","html-keyboard-response","332","373712","0.0-1.0-453.0","0","0","96962","","null","","","null","50","NaN","","","","","","","","","","","","","","",""
"","S2","","html-keyboard-response","333","373976","0.0-1.0-454.0","0","0","96962","","null","","","null","50","","NaN","","","","","","","","","","","","","",""
"","response","","html-keyboard-response","334","374355","0.0-1.0-455.0-0.0","0","0","96962","","376","","","75","50","","","2","50","training","adjacent","DE","4","5","L.jpg","O.jpg","0","1","0","",""
"","feedback","","html-keyboard-response","335","375366","0.0-1.0-456.0-0.0","0","0","96962","","null","","","null","50","","","","","","","","","","","","","","","",""
"","time_out","","html-keyboard-response","336","377410","0.0-1.0-458.0-0.0","0","0","96962","","null","","","null","50","","","","","","","","","","","","","","","",""
"","ITI","","html-keyboard-response","337","378424","0.0-1.0-459.0","0","0","96962","","null","","","null","50","","","","","","","","","","","","","","","NaN",""
"","S1","","html-keyboard-response","338","378688","0.0-1.0-461.0","0","0","96962","","null","","","null","51","","","","","","","","","","","","","","","",""
"","ISI","","html-keyboard-response","339","378843","0.0-1.0-462.0","0","0","96962","","null","","","null","51","NaN","","","","","","","","","","","","","","",""
"","S2","","html-keyboard-response","340","379100","0.0-1.0-463.0","0","0","96962","","null","","","null","51","","NaN","","","","","","","","","","","","","",""
"","response","","html-keyboard-response","341","379421","0.0-1.0-464.0-0.0","0","0","96962","","318","","","68","51","","","2","51","training","adjacent","CB","3","2","P.jpg","M.jpg","1","0","0","",""
"","feedback","","html-keyboard-response","342","380428","0.0-1.0-465.0-0.0","0","0","96962","","null","","","null","51","","","","","","","","","","","","","","","",""
"","time_out","","html-keyboard-response","343","382432","0.0-1.0-467.0-0.0","0","0","96962","","null","","","null","51","","","","","","","","","","","","","","","",""
"","ITI","","html-keyboard-response","344","383443","0.0-1.0-468.0","0","0","96962","","null","","","null","51","","","","","","","","","","","","","","","NaN",""
"","S1","","html-keyboard-response","345","383698","0.0-1.0-470.0","0","0","96962","","null","","","null","52","","","","","","","","","","","","","","","",""
"","ISI","","html-keyboard-response","346","383857","0.0-1.0-471.0","0","0","96962","","null","","","null","52","NaN","","","","","","","","","","","","","","",""
"","S2","","html-keyboard-response","347","384120","0.0-1.0-472.0","0","0","96962","","null","","","null","52","","NaN","","","","","","","","","","","","","",""
"","response","","html-keyboard-response","348","384131","0.0-1.0-473.0-0.0","0","0","96962","","7","","","75","52","","","2","52","training","adjacent","EF","5","6","O.jpg","Q.jpg","0","1","0","",""
"","feedback","","html-keyboard-response","349","385141","0.0-1.0-474.0-0.0","0","0","96962","","null","","","null","52","","","","","","","","","","","","","","","",""
"","time_out","","html-keyboard-response","350","387151","0.0-1.0-476.0-0.0","0","0","96962","","null","","","null","52","","","","","","","","","","","","","","","",""
"","ITI","","html-keyboard-response","351","388156","0.0-1.0-477.0","0","0","96962","","null","","","null","52","","","","","","","","","","","","","","","NaN",""
"","S1","","html-keyboard-response","352","388410","0.0-1.0-479.0","0","0","96962","","null","","","null","53","","","","","","","","","","","","","","","",""
"","ISI","","html-keyboard-response","353","388571","0.0-1.0-480.0","0","0","96962","","null","","","null","53","NaN","","","","","","","","","","","","","","",""
"","S2","","html-keyboard-response","354","388827","0.0-1.0-481.0","0","0","96962","","null","","","null","53","","NaN","","","","","","","","","","","","","",""
"","response","","html-keyboard-response","355","388960","0.0-1.0-482.0-0.0","0","0","96962","","131","","","68","53","","","2","53","training","adjacent","DC","4","3","L.jpg","P.jpg","1","0","0","",""
"","feedback","","html-keyboard-response","356","389967","0.0-1.0-483.0-0.0","0","0","96962","","null","","","null","53","","","","","","","","","","","","","","","",""
"","time_out","","html-keyboard-response","357","391983","0.0-1.0-485.0-0.0","0","0","96962","","null","","","null","53","","","","","","","","","","","","","","","",""
"","ITI","","html-keyboard-response","358","392987","0.0-1.0-486.0","0","0","96962","","null","","","null","53","","","","","","","","","","","","","","","NaN",""
"","S1","","html-keyboard-response","359","393248","0.0-1.0-488.0","0","0","96962","","null","","","null","54","","","","","","","","","","","","","","","",""
"","ISI","","html-keyboard-response","360","393413","0.0-1.0-489.0","0","0","96962","","null","","","null","54","NaN","","","","","","","","","","","","","","",""
"","S2","","html-keyboard-response","361","393669","0.0-1.0-490.0","0","0","96962","","null","","","null","54","","NaN","","","","","","","","","","","","","",""
"","response","","html-keyboard-response","362","393723","0.0-1.0-491.0-0.0","0","0","96962","","50","","","75","54","","","2","54","training","adjacent","BC","2","3","M.jpg","P.jpg","0","1","0","",""
"","feedback","","html-keyboard-response","363","394733","0.0-1.0-492.0-0.0","0","0","96962","","null","","","null","54","","","","","","","","","","","","","","","",""
"","time_out","","html-keyboard-response","364","396740","0.0-1.0-494.0-0.0","0","0","96962","","null","","","null","54","","","","","","","","","","","","","","","",""
"","ITI","","html-keyboard-response","365","397753","0.0-1.0-495.0","0","0","96962","","null","","","null","54","","","","","","","","","","","","","","","NaN",""
"","S1","","html-keyboard-response","366","398009","0.0-1.0-497.0","0","0","96962","","null","","","null","55","","","","","","","","","","","","","","","",""
"","ISI","","html-keyboard-response","367","398163","0.0-1.0-498.0","0","0","96962","","null","","","null","55","NaN","","","","","","","","","","","","","","",""
"","S2","","html-keyboard-response","368","398210","0.0-1.0-499.0","0","0","96962","","44","","","75","55","","k","2","55","training","adjacent","DC","4","3","L.jpg","P.jpg","0","0","1","",""
"","feedback","","html-keyboard-response","369","399215","0.0-1.0-501.0-0.0","0","0","96962","","null","","","null","55","","","","","","","","","","","","","","","",""
"","ITI","","html-keyboard-response","370","400224","0.0-1.0-504.0","0","0","96962","","null","","","null","55","","","","","","","","","","","","","","","NaN",""
"","S1","","html-keyboard-response","371","400492","0.0-1.0-506.0","0","0","96962","","null","","","null","56","","","","","","","","","","","","","","","",""
"","ISI","","html-keyboard-response","372","400650","0.0-1.0-507.0","0","0","96962","","null","","","null","56","NaN","","","","","","","","","","","","","","",""
"","S2","","html-keyboard-response","373","400907","0.0-1.0-508.0","0","0","96962","","null","","","null","56","","NaN","","","","","","","","","","","","","",""
"","response","","html-keyboard-response","374","401436","0.0-1.0-509.0-0.0","0","0","96962","","526","","","75","56","","","2","56","training","adjacent","CD","3","4","P.jpg","L.jpg","0","1","0","",""
"","feedback","","html-keyboard-response","375","402441","0.0-1.0-510.0-0.0","0","0","96962","","null","","","null","56","","","","","","","","","","","","","","","",""
"","time_out","","html-keyboard-response","376","404448","0.0-1.0-512.0-0.0","0","0","96962","","null","","","null","56","","","","","","","","","","","","","","","",""
"","ITI","","html-keyboard-response","377","405458","0.0-1.0-513.0","0","0","96962","","null","","","null","56","","","","","","","","","","","","","","","NaN",""
"","S1","","html-keyboard-response","378","405718","0.0-1.0-515.0","0","0","96962","","null","","","null","57","","","","","","","","","","","","","","","",""
"","ISI","","html-keyboard-response","379","405874","0.0-1.0-516.0","0","0","96962","","null","","","null","57","NaN","","","","","","","","","","","","","","",""
"","S2","","html-keyboard-response","380","406142","0.0-1.0-517.0","0","0","96962","","null","","","null","57","","NaN","","","","","","","","","","","","","",""
"","response","","html-keyboard-response","381","406537","0.0-1.0-518.0-0.0","0","0","96962","","392","","","68","57","","","2","57","training","adjacent","GF","7","6","N.jpg","Q.jpg","1","0","0","",""
"","feedback","","html-keyboard-response","382","407550","0.0-1.0-519.0-0.0","0","0","96962","","null","","","null","57","","","","","","","","","","","","","","","",""
"","time_out","","html-keyboard-response","383","409561","0.0-1.0-521.0-0.0","0","0","96962","","null","","","null","57","","","","","","","","","","","","","","","",""
"","ITI","","html-keyboard-response","384","410572","0.0-1.0-522.0","0","0","96962","","null","","","null","57","","","","","","","","","","","","","","","NaN",""
"","S1","","html-keyboard-response","385","410836","0.0-1.0-524.0","0","0","96962","","null","","","null","58","","","","","","","","","","","","","","","",""
"","ISI","","html-keyboard-response","386","410998","0.0-1.0-525.0","0","0","96962","","null","","","null","58","NaN","","","","","","","","","","","","","","",""
"","S2","","html-keyboard-response","387","411256","0.0-1.0-526.0","0","0","96962","","null","","","null","58","","NaN","","","","","","","","","","","","","",""
"","response","","html-keyboard-response","388","411635","0.0-1.0-527.0-0.0","0","0","96962","","374","","","75","58","","","2","58","training","adjacent","BA","2","1","M.jpg","R.jpg","0","0","1","",""
"","feedback","","html-keyboard-response","389","412652","0.0-1.0-528.0-0.0","0","0","96962","","null","","","null","58","","","","","","","","","","","","","","","",""
"","ITI","","html-keyboard-response","390","413673","0.0-1.0-531.0","0","0","96962","","null","","","null","58","","","","","","","","","","","","","","","NaN",""
"","S1","","html-keyboard-response","391","413931","0.0-1.0-533.0","0","0","96962","","null","","","null","59","","","","","","","","","","","","","","","",""
"","ISI","","html-keyboard-response","392","414098","0.0-1.0-534.0","0","0","96962","","null","","","null","59","NaN","","","","","","","","","","","","","","",""
"","S2","","html-keyboard-response","393","414363","0.0-1.0-535.0","0","0","96962","","null","","","null","59","","NaN","","","","","","","","","","","","","",""
"","response","","html-keyboard-response","394","415249","0.0-1.0-536.0-0.0","0","0","96962","","882","","","68","59","","","2","59","training","adjacent","GF","7","6","N.jpg","Q.jpg","1","0","0","",""
"","feedback","","html-keyboard-response","395","416262","0.0-1.0-537.0-0.0","0","0","96962","","null","","","null","59","","","","","","","","","","","","","","","",""
"","time_out","","html-keyboard-response","396","418269","0.0-1.0-539.0-0.0","0","0","96962","","null","","","null","59","","","","","","","","","","","","","","","",""
"","ITI","","html-keyboard-response","397","419275","0.0-1.0-540.0","0","0","96962","","null","","","null","59","","","","","","","","","","","","","","","NaN",""
"","S1","","html-keyboard-response","398","419530","0.0-1.0-542.0","0","0","96962","","null","","","null","60","","","","","","","","","","","","","","","",""
"","ISI","","html-keyboard-response","399","419686","0.0-1.0-543.0","0","0","96962","","null","","","null","60","NaN","","","","","","","","","","","","","","",""
"","S2","","html-keyboard-response","400","419949","0.0-1.0-544.0","0","0","96962","","null","","","null","60","","NaN","","","","","","","","","","","","","",""
"","response","","html-keyboard-response","401","420267","0.0-1.0-545.0-0.0","0","0","96962","","314","","","75","60","","","2","60","training","adjacent","DC","4","3","L.jpg","P.jpg","0","0","1","",""
"","feedback","","html-keyboard-response","402","421275","0.0-1.0-546.0-0.0","0","0","96962","","null","","","null","60","","","","","","","","","","","","","","","",""
"","ITI","","html-keyboard-response","403","422287","0.0-1.0-549.0","0","0","96962","","null","","","null","60","","","","","","","","","","","","","","","NaN",""
"","S1","","html-keyboard-response","404","422550","0.0-1.0-551.0","0","0","96962","","null","","","null","61","","","","","","","","","","","","","","","",""
"","ISI","","html-keyboard-response","405","422714","0.0-1.0-552.0","0","0","96962","","null","","","null","61","NaN","","","","","","","","","","","","","","",""
"","S2","","html-keyboard-response","406","422971","0.0-1.0-553.0","0","0","96962","","null","","","null","61","","NaN","","","","","","","","","","","","","",""
"","response","","html-keyboard-response","407","423576","0.0-1.0-554.0-0.0","0","0","96962","","601","","","68","61","","","2","61","training","adjacent","FG","6","7","Q.jpg","N.jpg","1","1","1","",""
"","feedback","","html-keyboard-response","408","424583","0.0-1.0-555.0-0.0","0","0","96962","","null","","","null","61","","","","","","","","","","","","","","","",""
"","ITI","","html-keyboard-response","409","425591","0.0-1.0-558.0","0","0","96962","","null","","","null","61","","","","","","","","","","","","","","","NaN",""
"","S1","","html-keyboard-response","410","425849","0.0-1.0-560.0","0","0","96962","","null","","","null","62","","","","","","","","","","","","","","","",""
"","ISI","","html-keyboard-response","411","426010","0.0-1.0-561.0","0","0","96962","","null","","","null","62","NaN","","","","","","","","","","","","","","",""
"","S2","","html-keyboard-response","412","426279","0.0-1.0-562.0","0","0","96962","","null","","","null","62","","NaN","","","","","","","","","","","","","",""
"","response","","html-keyboard-response","413","426633","0.0-1.0-563.0-0.0","0","0","96962","","351","","","68","62","","","2","62","training","adjacent","FE","6","5","Q.jpg","O.jpg","1","0","0","",""
"","feedback","","html-keyboard-response","414","427647","0.0-1.0-564.0-0.0","0","0","96962","","null","","","null","62","","","","","","","","","","","","","","","",""
"","time_out","","html-keyboard-response","415","429655","0.0-1.0-566.0-0.0","0","0","96962","","null","","","null","62","","","","","","","","","","","","","","","",""
"","ITI","","html-keyboard-response","416","430667","0.0-1.0-567.0","0","0","96962","","null","","","null","62","","","","","","","","","","","","","","","NaN",""
"","S1","","html-keyboard-response","417","430924","0.0-1.0-569.0","0","0","96962","","null","","","null","63","","","","","","","","","","","","","","","",""
"","ISI","","html-keyboard-response","418","431079","0.0-1.0-570.0","0","0","96962","","null","","","null","63","NaN","","","","","","","","","","","","","","",""
"","S2","","html-keyboard-response","419","431343","0.0-1.0-571.0","0","0","96962","","null","","","null","63","","NaN","","","","","","","","","","","","","",""
"","response","","html-keyboard-response","420","431612","0.0-1.0-572.0-0.0","0","0","96962","","266","","","75","63","","","2","63","training","adjacent","FG","6","7","Q.jpg","N.jpg","0","1","0","",""
"","feedback","","html-keyboard-response","421","432625","0.0-1.0-573.0-0.0","0","0","96962","","null","","","null","63","","","","","","","","","","","","","","","",""
"","time_out","","html-keyboard-response","422","434630","0.0-1.0-575.0-0.0","0","0","96962","","null","","","null","63","","","","","","","","","","","","","","","",""
"","ITI","","html-keyboard-response","423","435637","0.0-1.0-576.0","0","0","96962","","null","","","null","63","","","","","","","","","","","","","","","NaN",""
"","S1","","html-keyboard-response","424","435895","0.0-1.0-578.0","0","0","96962","","null","","","null","64","","","","","","","","","","","","","","","",""
"","ISI","","html-keyboard-response","425","436049","0.0-1.0-579.0","0","0","96962","","null","","","null","64","NaN","","","","","","","","","","","","","","",""
"","S2","","html-keyboard-response","426","436304","0.0-1.0-580.0","0","0","96962","","null","","","null","64","","NaN","","","","","","","","","","","","","",""
"","response","","html-keyboard-response","427","436734","0.0-1.0-581.0-0.0","0","0","96962","","425","","","68","64","","","2","64","training","adjacent","EF","5","6","O.jpg","Q.jpg","1","1","1","",""
"","feedback","","html-keyboard-response","428","437741","0.0-1.0-582.0-0.0","0","0","96962","","null","","","null","64","","","","","","","","","","","","","","","",""
"","ITI","","html-keyboard-response","429","438751","0.0-1.0-585.0","0","0","96962","","null","","","null","64","","","","","","","","","","","","","","","NaN",""
"","S1","","html-keyboard-response","430","439007","0.0-1.0-587.0","0","0","96962","","null","","","null","65","","","","","","","","","","","","","","","",""
"","ISI","","html-keyboard-response","431","439169","0.0-1.0-588.0","0","0","96962","","null","","","null","65","NaN","","","","","","","","","","","","","","",""
"","S2","","html-keyboard-response","432","439436","0.0-1.0-589.0","0","0","96962","","null","","","null","65","","NaN","","","","","","","","","","","","","",""
"","response","","html-keyboard-response","433","439833","0.0-1.0-590.0-0.0","0","0","96962","","391","","","68","65","","","2","65","training","adjacent","ED","5","4","O.jpg","L.jpg","1","0","0","",""
"","feedback","","html-keyboard-response","434","440844","0.0-1.0-591.0-0.0","0","0","96962","","null","","","null","65","","","","","","","","","","","","","","","",""
"","time_out","","html-keyboard-response","435","442860","0.0-1.0-593.0-0.0","0","0","96962","","null","","","null","65","","","","","","","","","","","","","","","",""
"","ITI","","html-keyboard-response","436","443872","0.0-1.0-594.0","0","0","96962","","null","","","null","65","","","","","","","","","","","","","","","NaN",""
"","S1","","html-keyboard-response","437","444136","0.0-1.0-596.0","0","0","96962","","null","","","null","66","","","","","","","","","","","","","","","",""
"","ISI","","html-keyboard-response","438","444295","0.0-1.0-597.0","0","0","96962","","null","","","null","66","NaN","","","","","","","","","","","","","","",""
"","S2","","html-keyboard-response","439","444561","0.0-1.0-598.0","0","0","96962","","null","","","null","66","","NaN","","","","","","","","","","","","","",""
"","response","","html-keyboard-response","440","444810","0.0-1.0-599.0-0.0","0","0","96962","","244","","","75","66","","","2","66","training","adjacent","BA","2","1","M.jpg","R.jpg","0","0","1","",""
"","feedback","","html-keyboard-response","441","445818","0.0-1.0-600.0-0.0","0","0","96962","","null","","","null","66","","","","","","","","","","","","","","","",""
"","ITI","","html-keyboard-response","442","446829","0.0-1.0-603.0","0","0","96962","","null","","","null","66","","","","","","","","","","","","","","","NaN",""
"","S1","","html-keyboard-response","443","447091","0.0-1.0-605.0","0","0","96962","","null","","","null","67","","","","","","","","","","","","","","","",""
"","ISI","","html-keyboard-response","444","447247","0.0-1.0-606.0","0","0","96962","","null","","","null","67","NaN","","","","","","","","","","","","","","",""
"","S2","","html-keyboard-response","445","447515","0.0-1.0-607.0","0","0","96962","","null","","","null","67","","NaN","","","","","","","","","","","","","",""
"","response","","html-keyboard-response","446","448083","0.0-1.0-608.0-0.0","0","0","96962","","565","","","75","67","","","2","67","training","adjacent","CB","3","2","P.jpg","M.jpg","0","0","1","",""
"","feedback","","html-keyboard-response","447","449092","0.0-1.0-609.0-0.0","0","0","96962","","null","","","null","67","","","","","","","","","","","","","","","",""
"","ITI","","html-keyboard-response","448","450110","0.0-1.0-612.0","0","0","96962","","null","","","null","67","","","","","","","","","","","","","","","NaN",""
"","S1","","html-keyboard-response","449","450372","0.0-1.0-614.0","0","0","96962","","null","","","null","68","","","","","","","","","","","","","","","",""
"","ISI","","html-keyboard-response","450","450529","0.0-1.0-615.0","0","0","96962","","null","","","null","68","NaN","","","","","","","","","","","","","","",""
"","S2","","html-keyboard-response","451","450792","0.0-1.0-616.0","0","0","96962","","null","","","null","68","","NaN","","","","","","","","","","","","","",""
"","response","","html-keyboard-response","452","451292","0.0-1.0-617.0-0.0","0","0","96962","","496","","","75","68","","","2","68","training","adjacent","BC","2","3","M.jpg","P.jpg","0","1","0","",""
"","feedback","","html-keyboard-response","453","452299","0.0-1.0-618.0-0.0","0","0","96962","","null","","","null","68","","","","","","","","","","","","","","","",""
"","time_out","","html-keyboard-response","454","454328","0.0-1.0-620.0-0.0","0","0","96962","","null","","","null","68","","","","","","","","","","","","","","","",""
"","ITI","","html-keyboard-response","455","455339","0.0-1.0-621.0","0","0","96962","","null","","","null","68","","","","","","","","","","","","","","","NaN",""
"","S1","","html-keyboard-response","456","455599","0.0-1.0-623.0","0","0","96962","","null","","","null","69","","","","","","","","","","","","","","","",""
"","ISI","","html-keyboard-response","457","455760","0.0-1.0-624.0","0","0","96962","","null","","","null","69","NaN","","","","","","","","","","","","","","",""
"","S2","","html-keyboard-response","458","456020","0.0-1.0-625.0","0","0","96962","","null","","","null","69","","NaN","","","","","","","","","","","","","",""
"","response","","html-keyboard-response","459","456144","0.0-1.0-626.0-0.0","0","0","96962","","122","","","75","69","","","2","69","training","adjacent","BA","2","1","M.jpg","R.jpg","0","0","1","",""
"","feedback","","html-keyboard-response","460","457151","0.0-1.0-627.0-0.0","0","0","96962","","null","","","null","69","","","","","","","","","","","","","","","",""
"","ITI","","html-keyboard-response","461","458155","0.0-1.0-630.0","0","0","96962","","null","","","null","69","","","","","","","","","","","","","","","NaN",""
"","S1","","html-keyboard-response","462","458411","0.0-1.0-632.0","0","0","96962","","null","","","null","70","","","","","","","","","","","","","","","",""
"","ISI","","html-keyboard-response","463","458580","0.0-1.0-633.0","0","0","96962","","null","","","null","70","NaN","","","","","","","","","","","","","","",""
"","S2","","html-keyboard-response","464","458839","0.0-1.0-634.0","0","0","96962","","null","","","null","70","","NaN","","","","","","","","","","","","","",""
"","response","","html-keyboard-response","465","459080","0.0-1.0-635.0-0.0","0","0","96962","","237","","","75","70","","","2","70","training","adjacent","DE","4","5","L.jpg","O.jpg","0","1","0","",""
"","feedback","","html-keyboard-response","466","460097","0.0-1.0-636.0-0.0","0","0","96962","","null","","","null","70","","","","","","","","","","","","","","","",""
"","time_out","","html-keyboard-response","467","462106","0.0-1.0-638.0-0.0","0","0","96962","","null","","","null","70","","","","","","","","","","","","","","","",""
"","ITI","","html-keyboard-response","468","463113","0.0-1.0-639.0","0","0","96962","","null","","","null","70","","","","","","","","","","","","","","","NaN",""
"","S1","","html-keyboard-response","469","463376","0.0-1.0-641.0","0","0","96962","","null","","","null","71","","","","","","","","","","","","","","","",""
"","ISI","","html-keyboard-response","470","463538","0.0-1.0-642.0","0","0","96962","","null","","","null","71","NaN","","","","","","","","","","","","","","",""
"","S2","","html-keyboard-response","471","463800","0.0-1.0-643.0","0","0","96962","","null","","","null","71","","NaN","","","","","","","","","","","","","",""
"","response","","html-keyboard-response","472","464232","0.0-1.0-644.0-0.0","0","0","96962","","428","","","75","71","","","2","71","training","adjacent","FG","6","7","Q.jpg","N.jpg","0","1","0","",""
"","feedback","","html-keyboard-response","473","465239","0.0-1.0-645.0-0.0","0","0","96962","","null","","","null","71","","","","","","","","","","","","","","","",""
"","time_out","","html-keyboard-response","474","467247","0.0-1.0-647.0-0.0","0","0","96962","","null","","","null","71","","","","","","","","","","","","","","","",""
"","ITI","","html-keyboard-response","475","468259","0.0-1.0-648.0","0","0","96962","","null","","","null","71","","","","","","","","","","","","","","","NaN",""
"","S1","","html-keyboard-response","476","468518","0.0-1.0-650.0","0","0","96962","","null","","","null","72","","","","","","","","","","","","","","","",""
"","ISI","","html-keyboard-response","477","468675","0.0-1.0-651.0","0","0","96962","","null","","","null","72","NaN","","","","","","","","","","","","","","",""
"","S2","","html-keyboard-response","478","468931","0.0-1.0-652.0","0","0","96962","","null","","","null","72","","NaN","","","","","","","","","","","","","",""
"","response","","html-keyboard-response","479","469170","0.0-1.0-653.0-0.0","0","0","96962","","235","","","75","72","","","2","72","training","adjacent","BC","2","3","M.jpg","P.jpg","0","1","0","",""
"","feedback","","html-keyboard-response","480","470180","0.0-1.0-654.0-0.0","0","0","96962","","null","","","null","72","","","","","","","","","","","","","","","",""
"","time_out","","html-keyboard-response","481","472190","0.0-1.0-656.0-0.0","0","0","96962","","null","","","null","72","","","","","","","","","","","","","","","",""
"","ITI","","html-keyboard-response","482","473203","0.0-1.0-657.0","0","0","96962","","null","","","null","72","","","","","","","","","","","","","","","NaN",""
"","S1","","html-keyboard-response","483","473463","0.0-1.0-659.0","0","0","96962","","null","","","null","73","","","","","","","","","","","","","","","",""
"","ISI","","html-keyboard-response","484","473624","0.0-1.0-660.0","0","0","96962","","null","","","null","73","NaN","","","","","","","","","","","","","","",""
"","S2","","html-keyboard-response","485","473880","0.0-1.0-661.0","0","0","96962","","null","","","null","73","","NaN","","","","","","","","","","","","","",""
"","response","","html-keyboard-response","486","474106","0.0-1.0-662.0-0.0","0","0","96962","","224","","","75","73","","","2","73","training","adjacent","ED","5","4","O.jpg","L.jpg","0","0","1","",""
"","feedback","","html-keyboard-response","487","475122","0.0-1.0-663.0-0.0","0","0","96962","","null","","","null","73","","","","","","","","","","","","","","","",""
"","ITI","","html-keyboard-response","488","476128","0.0-1.0-666.0","0","0","96962","","null","","","null","73","","","","","","","","","","","","","","","NaN",""
"","S1","","html-keyboard-response","489","476386","0.0-1.0-668.0","0","0","96962","","null","","","null","74","","","","","","","","","","","","","","","",""
"","ISI","","html-keyboard-response","490","476548","0.0-1.0-669.0","0","0","96962","","null","","","null","74","NaN","","","","","","","","","","","","","","",""
"","S2","","html-keyboard-response","491","476811","0.0-1.0-670.0","0","0","96962","","null","","","null","74","","NaN","","","","","","","","","","","","","",""
"","response","","html-keyboard-response","492","478048","0.0-1.0-671.0-0.0","0","0","96962","","1233","","","68","74","","","2","74","training","adjacent","BA","2","1","M.jpg","R.jpg","1","0","0","",""
"","feedback","","html-keyboard-response","493","479061","0.0-1.0-672.0-0.0","0","0","96962","","null","","","null","74","","","","","","","","","","","","","","","",""
"","time_out","","html-keyboard-response","494","481073","0.0-1.0-674.0-0.0","0","0","96962","","null","","","null","74","","","","","","","","","","","","","","","",""
"","ITI","","html-keyboard-response","495","482082","0.0-1.0-675.0","0","0","96962","","null","","","null","74","","","","","","","","","","","","","","","NaN",""
"","S1","","html-keyboard-response","496","482344","0.0-1.0-677.0","0","0","96962","","null","","","null","75","","","","","","","","","","","","","","","",""
"","ISI","","html-keyboard-response","497","482504","0.0-1.0-678.0","0","0","96962","","null","","","null","75","NaN","","","","","","","","","","","","","","",""
"","S2","","html-keyboard-response","498","482766","0.0-1.0-679.0","0","0","96962","","null","","","null","75","","NaN","","","","","","","","","","","","","",""
"","response","","html-keyboard-response","499","483055","0.0-1.0-680.0-0.0","0","0","96962","","285","","","75","75","","","2","75","training","adjacent","GF","7","6","N.jpg","Q.jpg","0","0","1","",""
"","feedback","","html-keyboard-response","500","484062","0.0-1.0-681.0-0.0","0","0","96962","","null","","","null","75","","","","","","","","","","","","","","","",""
"","ITI","","html-keyboard-response","501","485072","0.0-1.0-684.0","0","0","96962","","null","","","null","75","","","","","","","","","","","","","","","NaN",""
"","S1","","html-keyboard-response","502","485339","0.0-1.0-686.0","0","0","96962","","null","","","null","76","","","","","","","","","","","","","","","",""
"","ISI","","html-keyboard-response","503","485501","0.0-1.0-687.0","0","0","96962","","null","","","null","76","NaN","","","","","","","","","","","","","","",""
"","S2","","html-keyboard-response","504","485760","0.0-1.0-688.0","0","0","96962","","null","","","null","76","","NaN","","","","","","","","","","","","","",""
"","response","","html-keyboard-response","505","486062","0.0-1.0-689.0-0.0","0","0","96962","","299","","","75","76","","","2","76","training","adjacent","DC","4","3","L.jpg","P.jpg","0","0","1","",""
"","feedback","","html-keyboard-response","506","487070","0.0-1.0-690.0-0.0","0","0","96962","","null","","","null","76","","","","","","","","","","","","","","","",""
"","ITI","","html-keyboard-response","507","488079","0.0-1.0-693.0","0","0","96962","","null","","","null","76","","","","","","","","","","","","","","","NaN",""
"","S1","","html-keyboard-response","508","488334","0.0-1.0-695.0","0","0","96962","","null","","","null","77","","","","","","","","","","","","","","","",""
"","ISI","","html-keyboard-response","509","488497","0.0-1.0-696.0","0","0","96962","","null","","","null","77","NaN","","","","","","","","","","","","","","",""
"","S2","","html-keyboard-response","510","488754","0.0-1.0-697.0","0","0","96962","","null","","","null","77","","NaN","","","","","","","","","","","","","",""
"","response","","html-keyboard-response","511","488907","0.0-1.0-698.0-0.0","0","0","96962","","149","","","75","77","","","2","77","training","adjacent","FG","6","7","Q.jpg","N.jpg","0","1","0","",""
"","feedback","","html-keyboard-response","512","489915","0.0-1.0-699.0-0.0","0","0","96962","","null","","","null","77","","","","","","","","","","","","","","","",""
"","time_out","","html-keyboard-response","513","491924","0.0-1.0-701.0-0.0","0","0","96962","","null","","","null","77","","","","","","","","","","","","","","","",""
"","ITI","","html-keyboard-response","514","492934","0.0-1.0-702.0","0","0","96962","","null","","","null","77","","","","","","","","","","","","","","","NaN",""
"","S1","","html-keyboard-response","515","493195","0.0-1.0-704.0","0","0","96962","","null","","","null","78","","","","","","","","","","","","","","","",""
"","ISI","","html-keyboard-response","516","493355","0.0-1.0-705.0","0","0","96962","","null","","","null","78","NaN","","","","","","","","","","","","","","",""
"","S2","","html-keyboard-response","517","493611","0.0-1.0-706.0","0","0","96962","","null","","","null","78","","NaN","","","","","","","","","","","","","",""
"","response","","html-keyboard-response","518","493678","0.0-1.0-707.0-0.0","0","0","96962","","64","","","75","78","","","2","78","training","adjacent","DE","4","5","L.jpg","O.jpg","0","1","0","",""
"","feedback","","html-keyboard-response","519","494684","0.0-1.0-708.0-0.0","0","0","96962","","null","","","null","78","","","","","","","","","","","","","","","",""
"","time_out","","html-keyboard-response","520","496696","0.0-1.0-710.0-0.0","0","0","96962","","null","","","null","78","","","","","","","","","","","","","","","",""
"","ITI","","html-keyboard-response","521","497703","0.0-1.0-711.0","0","0","96962","","null","","","null","78","","","","","","","","","","","","","","","NaN",""
"","S1","","html-keyboard-response","522","497962","0.0-1.0-713.0","0","0","96962","","null","","","null","79","","","","","","","","","","","","","","","",""
"","ISI","","html-keyboard-response","523","498121","0.0-1.0-714.0","0","0","96962","","null","","","null","79","NaN","","","","","","","","","","","","","","",""
"","S2","","html-keyboard-response","524","498379","0.0-1.0-715.0","0","0","96962","","null","","","null","79","","NaN","","","","","","","","","","","","","",""
"","response","","html-keyboard-response","525","498657","0.0-1.0-716.0-0.0","0","0","96962","","274","","","75","79","","","2","79","training","adjacent","CB","3","2","P.jpg","M.jpg","0","0","1","",""
"","feedback","","html-keyboard-response","526","499666","0.0-1.0-717.0-0.0","0","0","96962","","null","","","null","79","","","","","","","","","","","","","","","",""
"","ITI","","html-keyboard-response","527","500674","0.0-1.0-720.0","0","0","96962","","null","","","null","79","","","","","","","","","","","","","","","NaN",""
"","S1","","html-keyboard-response","528","500934","0.0-1.0-722.0","0","0","96962","","null","","","null","80","","","","","","","","","","","","","","","",""
"","ISI","","html-keyboard-response","529","501103","0.0-1.0-723.0","0","0","96962","","null","","","null","80","NaN","","","","","","","","","","","","","","",""
"","S2","","html-keyboard-response","530","501362","0.0-1.0-724.0","0","0","96962","","null","","","null","80","","NaN","","","","","","","","","","","","","",""
"","response","","html-keyboard-response","531","501652","0.0-1.0-725.0-0.0","0","0","96962","","285","","","75","80","","","2","80","training","adjacent","CD","3","4","P.jpg","L.jpg","0","1","0","",""
"","feedback","","html-keyboard-response","532","502674","0.0-1.0-726.0-0.0","0","0","96962","","null","","","null","80","","","","","","","","","","","","","","","",""
"","time_out","","html-keyboard-response","533","504682","0.0-1.0-728.0-0.0","0","0","96962","","null","","","null","80","","","","","","","","","","","","","","","",""
"","ITI","","html-keyboard-response","534","505694","0.0-1.0-729.0","0","0","96962","","null","","","null","80","","","","","","","","","","","","","","","NaN",""
"","S1","","html-keyboard-response","535","505955","0.0-1.0-731.0","0","0","96962","","null","","","null","81","","","","","","","","","","","","","","","",""
"","ISI","","html-keyboard-response","536","506116","0.0-1.0-732.0","0","0","96962","","134","","","75","81","k","","","","","","","","","","","","","","",""
"","S2","","html-keyboard-response","537","506375","0.0-1.0-733.0","0","0","96962","","null","","","null","81","","NaN","","","","","","","","","","","","","",""
"","response","","html-keyboard-response","538","506833","0.0-1.0-734.0-0.0","0","0","96962","","453","","","75","81","","","2","81","training","adjacent","EF","5","6","O.jpg","Q.jpg","0","1","0","",""
"","feedback","","html-keyboard-response","539","507846","0.0-1.0-735.0-0.0","0","0","96962","","null","","","null","81","","","","","","","","","","","","","","","",""
"","time_out","","html-keyboard-response","540","509856","0.0-1.0-737.0-0.0","0","0","96962","","null","","","null","81","","","","","","","","","","","","","","","",""
"","ITI","","html-keyboard-response","541","510871","0.0-1.0-738.0","0","0","96962","","905","","","75","81","","","","","","","","","","","","","","","k",""
"","S1","","html-keyboard-response","542","511136","0.0-1.0-740.0","0","0","96962","","null","","","null","82","","","","","","","","","","","","","","","",""
"","ISI","","html-keyboard-response","543","511291","0.0-1.0-741.0","0","0","96962","","null","","","null","82","NaN","","","","","","","","","","","","","","",""
"","S2","","html-keyboard-response","544","511553","0.0-1.0-742.0","0","0","96962","","null","","","null","82","","NaN","","","","","","","","","","","","","",""
"","response","","html-keyboard-response","545","512019","0.0-1.0-743.0-0.0","0","0","96962","","463","","","68","82","","","2","82","training","adjacent","ED","5","4","O.jpg","L.jpg","1","0","0","",""
"","feedback","","html-keyboard-response","546","513028","0.0-1.0-744.0-0.0","0","0","96962","","null","","","null","82","","","","","","","","","","","","","","","",""
"","time_out","","html-keyboard-response","547","515032","0.0-1.0-746.0-0.0","0","0","96962","","null","","","null","82","","","","","","","","","","","","","","","",""
"","ITI","","html-keyboard-response","548","516041","0.0-1.0-747.0","0","0","96962","","null","","","null","82","","","","","","","","","","","","","","","NaN",""
"","S1","","html-keyboard-response","549","516306","0.0-1.0-749.0","0","0","96962","","null","","","null","83","","","","","","","","","","","","","","","",""
"","ISI","","html-keyboard-response","550","516463","0.0-1.0-750.0","0","0","96962","","null","","","null","83","NaN","","","","","","","","","","","","","","",""
"","S2","","html-keyboard-response","551","516723","0.0-1.0-751.0","0","0","96962","","null","","","null","83","","NaN","","","","","","","","","","","","","",""
"","response","","html-keyboard-response","552","517276","0.0-1.0-752.0-0.0","0","0","96962","","549","","","68","83","","","2","83","training","adjacent","AB","1","2","R.jpg","M.jpg","1","1","1","",""
"","feedback","","html-keyboard-response","553","518283","0.0-1.0-753.0-0.0","0","0","96962","","null","","","null","83","","","","","","","","","","","","","","","",""
"","ITI","","html-keyboard-response","554","519289","0.0-1.0-756.0","0","0","96962","","null","","","null","83","","","","","","","","","","","","","","","NaN",""
"","S1","","html-keyboard-response","555","519552","0.0-1.0-758.0","0","0","96962","","null","","","null","84","","","","","","","","","","","","","","","",""
"","ISI","","html-keyboard-response","556","519714","0.0-1.0-759.0","0","0","96962","","null","","","null","84","NaN","","","","","","","","","","","","","","",""
"","S2","","html-keyboard-response","557","519972","0.0-1.0-760.0","0","0","96962","","null","","","null","84","","NaN","","","","","","","","","","","","","",""
"","response","","html-keyboard-response","558","520349","0.0-1.0-761.0-0.0","0","0","96962","","373","","","68","84","","","2","84","training","adjacent","FE","6","5","Q.jpg","O.jpg","1","0","0","",""
"","feedback","","html-keyboard-response","559","521360","0.0-1.0-762.0-0.0","0","0","96962","","null","","","null","84","","","","","","","","","","","","","","","",""
"","time_out","","html-keyboard-response","560","523375","0.0-1.0-764.0-0.0","0","0","96962","","null","","","null","84","","","","","","","","","","","","","","","",""
"","ITI","","html-keyboard-response","561","524385","0.0-1.0-765.0","0","0","96962","","null","","","null","84","","","","","","","","","","","","","","","NaN",""
"","S1","","html-keyboard-response","562","524648","0.0-1.0-767.0","0","0","96962","","null","","","null","85","","","","","","","","","","","","","","","",""
"","ISI","","html-keyboard-response","563","524812","0.0-1.0-768.0","0","0","96962","","null","","","null","85","NaN","","","","","","","","","","","","","","",""
"","S2","","html-keyboard-response","564","525070","0.0-1.0-769.0","0","0","96962","","null","","","null","85","","NaN","","","","","","","","","","","","","",""
"","response","","html-keyboard-response","565","525408","0.0-1.0-770.0-0.0","0","0","96962","","335","","","75","85","","","2","85","training","adjacent","FE","6","5","Q.jpg","O.jpg","0","0","1","",""
"","feedback","","html-keyboard-response","566","526416","0.0-1.0-771.0-0.0","0","0","96962","","null","","","null","85","","","","","","","","","","","","","","","",""
"","ITI","","html-keyboard-response","567","527422","0.0-1.0-774.0","0","0","96962","","null","","","null","85","","","","","","","","","","","","","","","NaN",""
"","S1","","html-keyboard-response","568","527678","0.0-1.0-776.0","0","0","96962","","null","","","null","86","","","","","","","","","","","","","","","",""
"","ISI","","html-keyboard-response","569","527843","0.0-1.0-777.0","0","0","96962","","null","","","null","86","NaN","","","","","","","","","","","","","","",""
"","S2","","html-keyboard-response","570","528098","0.0-1.0-778.0","0","0","96962","","null","","","null","86","","NaN","","","","","","","","","","","","","",""
"","response","","html-keyboard-response","571","528443","0.0-1.0-779.0-0.0","0","0","96962","","343","","","68","86","","","2","86","training","adjacent","ED","5","4","O.jpg","L.jpg","1","0","0","",""
"","feedback","","html-keyboard-response","572","529455","0.0-1.0-780.0-0.0","0","0","96962","","null","","","null","86","","","","","","","","","","","","","","","",""
"","time_out","","html-keyboard-response","573","531462","0.0-1.0-782.0-0.0","0","0","96962","","null","","","null","86","","","","","","","","","","","","","","","",""
"","ITI","","html-keyboard-response","574","532471","0.0-1.0-783.0","0","0","96962","","null","","","null","86","","","","","","","","","","","","","","","NaN",""
"","S1","","html-keyboard-response","575","532733","0.0-1.0-785.0","0","0","96962","","null","","","null","87","","","","","","","","","","","","","","","",""
"","ISI","","html-keyboard-response","576","532893","0.0-1.0-786.0","0","0","96962","","null","","","null","87","NaN","","","","","","","","","","","","","","",""
"","S2","","html-keyboard-response","577","533157","0.0-1.0-787.0","0","0","96962","","null","","","null","87","","NaN","","","","","","","","","","","","","",""
"","response","","html-keyboard-response","578","533510","0.0-1.0-788.0-0.0","0","0","96962","","349","","","68","87","","","2","87","training","adjacent","AB","1","2","R.jpg","M.jpg","1","1","1","",""
"","feedback","","html-keyboard-response","579","534522","0.0-1.0-789.0-0.0","0","0","96962","","null","","","null","87","","","","","","","","","","","","","","","",""
"","ITI","","html-keyboard-response","580","535528","0.0-1.0-792.0","0","0","96962","","null","","","null","87","","","","","","","","","","","","","","","NaN",""
"","S1","","html-keyboard-response","581","535788","0.0-1.0-794.0","0","0","96962","","null","","","null","88","","","","","","","","","","","","","","","",""
"","ISI","","html-keyboard-response","582","535944","0.0-1.0-795.0","0","0","96962","","null","","","null","88","NaN","","","","","","","","","","","","","","",""
