"success","ttype","start_time","trial_type","trial_index","time_elapsed","internal_node_id","warning","missed_checkup","PID","view_history","rt","responses","repeat_instructions","key_press","index","keypress_isi","keypress_S2","block","trial_num","phase","group_type","pair_type","S1_stim","S2_stim","S1_img","S2_img","S1_chosen","S1_higher","accuracy","keypress_iti","total_bonus_tally"
"true","full_screen","d04142023hr0112","fullscreen","0","16441","0.0-0.0","0","0","48171","","","","","","","","","","","","","","","","","","","","","",""
"","instructions","","instructions","1","117892","0.0-1.0-0.0-0.0","0","0","48171","[{""page_index"":0,""viewing_time"":8396},{""page_index"":1,""viewing_time"":63743},{""page_index"":2,""viewing_time"":20589},{""page_index"":3,""viewing_time"":8718}]","101448","","","","","","","","","","","","","","","","","","","",""
"","comprehension_check","","survey-multi-choice","2","146716","0.0-1.0-0.0-1.0","0","0","48171","","28814","{""Q0"":""True"",""Q1"":""K"",""Q2"":""Once the second image appears and while the screen 'MAKE A CHOICE' is shown"",""Q3"":""Green mark"",""Q4"":""either D or K""}","0","","","","","","","","","","","","","","","","","",""
"","start_exp","","html-keyboard-response","3","151129","0.0-1.0-1.0","0","0","48171","","4409","","","32","","","","","","","","","","","","","","","","",""
"","S1","","html-keyboard-response","4","151391","0.0-1.0-2.0","0","0","48171","","null","","","null","0","","","","","","","","","","","","","","","",""
"","ISI","","html-keyboard-response","5","152401","0.0-1.0-3.0","0","0","48171","","null","","","null","0","NaN","","","","","","","","","","","","","","",""
"","S2","","html-keyboard-response","6","152655","0.0-1.0-4.0","0","0","48171","","null","","","null","0","","NaN","","","","","","","","","","","","","",""
"","response","","html-keyboard-response","7","154416","0.0-1.0-5.0-0.0","0","0","48171","","null","","","null","0","","","1","0","training","adjacent","DC","4","3","O.jpg","P.jpg","NaN","0","0","",""
"","too_slow_prompt","","html-keyboard-response","8","155423","0.0-1.0-7.0-0.0","1","0","48171","","null","","","null","","","","","","","","","","","","","","","","",""
"","time_out","","html-keyboard-response","9","157431","0.0-1.0-8.0-0.0","0","0","48171","","null","","","null","0","","","","","","","","","","","","","","","",""
"","ITI","","html-keyboard-response","10","158439","0.0-1.0-9.0","0","0","48171","","null","","","null","0","","","","","","","","","","","","","","","NaN",""
"","S1","","html-keyboard-response","11","158695","0.0-1.0-11.0","0","0","48171","","null","","","null","1","","","","","","","","","","","","","","","",""
"","ISI","","html-keyboard-response","12","159704","0.0-1.0-12.0","0","0","48171","","null","","","null","1","NaN","","","","","","","","","","","","","","",""
"","S2","","html-keyboard-response","13","159960","0.0-1.0-13.0","0","0","48171","","null","","","null","1","","NaN","","","","","","","","","","","","","",""
"","response","","html-keyboard-response","14","160191","0.0-1.0-14.0-0.0","0","0","48171","","226","","","75","1","","","1","1","training","adjacent","DC","4","3","O.jpg","P.jpg","1","0","0","",""
"","feedback","","html-keyboard-response","15","161200","0.0-1.0-15.0-0.0","0","0","48171","","null","","","null","1","","","","","","","","","","","","","","","",""
"","time_out","","html-keyboard-response","16","163208","0.0-1.0-17.0-0.0","0","0","48171","","null","","","null","1","","","","","","","","","","","","","","","",""
"","ITI","","html-keyboard-response","17","164215","0.0-1.0-18.0","0","0","48171","","null","","","null","1","","","","","","","","","","","","","","","NaN",""
"","S1","","html-keyboard-response","18","164472","0.0-1.0-20.0","0","0","48171","","null","","","null","2","","","","","","","","","","","","","","","",""
"","ISI","","html-keyboard-response","19","165479","0.0-1.0-21.0","0","0","48171","","676","","","68","2","d","","","","","","","","","","","","","","",""
"","S2","","html-keyboard-response","20","165736","0.0-1.0-22.0","0","0","48171","","null","","","null","2","","NaN","","","","","","","","","","","","","",""
"","response","","html-keyboard-response","21","165845","0.0-1.0-23.0-0.0","0","0","48171","","105","","","68","2","","","1","2","training","adjacent","ED","5","4","N.jpg","O.jpg","0","0","1","",""
"","feedback","","html-keyboard-response","22","166855","0.0-1.0-24.0-0.0","0","0","48171","","null","","","null","2","","","","","","","","","","","","","","","",""
"","ITI","","html-keyboard-response","23","167864","0.0-1.0-27.0","0","0","48171","","null","","","null","2","","","","","","","","","","","","","","","NaN",""
"","S1","","html-keyboard-response","24","168120","0.0-1.0-29.0","0","0","48171","","null","","","null","3","","","","","","","","","","","","","","","",""
"","ISI","","html-keyboard-response","25","169128","0.0-1.0-30.0","0","0","48171","","null","","","null","3","NaN","","","","","","","","","","","","","","",""
"","S2","","html-keyboard-response","26","169382","0.0-1.0-31.0","0","0","48171","","null","","","null","3","","NaN","","","","","","","","","","","","","",""
"","response","","html-keyboard-response","27","169633","0.0-1.0-32.0-0.0","0","0","48171","","247","","","75","3","","","1","3","training","adjacent","CB","3","2","P.jpg","R.jpg","1","0","0","",""
"","feedback","","html-keyboard-response","28","170640","0.0-1.0-33.0-0.0","0","0","48171","","null","","","null","3","","","","","","","","","","","","","","","",""
"","time_out","","html-keyboard-response","29","172647","0.0-1.0-35.0-0.0","0","0","48171","","null","","","null","3","","","","","","","","","","","","","","","",""
"","ITI","","html-keyboard-response","30","173656","0.0-1.0-36.0","0","0","48171","","null","","","null","3","","","","","","","","","","","","","","","NaN",""
"","S1","","html-keyboard-response","31","173913","0.0-1.0-38.0","0","0","48171","","null","","","null","4","","","","","","","","","","","","","","","",""
"","ISI","","html-keyboard-response","32","174918","0.0-1.0-39.0","0","0","48171","","247","","","68","4","d","","","","","","","","","","","","","","",""
"","S2","","html-keyboard-response","33","175175","0.0-1.0-40.0","0","0","48171","","null","","","null","4","","NaN","","","","","","","","","","","","","",""
"","response","","html-keyboard-response","34","175827","0.0-1.0-41.0-0.0","0","0","48171","","648","","","68","4","","","1","4","training","adjacent","CD","3","4","P.jpg","O.jpg","0","1","0","",""
"","feedback","","html-keyboard-response","35","176832","0.0-1.0-42.0-0.0","0","0","48171","","null","","","null","4","","","","","","","","","","","","","","","",""
"","time_out","","html-keyboard-response","36","178839","0.0-1.0-44.0-0.0","0","0","48171","","null","","","null","4","","","","","","","","","","","","","","","",""
"","ITI","","html-keyboard-response","37","179847","0.0-1.0-45.0","0","0","48171","","null","","","null","4","","","","","","","","","","","","","","","NaN",""
"","S1","","html-keyboard-response","38","180103","0.0-1.0-47.0","0","0","48171","","null","","","null","5","","","","","","","","","","","","","","","",""
"","ISI","","html-keyboard-response","39","181112","0.0-1.0-48.0","0","0","48171","","null","","","null","5","NaN","","","","","","","","","","","","","","",""
"","S2","","html-keyboard-response","40","181369","0.0-1.0-49.0","0","0","48171","","null","","","null","5","","NaN","","","","","","","","","","","","","",""
"","response","","html-keyboard-response","41","181929","0.0-1.0-50.0-0.0","0","0","48171","","556","","","75","5","","","1","5","training","adjacent","BA","2","1","R.jpg","L.jpg","1","0","0","",""
"","feedback","","html-keyboard-response","42","182934","0.0-1.0-51.0-0.0","0","0","48171","","null","","","null","5","","","","","","","","","","","","","","","",""
"","time_out","","html-keyboard-response","43","184944","0.0-1.0-53.0-0.0","0","0","48171","","null","","","null","5","","","","","","","","","","","","","","","",""
"","ITI","","html-keyboard-response","44","185952","0.0-1.0-54.0","0","0","48171","","null","","","null","5","","","","","","","","","","","","","","","NaN",""
"","S1","","html-keyboard-response","45","186207","0.0-1.0-56.0","0","0","48171","","null","","","null","6","","","","","","","","","","","","","","","",""
"","ISI","","html-keyboard-response","46","187216","0.0-1.0-57.0","0","0","48171","","null","","","null","6","NaN","","","","","","","","","","","","","","",""
"","S2","","html-keyboard-response","47","187472","0.0-1.0-58.0","0","0","48171","","null","","","null","6","","NaN","","","","","","","","","","","","","",""
"","response","","html-keyboard-response","48","187660","0.0-1.0-59.0-0.0","0","0","48171","","184","","","68","6","","","1","6","training","adjacent","CD","3","4","P.jpg","O.jpg","0","1","0","",""
"","feedback","","html-keyboard-response","49","188672","0.0-1.0-60.0-0.0","0","0","48171","","null","","","null","6","","","","","","","","","","","","","","","",""
"","time_out","","html-keyboard-response","50","190679","0.0-1.0-62.0-0.0","0","0","48171","","null","","","null","6","","","","","","","","","","","","","","","",""
"","ITI","","html-keyboard-response","51","191687","0.0-1.0-63.0","0","0","48171","","null","","","null","6","","","","","","","","","","","","","","","NaN",""
"","S1","","html-keyboard-response","52","191943","0.0-1.0-65.0","0","0","48171","","null","","","null","7","","","","","","","","","","","","","","","",""
"","ISI","","html-keyboard-response","53","192952","0.0-1.0-66.0","0","0","48171","","null","","","null","7","NaN","","","","","","","","","","","","","","",""
"","S2","","html-keyboard-response","54","193208","0.0-1.0-67.0","0","0","48171","","null","","","null","7","","NaN","","","","","","","","","","","","","",""
"","response","","html-keyboard-response","55","194132","0.0-1.0-68.0-0.0","0","0","48171","","920","","","75","7","","","1","7","training","adjacent","BA","2","1","R.jpg","L.jpg","1","0","0","",""
"","feedback","","html-keyboard-response","56","195143","0.0-1.0-69.0-0.0","0","0","48171","","null","","","null","7","","","","","","","","","","","","","","","",""
"","time_out","","html-keyboard-response","57","197152","0.0-1.0-71.0-0.0","0","0","48171","","null","","","null","7","","","","","","","","","","","","","","","",""
"","ITI","","html-keyboard-response","58","198159","0.0-1.0-72.0","0","0","48171","","null","","","null","7","","","","","","","","","","","","","","","NaN",""
"","S1","","html-keyboard-response","59","198416","0.0-1.0-74.0","0","0","48171","","null","","","null","8","","","","","","","","","","","","","","","",""
"","ISI","","html-keyboard-response","60","199423","0.0-1.0-75.0","0","0","48171","","null","","","null","8","NaN","","","","","","","","","","","","","","",""
"","S2","","html-keyboard-response","61","199678","0.0-1.0-76.0","0","0","48171","","null","","","null","8","","NaN","","","","","","","","","","","","","",""
"","response","","html-keyboard-response","62","200196","0.0-1.0-77.0-0.0","0","0","48171","","514","","","75","8","","","1","8","training","adjacent","CD","3","4","P.jpg","O.jpg","1","1","1","",""
"","feedback","","html-keyboard-response","63","201207","0.0-1.0-78.0-0.0","0","0","48171","","null","","","null","8","","","","","","","","","","","","","","","",""
"","ITI","","html-keyboard-response","64","202216","0.0-1.0-81.0","0","0","48171","","null","","","null","8","","","","","","","","","","","","","","","NaN",""
"","S1","","html-keyboard-response","65","202471","0.0-1.0-83.0","0","0","48171","","null","","","null","9","","","","","","","","","","","","","","","",""
"","ISI","","html-keyboard-response","66","203479","0.0-1.0-84.0","0","0","48171","","null","","","null","9","NaN","","","","","","","","","","","","","","",""
"","S2","","html-keyboard-response","67","203735","0.0-1.0-85.0","0","0","48171","","null","","","null","9","","NaN","","","","","","","","","","","","","",""
"","response","","html-keyboard-response","68","204320","0.0-1.0-86.0-0.0","0","0","48171","","582","","","68","9","","","1","9","training","adjacent","FG","6","7","Q.jpg","M.jpg","0","1","0","",""
"","feedback","","html-keyboard-response","69","205327","0.0-1.0-87.0-0.0","0","0","48171","","null","","","null","9","","","","","","","","","","","","","","","",""
"","time_out","","html-keyboard-response","70","207335","0.0-1.0-89.0-0.0","0","0","48171","","null","","","null","9","","","","","","","","","","","","","","","",""
"","ITI","","html-keyboard-response","71","208342","0.0-1.0-90.0","0","0","48171","","null","","","null","9","","","","","","","","","","","","","","","NaN",""
"","S1","","html-keyboard-response","72","208599","0.0-1.0-92.0","0","0","48171","","null","","","null","10","","","","","","","","","","","","","","","",""
"","ISI","","html-keyboard-response","73","209607","0.0-1.0-93.0","0","0","48171","","null","","","null","10","NaN","","","","","","","","","","","","","","",""
"","S2","","html-keyboard-response","74","209863","0.0-1.0-94.0","0","0","48171","","null","","","null","10","","NaN","","","","","","","","","","","","","",""
"","response","","html-keyboard-response","75","210515","0.0-1.0-95.0-0.0","0","0","48171","","648","","","68","10","","","1","10","training","adjacent","DE","4","5","O.jpg","N.jpg","0","1","0","",""
"","feedback","","html-keyboard-response","76","211518","0.0-1.0-96.0-0.0","0","0","48171","","null","","","null","10","","","","","","","","","","","","","","","",""
"","time_out","","html-keyboard-response","77","213528","0.0-1.0-98.0-0.0","0","0","48171","","null","","","null","10","","","","","","","","","","","","","","","",""
"","ITI","","html-keyboard-response","78","214535","0.0-1.0-99.0","0","0","48171","","null","","","null","10","","","","","","","","","","","","","","","NaN",""
"","S1","","html-keyboard-response","79","214791","0.0-1.0-101.0","0","0","48171","","null","","","null","11","","","","","","","","","","","","","","","",""
"","ISI","","html-keyboard-response","80","215799","0.0-1.0-102.0","0","0","48171","","null","","","null","11","NaN","","","","","","","","","","","","","","",""
"","S2","","html-keyboard-response","81","216056","0.0-1.0-103.0","0","0","48171","","null","","","null","11","","NaN","","","","","","","","","","","","","",""
"","response","","html-keyboard-response","82","216563","0.0-1.0-104.0-0.0","0","0","48171","","503","","","68","11","","","1","11","training","adjacent","ED","5","4","N.jpg","O.jpg","0","0","1","",""
"","feedback","","html-keyboard-response","83","217576","0.0-1.0-105.0-0.0","0","0","48171","","null","","","null","11","","","","","","","","","","","","","","","",""
"","ITI","","html-keyboard-response","84","218583","0.0-1.0-108.0","0","0","48171","","null","","","null","11","","","","","","","","","","","","","","","NaN",""
"","S1","","html-keyboard-response","85","218840","0.0-1.0-110.0","0","0","48171","","null","","","null","12","","","","","","","","","","","","","","","",""
"","ISI","","html-keyboard-response","86","219847","0.0-1.0-111.0","0","0","48171","","null","","","null","12","NaN","","","","","","","","","","","","","","",""
"","S2","","html-keyboard-response","87","220103","0.0-1.0-112.0","0","0","48171","","null","","","null","12","","NaN","","","","","","","","","","","","","",""
"","response","","html-keyboard-response","88","220601","0.0-1.0-113.0-0.0","0","0","48171","","494","","","75","12","","","1","12","training","adjacent","AB","1","2","L.jpg","R.jpg","1","1","1","",""
"","feedback","","html-keyboard-response","89","221607","0.0-1.0-114.0-0.0","0","0","48171","","null","","","null","12","","","","","","","","","","","","","","","",""
"","ITI","","html-keyboard-response","90","222615","0.0-1.0-117.0","0","0","48171","","null","","","null","12","","","","","","","","","","","","","","","NaN",""
"","S1","","html-keyboard-response","91","222872","0.0-1.0-119.0","0","0","48171","","null","","","null","13","","","","","","","","","","","","","","","",""
"","ISI","","html-keyboard-response","92","223880","0.0-1.0-120.0","0","0","48171","","null","","","null","13","NaN","","","","","","","","","","","","","","",""
"","S2","","html-keyboard-response","93","224136","0.0-1.0-121.0","0","0","48171","","null","","","null","13","","NaN","","","","","","","","","","","","","",""
"","response","","html-keyboard-response","94","224658","0.0-1.0-122.0-0.0","0","0","48171","","519","","","75","13","","","1","13","training","adjacent","BA","2","1","R.jpg","L.jpg","1","0","0","",""
"","feedback","","html-keyboard-response","95","225664","0.0-1.0-123.0-0.0","0","0","48171","","null","","","null","13","","","","","","","","","","","","","","","",""
"","time_out","","html-keyboard-response","96","227672","0.0-1.0-125.0-0.0","0","0","48171","","null","","","null","13","","","","","","","","","","","","","","","",""
"","ITI","","html-keyboard-response","97","228679","0.0-1.0-126.0","0","0","48171","","null","","","null","13","","","","","","","","","","","","","","","NaN",""
"","S1","","html-keyboard-response","98","228936","0.0-1.0-128.0","0","0","48171","","null","","","null","14","","","","","","","","","","","","","","","",""
"","ISI","","html-keyboard-response","99","229944","0.0-1.0-129.0","0","0","48171","","null","","","null","14","NaN","","","","","","","","","","","","","","",""
"","S2","","html-keyboard-response","100","230200","0.0-1.0-130.0","0","0","48171","","null","","","null","14","","NaN","","","","","","","","","","","","","",""
"","response","","html-keyboard-response","101","230687","0.0-1.0-131.0-0.0","0","0","48171","","483","","","68","14","","","1","14","training","adjacent","FE","6","5","Q.jpg","N.jpg","0","0","1","",""
"","feedback","","html-keyboard-response","102","231695","0.0-1.0-132.0-0.0","0","0","48171","","null","","","null","14","","","","","","","","","","","","","","","",""
"","ITI","","html-keyboard-response","103","232703","0.0-1.0-135.0","0","0","48171","","null","","","null","14","","","","","","","","","","","","","","","NaN",""
"","S1","","html-keyboard-response","104","232959","0.0-1.0-137.0","0","0","48171","","null","","","null","15","","","","","","","","","","","","","","","",""
"","ISI","","html-keyboard-response","105","233967","0.0-1.0-138.0","0","0","48171","","null","","","null","15","NaN","","","","","","","","","","","","","","",""
"","S2","","html-keyboard-response","106","234224","0.0-1.0-139.0","0","0","48171","","null","","","null","15","","NaN","","","","","","","","","","","","","",""
"","response","","html-keyboard-response","107","234814","0.0-1.0-140.0-0.0","0","0","48171","","586","","","75","15","","","1","15","training","adjacent","BC","2","3","R.jpg","P.jpg","1","1","1","",""
"","feedback","","html-keyboard-response","108","235823","0.0-1.0-141.0-0.0","0","0","48171","","null","","","null","15","","","","","","","","","","","","","","","",""
"","ITI","","html-keyboard-response","109","236831","0.0-1.0-144.0","0","0","48171","","null","","","null","15","","","","","","","","","","","","","","","NaN",""
"","S1","","html-keyboard-response","110","237087","0.0-1.0-146.0","0","0","48171","","null","","","null","16","","","","","","","","","","","","","","","",""
"","ISI","","html-keyboard-response","111","238095","0.0-1.0-147.0","0","0","48171","","null","","","null","16","NaN","","","","","","","","","","","","","","",""
"","S2","","html-keyboard-response","112","238350","0.0-1.0-148.0","0","0","48171","","null","","","null","16","","NaN","","","","","","","","","","","","","",""
"","response","","html-keyboard-response","113","239190","0.0-1.0-149.0-0.0","0","0","48171","","837","","","68","16","","","1","16","training","adjacent","EF","5","6","N.jpg","Q.jpg","0","1","0","",""
"","feedback","","html-keyboard-response","114","240199","0.0-1.0-150.0-0.0","0","0","48171","","null","","","null","16","","","","","","","","","","","","","","","",""
"","time_out","","html-keyboard-response","115","242207","0.0-1.0-152.0-0.0","0","0","48171","","null","","","null","16","","","","","","","","","","","","","","","",""
"","ITI","","html-keyboard-response","116","243214","0.0-1.0-153.0","0","0","48171","","null","","","null","16","","","","","","","","","","","","","","","NaN",""
"","S1","","html-keyboard-response","117","243472","0.0-1.0-155.0","0","0","48171","","null","","","null","17","","","","","","","","","","","","","","","",""
"","ISI","","html-keyboard-response","118","244480","0.0-1.0-156.0","0","0","48171","","null","","","null","17","NaN","","","","","","","","","","","","","","",""
"","S2","","html-keyboard-response","119","244735","0.0-1.0-157.0","0","0","48171","","null","","","null","17","","NaN","","","","","","","","","","","","","",""
"","response","","html-keyboard-response","120","245250","0.0-1.0-158.0-0.0","0","0","48171","","511","","","68","17","","","1","17","training","adjacent","GF","7","6","M.jpg","Q.jpg","0","0","1","",""
"","feedback","","html-keyboard-response","121","246255","0.0-1.0-159.0-0.0","0","0","48171","","null","","","null","17","","","","","","","","","","","","","","","",""
"","ITI","","html-keyboard-response","122","247262","0.0-1.0-162.0","0","0","48171","","null","","","null","17","","","","","","","","","","","","","","","NaN",""
"","S1","","html-keyboard-response","123","247520","0.0-1.0-164.0","0","0","48171","","null","","","null","18","","","","","","","","","","","","","","","",""
"","ISI","","html-keyboard-response","124","248527","0.0-1.0-165.0","0","0","48171","","null","","","null","18","NaN","","","","","","","","","","","","","","",""
"","S2","","html-keyboard-response","125","248784","0.0-1.0-166.0","0","0","48171","","null","","","null","18","","NaN","","","","","","","","","","","","","",""
"","response","","html-keyboard-response","126","249807","0.0-1.0-167.0-0.0","0","0","48171","","1021","","","68","18","","","1","18","training","adjacent","CB","3","2","P.jpg","R.jpg","0","0","1","",""
"","feedback","","html-keyboard-response","127","250815","0.0-1.0-168.0-0.0","0","0","48171","","null","","","null","18","","","","","","","","","","","","","","","",""
"","ITI","","html-keyboard-response","128","251823","0.0-1.0-171.0","0","0","48171","","null","","","null","18","","","","","","","","","","","","","","","NaN",""
"","S1","","html-keyboard-response","129","252080","0.0-1.0-173.0","0","0","48171","","null","","","null","19","","","","","","","","","","","","","","","",""
"","ISI","","html-keyboard-response","130","253087","0.0-1.0-174.0","0","0","48171","","null","","","null","19","NaN","","","","","","","","","","","","","","",""
"","S2","","html-keyboard-response","131","253343","0.0-1.0-175.0","0","0","48171","","null","","","null","19","","NaN","","","","","","","","","","","","","",""
"","response","","html-keyboard-response","132","253712","0.0-1.0-176.0-0.0","0","0","48171","","365","","","75","19","","","1","19","training","adjacent","DC","4","3","O.jpg","P.jpg","1","0","0","",""
"","feedback","","html-keyboard-response","133","254719","0.0-1.0-177.0-0.0","0","0","48171","","null","","","null","19","","","","","","","","","","","","","","","",""
"","time_out","","html-keyboard-response","134","256727","0.0-1.0-179.0-0.0","0","0","48171","","null","","","null","19","","","","","","","","","","","","","","","",""
"","ITI","","html-keyboard-response","135","257735","0.0-1.0-180.0","0","0","48171","","null","","","null","19","","","","","","","","","","","","","","","NaN",""
"","S1","","html-keyboard-response","136","257991","0.0-1.0-182.0","0","0","48171","","null","","","null","20","","","","","","","","","","","","","","","",""
"","ISI","","html-keyboard-response","137","258999","0.0-1.0-183.0","0","0","48171","","null","","","null","20","NaN","","","","","","","","","","","","","","",""
"","S2","","html-keyboard-response","138","259254","0.0-1.0-184.0","0","0","48171","","null","","","null","20","","NaN","","","","","","","","","","","","","",""
"","response","","html-keyboard-response","139","259607","0.0-1.0-185.0-0.0","0","0","48171","","349","","","68","20","","","1","20","training","adjacent","FG","6","7","Q.jpg","M.jpg","0","1","0","",""
"","feedback","","html-keyboard-response","140","260615","0.0-1.0-186.0-0.0","0","0","48171","","null","","","null","20","","","","","","","","","","","","","","","",""
"","time_out","","html-keyboard-response","141","262623","0.0-1.0-188.0-0.0","0","0","48171","","null","","","null","20","","","","","","","","","","","","","","","",""
"","ITI","","html-keyboard-response","142","263631","0.0-1.0-189.0","0","0","48171","","null","","","null","20","","","","","","","","","","","","","","","NaN",""
"","S1","","html-keyboard-response","143","263889","0.0-1.0-191.0","0","0","48171","","null","","","null","21","","","","","","","","","","","","","","","",""
"","ISI","","html-keyboard-response","144","264895","0.0-1.0-192.0","0","0","48171","","null","","","null","21","NaN","","","","","","","","","","","","","","",""
"","S2","","html-keyboard-response","145","265151","0.0-1.0-193.0","0","0","48171","","null","","","null","21","","NaN","","","","","","","","","","","","","",""
"","response","","html-keyboard-response","146","265539","0.0-1.0-194.0-0.0","0","0","48171","","384","","","75","21","","","1","21","training","adjacent","EF","5","6","N.jpg","Q.jpg","1","1","1","",""
"","feedback","","html-keyboard-response","147","266544","0.0-1.0-195.0-0.0","0","0","48171","","null","","","null","21","","","","","","","","","","","","","","","",""
"","ITI","","html-keyboard-response","148","267551","0.0-1.0-198.0","0","0","48171","","null","","","null","21","","","","","","","","","","","","","","","NaN",""
"","S1","","html-keyboard-response","149","267807","0.0-1.0-200.0","0","0","48171","","null","","","null","22","","","","","","","","","","","","","","","",""
"","ISI","","html-keyboard-response","150","268816","0.0-1.0-201.0","0","0","48171","","null","","","null","22","NaN","","","","","","","","","","","","","","",""
"","S2","","html-keyboard-response","151","269072","0.0-1.0-202.0","0","0","48171","","null","","","null","22","","NaN","","","","","","","","","","","","","",""
"","response","","html-keyboard-response","152","269681","0.0-1.0-203.0-0.0","0","0","48171","","605","","","68","22","","","1","22","training","adjacent","CB","3","2","P.jpg","R.jpg","0","0","1","",""
"","feedback","","html-keyboard-response","153","270688","0.0-1.0-204.0-0.0","0","0","48171","","null","","","null","22","","","","","","","","","","","","","","","",""
"","ITI","","html-keyboard-response","154","271695","0.0-1.0-207.0","0","0","48171","","null","","","null","22","","","","","","","","","","","","","","","NaN",""
"","S1","","html-keyboard-response","155","271952","0.0-1.0-209.0","0","0","48171","","null","","","null","23","","","","","","","","","","","","","","","",""
"","ISI","","html-keyboard-response","156","272959","0.0-1.0-210.0","0","0","48171","","null","","","null","23","NaN","","","","","","","","","","","","","","",""
"","S2","","html-keyboard-response","157","273215","0.0-1.0-211.0","0","0","48171","","null","","","null","23","","NaN","","","","","","","","","","","","","",""
"","response","","html-keyboard-response","158","273753","0.0-1.0-212.0-0.0","0","0","48171","","534","","","68","23","","","1","23","training","adjacent","FG","6","7","Q.jpg","M.jpg","0","1","0","",""
"","feedback","","html-keyboard-response","159","274759","0.0-1.0-213.0-0.0","0","0","48171","","null","","","null","23","","","","","","","","","","","","","","","",""
"","time_out","","html-keyboard-response","160","276767","0.0-1.0-215.0-0.0","0","0","48171","","null","","","null","23","","","","","","","","","","","","","","","",""
"","ITI","","html-keyboard-response","161","277776","0.0-1.0-216.0","0","0","48171","","null","","","null","23","","","","","","","","","","","","","","","NaN",""
"","S1","","html-keyboard-response","162","278032","0.0-1.0-218.0","0","0","48171","","null","","","null","24","","","","","","","","","","","","","","","",""
"","ISI","","html-keyboard-response","163","279040","0.0-1.0-219.0","0","0","48171","","null","","","null","24","NaN","","","","","","","","","","","","","","",""
"","S2","","html-keyboard-response","164","279294","0.0-1.0-220.0","0","0","48171","","null","","","null","24","","NaN","","","","","","","","","","","","","",""
"","response","","html-keyboard-response","165","279730","0.0-1.0-221.0-0.0","0","0","48171","","431","","","68","24","","","1","24","training","adjacent","FE","6","5","Q.jpg","N.jpg","0","0","1","",""
"","feedback","","html-keyboard-response","166","280735","0.0-1.0-222.0-0.0","0","0","48171","","null","","","null","24","","","","","","","","","","","","","","","",""
"","ITI","","html-keyboard-response","167","281743","0.0-1.0-225.0","0","0","48171","","null","","","null","24","","","","","","","","","","","","","","","NaN",""
"","S1","","html-keyboard-response","168","282000","0.0-1.0-227.0","0","0","48171","","null","","","null","25","","","","","","","","","","","","","","","",""
"","ISI","","html-keyboard-response","169","283008","0.0-1.0-228.0","0","0","48171","","null","","","null","25","NaN","","","","","","","","","","","","","","",""
"","S2","","html-keyboard-response","170","283263","0.0-1.0-229.0","0","0","48171","","null","","","null","25","","NaN","","","","","","","","","","","","","",""
"","response","","html-keyboard-response","171","283928","0.0-1.0-230.0-0.0","0","0","48171","","662","","","68","25","","","1","25","training","adjacent","ED","5","4","N.jpg","O.jpg","0","0","1","",""
"","feedback","","html-keyboard-response","172","284935","0.0-1.0-231.0-0.0","0","0","48171","","null","","","null","25","","","","","","","","","","","","","","","",""
"","ITI","","html-keyboard-response","173","285944","0.0-1.0-234.0","0","0","48171","","null","","","null","25","","","","","","","","","","","","","","","NaN",""
"","S1","","html-keyboard-response","174","286200","0.0-1.0-236.0","0","0","48171","","null","","","null","26","","","","","","","","","","","","","","","",""
"","ISI","","html-keyboard-response","175","287207","0.0-1.0-237.0","0","0","48171","","null","","","null","26","NaN","","","","","","","","","","","","","","",""
"","S2","","html-keyboard-response","176","287463","0.0-1.0-238.0","0","0","48171","","null","","","null","26","","NaN","","","","","","","","","","","","","",""
"","response","","html-keyboard-response","177","287914","0.0-1.0-239.0-0.0","0","0","48171","","449","","","75","26","","","1","26","training","adjacent","BC","2","3","R.jpg","P.jpg","1","1","1","",""
"","feedback","","html-keyboard-response","178","288919","0.0-1.0-240.0-0.0","0","0","48171","","null","","","null","26","","","","","","","","","","","","","","","",""
"","ITI","","html-keyboard-response","179","289927","0.0-1.0-243.0","0","0","48171","","null","","","null","26","","","","","","","","","","","","","","","NaN",""
"","S1","","html-keyboard-response","180","290184","0.0-1.0-245.0","0","0","48171","","null","","","null","27","","","","","","","","","","","","","","","",""
"","ISI","","html-keyboard-response","181","291191","0.0-1.0-246.0","0","0","48171","","null","","","null","27","NaN","","","","","","","","","","","","","","",""
"","S2","","html-keyboard-response","182","291446","0.0-1.0-247.0","0","0","48171","","null","","","null","27","","NaN","","","","","","","","","","","","","",""
"","response","","html-keyboard-response","183","291887","0.0-1.0-248.0-0.0","0","0","48171","","438","","","68","27","","","1","27","training","adjacent","AB","1","2","L.jpg","R.jpg","0","1","0","",""
"","feedback","","html-keyboard-response","184","292895","0.0-1.0-249.0-0.0","0","0","48171","","null","","","null","27","","","","","","","","","","","","","","","",""
"","time_out","","html-keyboard-response","185","294903","0.0-1.0-251.0-0.0","0","0","48171","","null","","","null","27","","","","","","","","","","","","","","","",""
"","ITI","","html-keyboard-response","186","295911","0.0-1.0-252.0","0","0","48171","","null","","","null","27","","","","","","","","","","","","","","","NaN",""
"","S1","","html-keyboard-response","187","296168","0.0-1.0-254.0","0","0","48171","","null","","","null","28","","","","","","","","","","","","","","","",""
"","ISI","","html-keyboard-response","188","297176","0.0-1.0-255.0","0","0","48171","","null","","","null","28","NaN","","","","","","","","","","","","","","",""
"","S2","","html-keyboard-response","189","297432","0.0-1.0-256.0","0","0","48171","","null","","","null","28","","NaN","","","","","","","","","","","","","",""
"","response","","html-keyboard-response","190","297837","0.0-1.0-257.0-0.0","0","0","48171","","402","","","68","28","","","1","28","training","adjacent","GF","7","6","M.jpg","Q.jpg","0","0","1","",""
"","feedback","","html-keyboard-response","191","298849","0.0-1.0-258.0-0.0","0","0","48171","","null","","","null","28","","","","","","","","","","","","","","","",""
"","ITI","","html-keyboard-response","192","299855","0.0-1.0-261.0","0","0","48171","","null","","","null","28","","","","","","","","","","","","","","","NaN",""
"","S1","","html-keyboard-response","193","300112","0.0-1.0-263.0","0","0","48171","","null","","","null","29","","","","","","","","","","","","","","","",""
"","ISI","","html-keyboard-response","194","301119","0.0-1.0-264.0","0","0","48171","","null","","","null","29","NaN","","","","","","","","","","","","","","",""
"","S2","","html-keyboard-response","195","301376","0.0-1.0-265.0","0","0","48171","","null","","","null","29","","NaN","","","","","","","","","","","","","",""
"","response","","html-keyboard-response","196","301699","0.0-1.0-266.0-0.0","0","0","48171","","319","","","75","29","","","1","29","training","adjacent","EF","5","6","N.jpg","Q.jpg","1","1","1","",""
"","feedback","","html-keyboard-response","197","302704","0.0-1.0-267.0-0.0","0","0","48171","","null","","","null","29","","","","","","","","","","","","","","","",""
"","ITI","","html-keyboard-response","198","303712","0.0-1.0-270.0","0","0","48171","","null","","","null","29","","","","","","","","","","","","","","","NaN",""
"","S1","","html-keyboard-response","199","303969","0.0-1.0-272.0","0","0","48171","","null","","","null","30","","","","","","","","","","","","","","","",""
"","ISI","","html-keyboard-response","200","304976","0.0-1.0-273.0","0","0","48171","","null","","","null","30","NaN","","","","","","","","","","","","","","",""
"","S2","","html-keyboard-response","201","305231","0.0-1.0-274.0","0","0","48171","","null","","","null","30","","NaN","","","","","","","","","","","","","",""
"","response","","html-keyboard-response","202","305849","0.0-1.0-275.0-0.0","0","0","48171","","614","","","75","30","","","1","30","training","adjacent","ED","5","4","N.jpg","O.jpg","1","0","0","",""
"","feedback","","html-keyboard-response","203","306854","0.0-1.0-276.0-0.0","0","0","48171","","null","","","null","30","","","","","","","","","","","","","","","",""
"","time_out","","html-keyboard-response","204","308864","0.0-1.0-278.0-0.0","0","0","48171","","null","","","null","30","","","","","","","","","","","","","","","",""
"","ITI","","html-keyboard-response","205","309870","0.0-1.0-279.0","0","0","48171","","null","","","null","30","","","","","","","","","","","","","","","NaN",""
"","S1","","html-keyboard-response","206","310128","0.0-1.0-281.0","0","0","48171","","null","","","null","31","","","","","","","","","","","","","","","",""
"","ISI","","html-keyboard-response","207","311136","0.0-1.0-282.0","0","0","48171","","null","","","null","31","NaN","","","","","","","","","","","","","","",""
"","S2","","html-keyboard-response","208","311390","0.0-1.0-283.0","0","0","48171","","null","","","null","31","","NaN","","","","","","","","","","","","","",""
"","response","","html-keyboard-response","209","311528","0.0-1.0-284.0-0.0","0","0","48171","","136","","","75","31","","","1","31","training","adjacent","EF","5","6","N.jpg","Q.jpg","1","1","1","",""
"","feedback","","html-keyboard-response","210","312535","0.0-1.0-285.0-0.0","0","0","48171","","null","","","null","31","","","","","","","","","","","","","","","",""
"","ITI","","html-keyboard-response","211","313543","0.0-1.0-288.0","0","0","48171","","null","","","null","31","","","","","","","","","","","","","","","NaN",""
"","S1","","html-keyboard-response","212","313799","0.0-1.0-290.0","0","0","48171","","null","","","null","32","","","","","","","","","","","","","","","",""
"","ISI","","html-keyboard-response","213","314809","0.0-1.0-291.0","0","0","48171","","null","","","null","32","NaN","","","","","","","","","","","","","","",""
"","S2","","html-keyboard-response","214","315065","0.0-1.0-292.0","0","0","48171","","null","","","null","32","","NaN","","","","","","","","","","","","","",""
"","response","","html-keyboard-response","215","315643","0.0-1.0-293.0-0.0","0","0","48171","","574","","","68","32","","","1","32","training","adjacent","CD","3","4","P.jpg","O.jpg","0","1","0","",""
"","feedback","","html-keyboard-response","216","316655","0.0-1.0-294.0-0.0","0","0","48171","","null","","","null","32","","","","","","","","","","","","","","","",""
"","time_out","","html-keyboard-response","217","318663","0.0-1.0-296.0-0.0","0","0","48171","","null","","","null","32","","","","","","","","","","","","","","","",""
"","ITI","","html-keyboard-response","218","319671","0.0-1.0-297.0","0","0","48171","","null","","","null","32","","","","","","","","","","","","","","","NaN",""
"","S1","","html-keyboard-response","219","319928","0.0-1.0-299.0","0","0","48171","","null","","","null","33","","","","","","","","","","","","","","","",""
"","ISI","","html-keyboard-response","220","320935","0.0-1.0-300.0","0","0","48171","","null","","","null","33","NaN","","","","","","","","","","","","","","",""
"","S2","","html-keyboard-response","221","321191","0.0-1.0-301.0","0","0","48171","","null","","","null","33","","NaN","","","","","","","","","","","","","",""
"","response","","html-keyboard-response","222","321563","0.0-1.0-302.0-0.0","0","0","48171","","370","","","75","33","","","1","33","training","adjacent","GF","7","6","M.jpg","Q.jpg","1","0","0","",""
"","feedback","","html-keyboard-response","223","322567","0.0-1.0-303.0-0.0","0","0","48171","","null","","","null","33","","","","","","","","","","","","","","","",""
"","time_out","","html-keyboard-response","224","324575","0.0-1.0-305.0-0.0","0","0","48171","","null","","","null","33","","","","","","","","","","","","","","","",""
"","ITI","","html-keyboard-response","225","325584","0.0-1.0-306.0","0","0","48171","","null","","","null","33","","","","","","","","","","","","","","","NaN",""
"","S1","","html-keyboard-response","226","325840","0.0-1.0-308.0","0","0","48171","","null","","","null","34","","","","","","","","","","","","","","","",""
"","ISI","","html-keyboard-response","227","326847","0.0-1.0-309.0","0","0","48171","","null","","","null","34","NaN","","","","","","","","","","","","","","",""
"","S2","","html-keyboard-response","228","327103","0.0-1.0-310.0","0","0","48171","","null","","","null","34","","NaN","","","","","","","","","","","","","",""
"","response","","html-keyboard-response","229","327623","0.0-1.0-311.0-0.0","0","0","48171","","517","","","75","34","","","1","34","training","adjacent","DE","4","5","O.jpg","N.jpg","1","1","1","",""
"","feedback","","html-keyboard-response","230","328631","0.0-1.0-312.0-0.0","0","0","48171","","null","","","null","34","","","","","","","","","","","","","","","",""
"","ITI","","html-keyboard-response","231","329639","0.0-1.0-315.0","0","0","48171","","null","","","null","34","","","","","","","","","","","","","","","NaN",""
"","S1","","html-keyboard-response","232","329895","0.0-1.0-317.0","0","0","48171","","null","","","null","35","","","","","","","","","","","","","","","",""
"","ISI","","html-keyboard-response","233","330904","0.0-1.0-318.0","0","0","48171","","null","","","null","35","NaN","","","","","","","","","","","","","","",""
"","S2","","html-keyboard-response","234","331160","0.0-1.0-319.0","0","0","48171","","null","","","null","35","","NaN","","","","","","","","","","","","","",""
"","response","","html-keyboard-response","235","331375","0.0-1.0-320.0-0.0","0","0","48171","","210","","","68","35","","","1","35","training","adjacent","CB","3","2","P.jpg","R.jpg","0","0","1","",""
"","feedback","","html-keyboard-response","236","332382","0.0-1.0-321.0-0.0","0","0","48171","","null","","","null","35","","","","","","","","","","","","","","","",""
"","ITI","","html-keyboard-response","237","333392","0.0-1.0-324.0","0","0","48171","","null","","","null","35","","","","","","","","","","","","","","","NaN",""
"","S1","","html-keyboard-response","238","333647","0.0-1.0-326.0","0","0","48171","","null","","","null","36","","","","","","","","","","","","","","","",""
"","ISI","","html-keyboard-response","239","334655","0.0-1.0-327.0","0","0","48171","","null","","","null","36","NaN","","","","","","","","","","","","","","",""
"","S2","","html-keyboard-response","240","334911","0.0-1.0-328.0","0","0","48171","","null","","","null","36","","NaN","","","","","","","","","","","","","",""
"","response","","html-keyboard-response","241","335435","0.0-1.0-329.0-0.0","0","0","48171","","521","","","75","36","","","1","36","training","adjacent","BC","2","3","R.jpg","P.jpg","1","1","1","",""
"","feedback","","html-keyboard-response","242","336440","0.0-1.0-330.0-0.0","0","0","48171","","null","","","null","36","","","","","","","","","","","","","","","",""
"","ITI","","html-keyboard-response","243","337447","0.0-1.0-333.0","0","0","48171","","null","","","null","36","","","","","","","","","","","","","","","NaN",""
"","S1","","html-keyboard-response","244","337703","0.0-1.0-335.0","0","0","48171","","null","","","null","37","","","","","","","","","","","","","","","",""
"","ISI","","html-keyboard-response","245","338712","0.0-1.0-336.0","0","0","48171","","null","","","null","37","NaN","","","","","","","","","","","","","","",""
"","S2","","html-keyboard-response","246","338969","0.0-1.0-337.0","0","0","48171","","null","","","null","37","","NaN","","","","","","","","","","","","","",""
"","response","","html-keyboard-response","247","339257","0.0-1.0-338.0-0.0","0","0","48171","","284","","","75","37","","","1","37","training","adjacent","BC","2","3","R.jpg","P.jpg","1","1","1","",""
"","feedback","","html-keyboard-response","248","340264","0.0-1.0-339.0-0.0","0","0","48171","","null","","","null","37","","","","","","","","","","","","","","","",""
"","ITI","","html-keyboard-response","249","341271","0.0-1.0-342.0","0","0","48171","","null","","","null","37","","","","","","","","","","","","","","","NaN",""
"","S1","","html-keyboard-response","250","341526","0.0-1.0-344.0","0","0","48171","","null","","","null","38","","","","","","","","","","","","","","","",""
"","ISI","","html-keyboard-response","251","342535","0.0-1.0-345.0","0","0","48171","","null","","","null","38","NaN","","","","","","","","","","","","","","",""
"","S2","","html-keyboard-response","252","342791","0.0-1.0-346.0","0","0","48171","","null","","","null","38","","NaN","","","","","","","","","","","","","",""
"","response","","html-keyboard-response","253","343111","0.0-1.0-347.0-0.0","0","0","48171","","316","","","75","38","","","1","38","training","adjacent","GF","7","6","M.jpg","Q.jpg","1","0","0","",""
"","feedback","","html-keyboard-response","254","344119","0.0-1.0-348.0-0.0","0","0","48171","","null","","","null","38","","","","","","","","","","","","","","","",""
"","time_out","","html-keyboard-response","255","346127","0.0-1.0-350.0-0.0","0","0","48171","","null","","","null","38","","","","","","","","","","","","","","","",""
"","ITI","","html-keyboard-response","256","347135","0.0-1.0-351.0","0","0","48171","","null","","","null","38","","","","","","","","","","","","","","","NaN",""
"","S1","","html-keyboard-response","257","347391","0.0-1.0-353.0","0","0","48171","","null","","","null","39","","","","","","","","","","","","","","","",""
"","ISI","","html-keyboard-response","258","348399","0.0-1.0-354.0","0","0","48171","","null","","","null","39","NaN","","","","","","","","","","","","","","",""
"","S2","","html-keyboard-response","259","348656","0.0-1.0-355.0","0","0","48171","","null","","","null","39","","NaN","","","","","","","","","","","","","",""
"","response","","html-keyboard-response","260","349097","0.0-1.0-356.0-0.0","0","0","48171","","436","","","75","39","","","1","39","training","adjacent","BA","2","1","R.jpg","L.jpg","1","0","0","",""
"","feedback","","html-keyboard-response","261","350104","0.0-1.0-357.0-0.0","0","0","48171","","null","","","null","39","","","","","","","","","","","","","","","",""
"","time_out","","html-keyboard-response","262","352112","0.0-1.0-359.0-0.0","0","0","48171","","null","","","null","39","","","","","","","","","","","","","","","",""
"","ITI","","html-keyboard-response","263","353119","0.0-1.0-360.0","0","0","48171","","null","","","null","39","","","","","","","","","","","","","","","NaN",""
"","S1","","html-keyboard-response","264","353376","0.0-1.0-362.0","0","0","48171","","null","","","null","40","","","","","","","","","","","","","","","",""
"","ISI","","html-keyboard-response","265","354383","0.0-1.0-363.0","0","0","48171","","null","","","null","40","NaN","","","","","","","","","","","","","","",""
"","S2","","html-keyboard-response","266","354639","0.0-1.0-364.0","0","0","48171","","null","","","null","40","","NaN","","","","","","","","","","","","","",""
"","response","","html-keyboard-response","267","354973","0.0-1.0-365.0-0.0","0","0","48171","","331","","","68","40","","","1","40","training","adjacent","FE","6","5","Q.jpg","N.jpg","0","0","1","",""
"","feedback","","html-keyboard-response","268","355983","0.0-1.0-366.0-0.0","0","0","48171","","null","","","null","40","","","","","","","","","","","","","","","",""
"","ITI","","html-keyboard-response","269","356991","0.0-1.0-369.0","0","0","48171","","null","","","null","40","","","","","","","","","","","","","","","NaN",""
"","S1","","html-keyboard-response","270","357247","0.0-1.0-371.0","0","0","48171","","null","","","null","41","","","","","","","","","","","","","","","",""
"","ISI","","html-keyboard-response","271","358256","0.0-1.0-372.0","0","0","48171","","null","","","null","41","NaN","","","","","","","","","","","","","","",""
"","S2","","html-keyboard-response","272","358512","0.0-1.0-373.0","0","0","48171","","null","","","null","41","","NaN","","","","","","","","","","","","","",""
"","response","","html-keyboard-response","273","358832","0.0-1.0-374.0-0.0","0","0","48171","","316","","","75","41","","","1","41","training","adjacent","DE","4","5","O.jpg","N.jpg","1","1","1","",""
"","feedback","","html-keyboard-response","274","359841","0.0-1.0-375.0-0.0","0","0","48171","","null","","","null","41","","","","","","","","","","","","","","","",""
"","ITI","","html-keyboard-response","275","360848","0.0-1.0-378.0","0","0","48171","","null","","","null","41","","","","","","","","","","","","","","","NaN",""
"","S1","","html-keyboard-response","276","361104","0.0-1.0-380.0","0","0","48171","","null","","","null","42","","","","","","","","","","","","","","","",""
"","ISI","","html-keyboard-response","277","362111","0.0-1.0-381.0","0","0","48171","","null","","","null","42","NaN","","","","","","","","","","","","","","",""
"","S2","","html-keyboard-response","278","362366","0.0-1.0-382.0","0","0","48171","","null","","","null","42","","NaN","","","","","","","","","","","","","",""
"","response","","html-keyboard-response","279","362882","0.0-1.0-383.0-0.0","0","0","48171","","513","","","68","42","","","1","42","training","adjacent","AB","1","2","L.jpg","R.jpg","0","1","0","",""
"","feedback","","html-keyboard-response","280","363888","0.0-1.0-384.0-0.0","0","0","48171","","null","","","null","42","","","","","","","","","","","","","","","",""
"","time_out","","html-keyboard-response","281","365895","0.0-1.0-386.0-0.0","0","0","48171","","null","","","null","42","","","","","","","","","","","","","","","",""
"","ITI","","html-keyboard-response","282","366905","0.0-1.0-387.0","0","0","48171","","null","","","null","42","","","","","","","","","","","","","","","NaN",""
"","S1","","html-keyboard-response","283","367159","0.0-1.0-389.0","0","0","48171","","null","","","null","43","","","","","","","","","","","","","","","",""
"","ISI","","html-keyboard-response","284","368167","0.0-1.0-390.0","0","0","48171","","null","","","null","43","NaN","","","","","","","","","","","","","","",""
"","S2","","html-keyboard-response","285","368423","0.0-1.0-391.0","0","0","48171","","null","","","null","43","","NaN","","","","","","","","","","","","","",""
"","response","","html-keyboard-response","286","368609","0.0-1.0-392.0-0.0","0","0","48171","","183","","","75","43","","","1","43","training","adjacent","DE","4","5","O.jpg","N.jpg","1","1","1","",""
"","feedback","","html-keyboard-response","287","369616","0.0-1.0-393.0-0.0","0","0","48171","","null","","","null","43","","","","","","","","","","","","","","","",""
"","ITI","","html-keyboard-response","288","370623","0.0-1.0-396.0","0","0","48171","","null","","","null","43","","","","","","","","","","","","","","","NaN",""
"","S1","","html-keyboard-response","289","370880","0.0-1.0-398.0","0","0","48171","","null","","","null","44","","","","","","","","","","","","","","","",""
"","ISI","","html-keyboard-response","290","371887","0.0-1.0-399.0","0","0","48171","","null","","","null","44","NaN","","","","","","","","","","","","","","",""
"","S2","","html-keyboard-response","291","372143","0.0-1.0-400.0","0","0","48171","","null","","","null","44","","NaN","","","","","","","","","","","","","",""
"","response","","html-keyboard-response","292","372434","0.0-1.0-401.0-0.0","0","0","48171","","288","","","75","44","","","1","44","training","adjacent","FE","6","5","Q.jpg","N.jpg","1","0","0","",""
"","feedback","","html-keyboard-response","293","373439","0.0-1.0-402.0-0.0","0","0","48171","","null","","","null","44","","","","","","","","","","","","","","","",""
"","time_out","","html-keyboard-response","294","375448","0.0-1.0-404.0-0.0","0","0","48171","","null","","","null","44","","","","","","","","","","","","","","","",""
"","ITI","","html-keyboard-response","295","376456","0.0-1.0-405.0","0","0","48171","","null","","","null","44","","","","","","","","","","","","","","","NaN",""
"","S1","","html-keyboard-response","296","376711","0.0-1.0-407.0","0","0","48171","","null","","","null","45","","","","","","","","","","","","","","","",""
"","ISI","","html-keyboard-response","297","377719","0.0-1.0-408.0","0","0","48171","","null","","","null","45","NaN","","","","","","","","","","","","","","",""
"","S2","","html-keyboard-response","298","377975","0.0-1.0-409.0","0","0","48171","","null","","","null","45","","NaN","","","","","","","","","","","","","",""
"","response","","html-keyboard-response","299","378209","0.0-1.0-410.0-0.0","0","0","48171","","231","","","75","45","","","1","45","training","adjacent","DC","4","3","O.jpg","P.jpg","1","0","0","",""
"","feedback","","html-keyboard-response","300","379216","0.0-1.0-411.0-0.0","0","0","48171","","null","","","null","45","","","","","","","","","","","","","","","",""
"","time_out","","html-keyboard-response","301","381224","0.0-1.0-413.0-0.0","0","0","48171","","null","","","null","45","","","","","","","","","","","","","","","",""
"","ITI","","html-keyboard-response","302","382231","0.0-1.0-414.0","0","0","48171","","null","","","null","45","","","","","","","","","","","","","","","NaN",""
"","S1","","html-keyboard-response","303","382487","0.0-1.0-416.0","0","0","48171","","null","","","null","46","","","","","","","","","","","","","","","",""
"","ISI","","html-keyboard-response","304","383495","0.0-1.0-417.0","0","0","48171","","null","","","null","46","NaN","","","","","","","","","","","","","","",""
"","S2","","html-keyboard-response","305","383751","0.0-1.0-418.0","0","0","48171","","null","","","null","46","","NaN","","","","","","","","","","","","","",""
"","response","","html-keyboard-response","306","384221","0.0-1.0-419.0-0.0","0","0","48171","","467","","","68","46","","","1","46","training","adjacent","AB","1","2","L.jpg","R.jpg","0","1","0","",""
"","feedback","","html-keyboard-response","307","385231","0.0-1.0-420.0-0.0","0","0","48171","","null","","","null","46","","","","","","","","","","","","","","","",""
"","time_out","","html-keyboard-response","308","387239","0.0-1.0-422.0-0.0","0","0","48171","","null","","","null","46","","","","","","","","","","","","","","","",""
"","ITI","","html-keyboard-response","309","388247","0.0-1.0-423.0","0","0","48171","","null","","","null","46","","","","","","","","","","","","","","","NaN",""
"","S1","","html-keyboard-response","310","388504","0.0-1.0-425.0","0","0","48171","","null","","","null","47","","","","","","","","","","","","","","","",""
"","ISI","","html-keyboard-response","311","389511","0.0-1.0-426.0","0","0","48171","","null","","","null","47","NaN","","","","","","","","","","","","","","",""
"","S2","","html-keyboard-response","312","389768","0.0-1.0-427.0","0","0","48171","","null","","","null","47","","NaN","","","","","","","","","","","","","",""
"","response","","html-keyboard-response","313","389983","0.0-1.0-428.0-0.0","0","0","48171","","212","","","68","47","","","1","47","training","adjacent","FG","6","7","Q.jpg","M.jpg","0","1","0","",""
"","feedback","","html-keyboard-response","314","390991","0.0-1.0-429.0-0.0","0","0","48171","","null","","","null","47","","","","","","","","","","","","","","","",""
"","time_out","","html-keyboard-response","315","392999","0.0-1.0-431.0-0.0","0","0","48171","","null","","","null","47","","","","","","","","","","","","","","","",""
"","ITI","","html-keyboard-response","316","394007","0.0-1.0-432.0","0","0","48171","","null","","","null","47","","","","","","","","","","","","","","","NaN",""
"","block_over","","html-keyboard-response","317","404585","0.0-1.0-433.0-0.0","0","0","48171","","10574","","","32","47","","","","","","","","","","","","","","","",""
"","S1","","html-keyboard-response","318","404848","0.0-1.0-434.0","0","0","48171","","null","","","null","48","","","","","","","","","","","","","","","",""
"","ISI","","html-keyboard-response","319","405855","0.0-1.0-435.0","0","0","48171","","null","","","null","48","NaN","","","","","","","","","","","","","","",""
"","S2","","html-keyboard-response","320","406111","0.0-1.0-436.0","0","0","48171","","null","","","null","48","","NaN","","","","","","","","","","","","","",""
"","response","","html-keyboard-response","321","406718","0.0-1.0-437.0-0.0","0","0","48171","","604","","","68","48","","","2","48","training","adjacent","DE","4","5","O.jpg","N.jpg","0","1","0","",""
"","feedback","","html-keyboard-response","322","407727","0.0-1.0-438.0-0.0","0","0","48171","","null","","","null","48","","","","","","","","","","","","","","","",""
"","time_out","","html-keyboard-response","323","409735","0.0-1.0-440.0-0.0","0","0","48171","","null","","","null","48","","","","","","","","","","","","","","","",""
"","ITI","","html-keyboard-response","324","410743","0.0-1.0-441.0","0","0","48171","","null","","","null","48","","","","","","","","","","","","","","","NaN",""
"","S1","","html-keyboard-response","325","411001","0.0-1.0-443.0","0","0","48171","","null","","","null","49","","","","","","","","","","","","","","","",""
"","ISI","","html-keyboard-response","326","412006","0.0-1.0-444.0","0","0","48171","","null","","","null","49","NaN","","","","","","","","","","","","","","",""
"","S2","","html-keyboard-response","327","412263","0.0-1.0-445.0","0","0","48171","","null","","","null","49","","NaN","","","","","","","","","","","","","",""
"","response","","html-keyboard-response","328","412812","0.0-1.0-446.0-0.0","0","0","48171","","546","","","75","49","","","2","49","training","adjacent","GF","7","6","M.jpg","Q.jpg","1","0","0","",""
"","feedback","","html-keyboard-response","329","413824","0.0-1.0-447.0-0.0","0","0","48171","","null","","","null","49","","","","","","","","","","","","","","","",""
"","time_out","","html-keyboard-response","330","415831","0.0-1.0-449.0-0.0","0","0","48171","","null","","","null","49","","","","","","","","","","","","","","","",""
"","ITI","","html-keyboard-response","331","416840","0.0-1.0-450.0","0","0","48171","","null","","","null","49","","","","","","","","","","","","","","","NaN",""
"","S1","","html-keyboard-response","332","417095","0.0-1.0-452.0","0","0","48171","","null","","","null","50","","","","","","","","","","","","","","","",""
"","ISI","","html-keyboard-response","333","418103","0.0-1.0-453.0","0","0","48171","","null","","","null","50","NaN","","","","","","","","","","","","","","",""
"","S2","","html-keyboard-response","334","418359","0.0-1.0-454.0","0","0","48171","","null","","","null","50","","NaN","","","","","","","","","","","","","",""
"","response","","html-keyboard-response","335","418686","0.0-1.0-455.0-0.0","0","0","48171","","323","","","75","50","","","2","50","training","adjacent","EF","5","6","N.jpg","Q.jpg","1","1","1","",""
"","feedback","","html-keyboard-response","336","419696","0.0-1.0-456.0-0.0","0","0","48171","","null","","","null","50","","","","","","","","","","","","","","","",""
"","ITI","","html-keyboard-response","337","420702","0.0-1.0-459.0","0","0","48171","","null","","","null","50","","","","","","","","","","","","","","","NaN",""
"","S1","","html-keyboard-response","338","420959","0.0-1.0-461.0","0","0","48171","","null","","","null","51","","","","","","","","","","","","","","","",""
"","ISI","","html-keyboard-response","339","421968","0.0-1.0-462.0","0","0","48171","","null","","","null","51","NaN","","","","","","","","","","","","","","",""
"","S2","","html-keyboard-response","340","422224","0.0-1.0-463.0","0","0","48171","","null","","","null","51","","NaN","","","","","","","","","","","","","",""
"","response","","html-keyboard-response","341","422948","0.0-1.0-464.0-0.0","0","0","48171","","720","","","75","51","","","2","51","training","adjacent","DE","4","5","O.jpg","N.jpg","1","1","1","",""
"","feedback","","html-keyboard-response","342","423960","0.0-1.0-465.0-0.0","0","0","48171","","null","","","null","51","","","","","","","","","","","","","","","",""
"","ITI","","html-keyboard-response","343","424968","0.0-1.0-468.0","0","0","48171","","null","","","null","51","","","","","","","","","","","","","","","NaN",""
"","S1","","html-keyboard-response","344","425223","0.0-1.0-470.0","0","0","48171","","null","","","null","52","","","","","","","","","","","","","","","",""
"","ISI","","html-keyboard-response","345","426232","0.0-1.0-471.0","0","0","48171","","null","","","null","52","NaN","","","","","","","","","","","","","","",""
"","S2","","html-keyboard-response","346","426487","0.0-1.0-472.0","0","0","48171","","null","","","null","52","","NaN","","","","","","","","","","","","","",""
"","response","","html-keyboard-response","347","426942","0.0-1.0-473.0-0.0","0","0","48171","","451","","","68","52","","","2","52","training","adjacent","DC","4","3","O.jpg","P.jpg","0","0","1","",""
"","feedback","","html-keyboard-response","348","427951","0.0-1.0-474.0-0.0","0","0","48171","","null","","","null","52","","","","","","","","","","","","","","","",""
"","ITI","","html-keyboard-response","349","428959","0.0-1.0-477.0","0","0","48171","","null","","","null","52","","","","","","","","","","","","","","","NaN",""
"","S1","","html-keyboard-response","350","429215","0.0-1.0-479.0","0","0","48171","","null","","","null","53","","","","","","","","","","","","","","","",""
"","ISI","","html-keyboard-response","351","430224","0.0-1.0-480.0","0","0","48171","","null","","","null","53","NaN","","","","","","","","","","","","","","",""
"","S2","","html-keyboard-response","352","430480","0.0-1.0-481.0","0","0","48171","","null","","","null","53","","NaN","","","","","","","","","","","","","",""
"","response","","html-keyboard-response","353","431346","0.0-1.0-482.0-0.0","0","0","48171","","862","","","75","53","","","2","53","training","adjacent","BC","2","3","R.jpg","P.jpg","1","1","1","",""
"","feedback","","html-keyboard-response","354","432350","0.0-1.0-483.0-0.0","0","0","48171","","null","","","null","53","","","","","","","","","","","","","","","",""
"","ITI","","html-keyboard-response","355","433359","0.0-1.0-486.0","0","0","48171","","null","","","null","53","","","","","","","","","","","","","","","NaN",""
"","S1","","html-keyboard-response","356","433616","0.0-1.0-488.0","0","0","48171","","null","","","null","54","","","","","","","","","","","","","","","",""
"","ISI","","html-keyboard-response","357","434623","0.0-1.0-489.0","0","0","48171","","null","","","null","54","NaN","","","","","","","","","","","","","","",""
"","S2","","html-keyboard-response","358","434881","0.0-1.0-490.0","0","0","48171","","null","","","null","54","","NaN","","","","","","","","","","","","","",""
"","response","","html-keyboard-response","359","435030","0.0-1.0-491.0-0.0","0","0","48171","","145","","","68","54","","","2","54","training","adjacent","FG","6","7","Q.jpg","M.jpg","0","1","0","",""
"","feedback","","html-keyboard-response","360","436039","0.0-1.0-492.0-0.0","0","0","48171","","null","","","null","54","","","","","","","","","","","","","","","",""
"","time_out","","html-keyboard-response","361","438047","0.0-1.0-494.0-0.0","0","0","48171","","null","","","null","54","","","","","","","","","","","","","","","",""
"","ITI","","html-keyboard-response","362","439056","0.0-1.0-495.0","0","0","48171","","null","","","null","54","","","","","","","","","","","","","","","NaN",""
"","S1","","html-keyboard-response","363","439313","0.0-1.0-497.0","0","0","48171","","null","","","null","55","","","","","","","","","","","","","","","",""
"","ISI","","html-keyboard-response","364","440320","0.0-1.0-498.0","0","0","48171","","null","","","null","55","NaN","","","","","","","","","","","","","","",""
"","S2","","html-keyboard-response","365","440576","0.0-1.0-499.0","0","0","48171","","null","","","null","55","","NaN","","","","","","","","","","","","","",""
"","response","","html-keyboard-response","366","440911","0.0-1.0-500.0-0.0","0","0","48171","","331","","","75","55","","","2","55","training","adjacent","EF","5","6","N.jpg","Q.jpg","1","1","1","",""
"","feedback","","html-keyboard-response","367","441919","0.0-1.0-501.0-0.0","0","0","48171","","null","","","null","55","","","","","","","","","","","","","","","",""
"","ITI","","html-keyboard-response","368","442926","0.0-1.0-504.0","0","0","48171","","null","","","null","55","","","","","","","","","","","","","","","NaN",""
"","S1","","html-keyboard-response","369","443184","0.0-1.0-506.0","0","0","48171","","null","","","null","56","","","","","","","","","","","","","","","",""
"","ISI","","html-keyboard-response","370","444191","0.0-1.0-507.0","0","0","48171","","null","","","null","56","NaN","","","","","","","","","","","","","","",""
"","S2","","html-keyboard-response","371","444448","0.0-1.0-508.0","0","0","48171","","null","","","null","56","","NaN","","","","","","","","","","","","","",""
"","response","","html-keyboard-response","372","444730","0.0-1.0-509.0-0.0","0","0","48171","","279","","","75","56","","","2","56","training","adjacent","DC","4","3","O.jpg","P.jpg","1","0","0","",""
"","feedback","","html-keyboard-response","373","445735","0.0-1.0-510.0-0.0","0","0","48171","","null","","","null","56","","","","","","","","","","","","","","","",""
"","time_out","","html-keyboard-response","374","447742","0.0-1.0-512.0-0.0","0","0","48171","","null","","","null","56","","","","","","","","","","","","","","","",""
"","ITI","","html-keyboard-response","375","448751","0.0-1.0-513.0","0","0","48171","","null","","","null","56","","","","","","","","","","","","","","","NaN",""
"","S1","","html-keyboard-response","376","449007","0.0-1.0-515.0","0","0","48171","","null","","","null","57","","","","","","","","","","","","","","","",""
"","ISI","","html-keyboard-response","377","450015","0.0-1.0-516.0","0","0","48171","","null","","","null","57","NaN","","","","","","","","","","","","","","",""
"","S2","","html-keyboard-response","378","450271","0.0-1.0-517.0","0","0","48171","","null","","","null","57","","NaN","","","","","","","","","","","","","",""
"","response","","html-keyboard-response","379","450618","0.0-1.0-518.0-0.0","0","0","48171","","343","","","75","57","","","2","57","training","adjacent","BC","2","3","R.jpg","P.jpg","1","1","1","",""
"","feedback","","html-keyboard-response","380","451624","0.0-1.0-519.0-0.0","0","0","48171","","null","","","null","57","","","","","","","","","","","","","","","",""
"","ITI","","html-keyboard-response","381","452631","0.0-1.0-522.0","0","0","48171","","null","","","null","57","","","","","","","","","","","","","","","NaN",""
"","S1","","html-keyboard-response","382","452887","0.0-1.0-524.0","0","0","48171","","null","","","null","58","","","","","","","","","","","","","","","",""
"","ISI","","html-keyboard-response","383","453895","0.0-1.0-525.0","0","0","48171","","null","","","null","58","NaN","","","","","","","","","","","","","","",""
"","S2","","html-keyboard-response","384","454151","0.0-1.0-526.0","0","0","48171","","null","","","null","58","","NaN","","","","","","","","","","","","","",""
"","response","","html-keyboard-response","385","454616","0.0-1.0-527.0-0.0","0","0","48171","","462","","","68","58","","","2","58","training","adjacent","CD","3","4","P.jpg","O.jpg","0","1","0","",""
"","feedback","","html-keyboard-response","386","455623","0.0-1.0-528.0-0.0","0","0","48171","","null","","","null","58","","","","","","","","","","","","","","","",""
"","time_out","","html-keyboard-response","387","457631","0.0-1.0-530.0-0.0","0","0","48171","","null","","","null","58","","","","","","","","","","","","","","","",""
"","ITI","","html-keyboard-response","388","458640","0.0-1.0-531.0","0","0","48171","","null","","","null","58","","","","","","","","","","","","","","","NaN",""
"","S1","","html-keyboard-response","389","458896","0.0-1.0-533.0","0","0","48171","","null","","","null","59","","","","","","","","","","","","","","","",""
"","ISI","","html-keyboard-response","390","459903","0.0-1.0-534.0","0","0","48171","","null","","","null","59","NaN","","","","","","","","","","","","","","",""
"","S2","","html-keyboard-response","391","460159","0.0-1.0-535.0","0","0","48171","","null","","","null","59","","NaN","","","","","","","","","","","","","",""
"","response","","html-keyboard-response","392","460361","0.0-1.0-536.0-0.0","0","0","48171","","199","","","75","59","","","2","59","training","adjacent","DE","4","5","O.jpg","N.jpg","1","1","1","",""
"","feedback","","html-keyboard-response","393","461367","0.0-1.0-537.0-0.0","0","0","48171","","null","","","null","59","","","","","","","","","","","","","","","",""
"","ITI","","html-keyboard-response","394","462374","0.0-1.0-540.0","0","0","48171","","null","","","null","59","","","","","","","","","","","","","","","NaN",""
"","S1","","html-keyboard-response","395","462631","0.0-1.0-542.0","0","0","48171","","null","","","null","60","","","","","","","","","","","","","","","",""
"","ISI","","html-keyboard-response","396","463640","0.0-1.0-543.0","0","0","48171","","null","","","null","60","NaN","","","","","","","","","","","","","","",""
"","S2","","html-keyboard-response","397","463897","0.0-1.0-544.0","0","0","48171","","null","","","null","60","","NaN","","","","","","","","","","","","","",""
"","response","","html-keyboard-response","398","464150","0.0-1.0-545.0-0.0","0","0","48171","","249","","","75","60","","","2","60","training","adjacent","EF","5","6","N.jpg","Q.jpg","1","1","1","",""
"","feedback","","html-keyboard-response","399","465159","0.0-1.0-546.0-0.0","0","0","48171","","null","","","null","60","","","","","","","","","","","","","","","",""
"","ITI","","html-keyboard-response","400","466168","0.0-1.0-549.0","0","0","48171","","null","","","null","60","","","","","","","","","","","","","","","NaN",""
"","S1","","html-keyboard-response","401","466424","0.0-1.0-551.0","0","0","48171","","null","","","null","61","","","","","","","","","","","","","","","",""
"","ISI","","html-keyboard-response","402","467431","0.0-1.0-552.0","0","0","48171","","null","","","null","61","NaN","","","","","","","","","","","","","","",""
"","S2","","html-keyboard-response","403","467688","0.0-1.0-553.0","0","0","48171","","null","","","null","61","","NaN","","","","","","","","","","","","","",""
"","response","","html-keyboard-response","404","468141","0.0-1.0-554.0-0.0","0","0","48171","","449","","","68","61","","","2","61","training","adjacent","FE","6","5","Q.jpg","N.jpg","0","0","1","",""
"","feedback","","html-keyboard-response","405","469151","0.0-1.0-555.0-0.0","0","0","48171","","null","","","null","61","","","","","","","","","","","","","","","",""
"","ITI","","html-keyboard-response","406","470160","0.0-1.0-558.0","0","0","48171","","null","","","null","61","","","","","","","","","","","","","","","NaN",""
"","S1","","html-keyboard-response","407","470416","0.0-1.0-560.0","0","0","48171","","null","","","null","62","","","","","","","","","","","","","","","",""
"","ISI","","html-keyboard-response","408","471424","0.0-1.0-561.0","0","0","48171","","null","","","null","62","NaN","","","","","","","","","","","","","","",""
"","S2","","html-keyboard-response","409","471679","0.0-1.0-562.0","0","0","48171","","null","","","null","62","","NaN","","","","","","","","","","","","","",""
"","response","","html-keyboard-response","410","471772","0.0-1.0-563.0-0.0","0","0","48171","","91","","","75","62","","","2","62","training","adjacent","CB","3","2","P.jpg","R.jpg","1","0","0","",""
"","feedback","","html-keyboard-response","411","472784","0.0-1.0-564.0-0.0","0","0","48171","","null","","","null","62","","","","","","","","","","","","","","","",""
"","time_out","","html-keyboard-response","412","474791","0.0-1.0-566.0-0.0","0","0","48171","","null","","","null","62","","","","","","","","","","","","","","","",""
"","ITI","","html-keyboard-response","413","475798","0.0-1.0-567.0","0","0","48171","","null","","","null","62","","","","","","","","","","","","","","","NaN",""
"","S1","","html-keyboard-response","414","476057","0.0-1.0-569.0","0","0","48171","","null","","","null","63","","","","","","","","","","","","","","","",""
"","ISI","","html-keyboard-response","415","477063","0.0-1.0-570.0","0","0","48171","","null","","","null","63","NaN","","","","","","","","","","","","","","",""
"","S2","","html-keyboard-response","416","477319","0.0-1.0-571.0","0","0","48171","","null","","","null","63","","NaN","","","","","","","","","","","","","",""
"","response","","html-keyboard-response","417","477800","0.0-1.0-572.0-0.0","0","0","48171","","477","","","68","63","","","2","63","training","adjacent","GF","7","6","M.jpg","Q.jpg","0","0","1","",""
"","feedback","","html-keyboard-response","418","478807","0.0-1.0-573.0-0.0","0","0","48171","","null","","","null","63","","","","","","","","","","","","","","","",""
"","ITI","","html-keyboard-response","419","479814","0.0-1.0-576.0","0","0","48171","","null","","","null","63","","","","","","","","","","","","","","","NaN",""
"","S1","","html-keyboard-response","420","480071","0.0-1.0-578.0","0","0","48171","","null","","","null","64","","","","","","","","","","","","","","","",""
"","ISI","","html-keyboard-response","421","481080","0.0-1.0-579.0","0","0","48171","","null","","","null","64","NaN","","","","","","","","","","","","","","",""
"","S2","","html-keyboard-response","422","481336","0.0-1.0-580.0","0","0","48171","","null","","","null","64","","NaN","","","","","","","","","","","","","",""
"","response","","html-keyboard-response","423","481839","0.0-1.0-581.0-0.0","0","0","48171","","498","","","68","64","","","2","64","training","adjacent","AB","1","2","L.jpg","R.jpg","0","1","0","",""
"","feedback","","html-keyboard-response","424","482847","0.0-1.0-582.0-0.0","0","0","48171","","null","","","null","64","","","","","","","","","","","","","","","",""
"","time_out","","html-keyboard-response","425","484855","0.0-1.0-584.0-0.0","0","0","48171","","null","","","null","64","","","","","","","","","","","","","","","",""
"","ITI","","html-keyboard-response","426","485864","0.0-1.0-585.0","0","0","48171","","null","","","null","64","","","","","","","","","","","","","","","NaN",""
"","S1","","html-keyboard-response","427","486119","0.0-1.0-587.0","0","0","48171","","null","","","null","65","","","","","","","","","","","","","","","",""
"","ISI","","html-keyboard-response","428","487127","0.0-1.0-588.0","0","0","48171","","null","","","null","65","NaN","","","","","","","","","","","","","","",""
"","S2","","html-keyboard-response","429","487383","0.0-1.0-589.0","0","0","48171","","null","","","null","65","","NaN","","","","","","","","","","","","","",""
"","response","","html-keyboard-response","430","487879","0.0-1.0-590.0-0.0","0","0","48171","","491","","","75","65","","","2","65","training","adjacent","AB","1","2","L.jpg","R.jpg","1","1","1","",""
"","feedback","","html-keyboard-response","431","488887","0.0-1.0-591.0-0.0","0","0","48171","","null","","","null","65","","","","","","","","","","","","","","","",""
"","ITI","","html-keyboard-response","432","489895","0.0-1.0-594.0","0","0","48171","","null","","","null","65","","","","","","","","","","","","","","","NaN",""
"","S1","","html-keyboard-response","433","490151","0.0-1.0-596.0","0","0","48171","","null","","","null","66","","","","","","","","","","","","","","","",""
"","ISI","","html-keyboard-response","434","491159","0.0-1.0-597.0","0","0","48171","","null","","","null","66","NaN","","","","","","","","","","","","","","",""
"","S2","","html-keyboard-response","435","491416","0.0-1.0-598.0","0","0","48171","","null","","","null","66","","NaN","","","","","","","","","","","","","",""
"","response","","html-keyboard-response","436","491811","0.0-1.0-599.0-0.0","0","0","48171","","392","","","68","66","","","2","66","training","adjacent","AB","1","2","L.jpg","R.jpg","0","1","0","",""
"","feedback","","html-keyboard-response","437","492817","0.0-1.0-600.0-0.0","0","0","48171","","null","","","null","66","","","","","","","","","","","","","","","",""
"","time_out","","html-keyboard-response","438","494823","0.0-1.0-602.0-0.0","0","0","48171","","null","","","null","66","","","","","","","","","","","","","","","",""
"","ITI","","html-keyboard-response","439","495830","0.0-1.0-603.0","0","0","48171","","null","","","null","66","","","","","","","","","","","","","","","NaN",""
"","S1","","html-keyboard-response","440","496088","0.0-1.0-605.0","0","0","48171","","null","","","null","67","","","","","","","","","","","","","","","",""
"","ISI","","html-keyboard-response","441","497095","0.0-1.0-606.0","0","0","48171","","null","","","null","67","NaN","","","","","","","","","","","","","","",""
"","S2","","html-keyboard-response","442","497351","0.0-1.0-607.0","0","0","48171","","null","","","null","67","","NaN","","","","","","","","","","","","","",""
"","response","","html-keyboard-response","443","497943","0.0-1.0-608.0-0.0","0","0","48171","","588","","","68","67","","","2","67","training","adjacent","ED","5","4","N.jpg","O.jpg","0","0","1","",""
"","feedback","","html-keyboard-response","444","498951","0.0-1.0-609.0-0.0","0","0","48171","","null","","","null","67","","","","","","","","","","","","","","","",""
"","ITI","","html-keyboard-response","445","499960","0.0-1.0-612.0","0","0","48171","","null","","","null","67","","","","","","","","","","","","","","","NaN",""
"","S1","","html-keyboard-response","446","500217","0.0-1.0-614.0","0","0","48171","","null","","","null","68","","","","","","","","","","","","","","","",""
"","ISI","","html-keyboard-response","447","501223","0.0-1.0-615.0","0","0","48171","","null","","","null","68","NaN","","","","","","","","","","","","","","",""
"","S2","","html-keyboard-response","448","501480","0.0-1.0-616.0","0","0","48171","","null","","","null","68","","NaN","","","","","","","","","","","","","",""
"","response","","html-keyboard-response","449","501841","0.0-1.0-617.0-0.0","0","0","48171","","356","","","75","68","","","2","68","training","adjacent","CD","3","4","P.jpg","O.jpg","1","1","1","",""
"","feedback","","html-keyboard-response","450","502847","0.0-1.0-618.0-0.0","0","0","48171","","null","","","null","68","","","","","","","","","","","","","","","",""
"","ITI","","html-keyboard-response","451","503854","0.0-1.0-621.0","0","0","48171","","null","","","null","68","","","","","","","","","","","","","","","NaN",""
"","S1","","html-keyboard-response","452","504112","0.0-1.0-623.0","0","0","48171","","null","","","null","69","","","","","","","","","","","","","","","",""
"","ISI","","html-keyboard-response","453","505120","0.0-1.0-624.0","0","0","48171","","null","","","null","69","NaN","","","","","","","","","","","","","","",""
"","S2","","html-keyboard-response","454","505376","0.0-1.0-625.0","0","0","48171","","null","","","null","69","","NaN","","","","","","","","","","","","","",""
"","response","","html-keyboard-response","455","505784","0.0-1.0-626.0-0.0","0","0","48171","","405","","","68","69","","","2","69","training","adjacent","CB","3","2","P.jpg","R.jpg","0","0","1","",""
"","feedback","","html-keyboard-response","456","506791","0.0-1.0-627.0-0.0","0","0","48171","","null","","","null","69","","","","","","","","","","","","","","","",""
"","ITI","","html-keyboard-response","457","507799","0.0-1.0-630.0","0","0","48171","","null","","","null","69","","","","","","","","","","","","","","","NaN",""
"","S1","","html-keyboard-response","458","508055","0.0-1.0-632.0","0","0","48171","","null","","","null","70","","","","","","","","","","","","","","","",""
"","ISI","","html-keyboard-response","459","509063","0.0-1.0-633.0","0","0","48171","","null","","","null","70","NaN","","","","","","","","","","","","","","",""
"","S2","","html-keyboard-response","460","509319","0.0-1.0-634.0","0","0","48171","","null","","","null","70","","NaN","","","","","","","","","","","","","",""
"","response","","html-keyboard-response","461","511079","0.0-1.0-635.0-0.0","0","0","48171","","null","","","null","70","","","2","70","training","adjacent","ED","5","4","N.jpg","O.jpg","NaN","0","0","",""
"","too_slow_prompt","","html-keyboard-response","462","512087","0.0-1.0-637.0-0.0","1","0","48171","","null","","","null","","","","","","","","","","","","","","","","",""
"","time_out","","html-keyboard-response","463","514095","0.0-1.0-638.0-0.0","0","0","48171","","null","","","null","70","","","","","","","","","","","","","","","",""
"","ITI","","html-keyboard-response","464","515103","0.0-1.0-639.0","0","0","48171","","null","","","null","70","","","","","","","","","","","","","","","NaN",""
"","S1","","html-keyboard-response","465","515359","0.0-1.0-641.0","0","0","48171","","null","","","null","71","","","","","","","","","","","","","","","",""
"","ISI","","html-keyboard-response","466","516367","0.0-1.0-642.0","0","0","48171","","null","","","null","71","NaN","","","","","","","","","","","","","","",""
"","S2","","html-keyboard-response","467","516624","0.0-1.0-643.0","0","0","48171","","null","","","null","71","","NaN","","","","","","","","","","","","","",""
"","response","","html-keyboard-response","468","517718","0.0-1.0-644.0-0.0","0","0","48171","","1090","","","68","71","","","2","71","training","adjacent","BA","2","1","R.jpg","L.jpg","0","0","1","",""
"","feedback","","html-keyboard-response","469","518727","0.0-1.0-645.0-0.0","0","0","48171","","null","","","null","71","","","","","","","","","","","","","","","",""
"","ITI","","html-keyboard-response","470","519735","0.0-1.0-648.0","0","0","48171","","null","","","null","71","","","","","","","","","","","","","","","NaN",""
"","S1","","html-keyboard-response","471","519991","0.0-1.0-650.0","0","0","48171","","null","","","null","72","","","","","","","","","","","","","","","",""
"","ISI","","html-keyboard-response","472","520999","0.0-1.0-651.0","0","0","48171","","null","","","null","72","NaN","","","","","","","","","","","","","","",""
"","S2","","html-keyboard-response","473","521255","0.0-1.0-652.0","0","0","48171","","null","","","null","72","","NaN","","","","","","","","","","","","","",""
"","response","","html-keyboard-response","474","521410","0.0-1.0-653.0-0.0","0","0","48171","","150","","","68","72","","","2","72","training","adjacent","FG","6","7","Q.jpg","M.jpg","0","1","0","",""
"","feedback","","html-keyboard-response","475","522423","0.0-1.0-654.0-0.0","0","0","48171","","null","","","null","72","","","","","","","","","","","","","","","",""
"","time_out","","html-keyboard-response","476","524431","0.0-1.0-656.0-0.0","0","0","48171","","null","","","null","72","","","","","","","","","","","","","","","",""
"","ITI","","html-keyboard-response","477","525440","0.0-1.0-657.0","0","0","48171","","null","","","null","72","","","","","","","","","","","","","","","NaN",""
"","S1","","html-keyboard-response","478","525695","0.0-1.0-659.0","0","0","48171","","null","","","null","73","","","","","","","","","","","","","","","",""
"","ISI","","html-keyboard-response","479","526704","0.0-1.0-660.0","0","0","48171","","null","","","null","73","NaN","","","","","","","","","","","","","","",""
"","S2","","html-keyboard-response","480","526960","0.0-1.0-661.0","0","0","48171","","null","","","null","73","","NaN","","","","","","","","","","","","","",""
"","response","","html-keyboard-response","481","527036","0.0-1.0-662.0-0.0","0","0","48171","","71","","","75","73","","","2","73","training","adjacent","BA","2","1","R.jpg","L.jpg","1","0","0","",""
"","feedback","","html-keyboard-response","482","528047","0.0-1.0-663.0-0.0","0","0","48171","","null","","","null","73","","","","","","","","","","","","","","","",""
"","time_out","","html-keyboard-response","483","530055","0.0-1.0-665.0-0.0","0","0","48171","","null","","","null","73","","","","","","","","","","","","","","","",""
"","ITI","","html-keyboard-response","484","531064","0.0-1.0-666.0","0","0","48171","","null","","","null","73","","","","","","","","","","","","","","","NaN",""
"","S1","","html-keyboard-response","485","531320","0.0-1.0-668.0","0","0","48171","","null","","","null","74","","","","","","","","","","","","","","","",""
"","ISI","","html-keyboard-response","486","532327","0.0-1.0-669.0","0","0","48171","","null","","","null","74","NaN","","","","","","","","","","","","","","",""
"","S2","","html-keyboard-response","487","532583","0.0-1.0-670.0","0","0","48171","","null","","","null","74","","NaN","","","","","","","","","","","","","",""
"","response","","html-keyboard-response","488","532897","0.0-1.0-671.0-0.0","0","0","48171","","311","","","68","74","","","2","74","training","adjacent","CD","3","4","P.jpg","O.jpg","0","1","0","",""
"","feedback","","html-keyboard-response","489","533904","0.0-1.0-672.0-0.0","0","0","48171","","null","","","null","74","","","","","","","","","","","","","","","",""
"","time_out","","html-keyboard-response","490","535910","0.0-1.0-674.0-0.0","0","0","48171","","null","","","null","74","","","","","","","","","","","","","","","",""
"","ITI","","html-keyboard-response","491","536919","0.0-1.0-675.0","0","0","48171","","null","","","null","74","","","","","","","","","","","","","","","NaN",""
"","S1","","html-keyboard-response","492","537176","0.0-1.0-677.0","0","0","48171","","null","","","null","75","","","","","","","","","","","","","","","",""
"","ISI","","html-keyboard-response","493","538183","0.0-1.0-678.0","0","0","48171","","null","","","null","75","NaN","","","","","","","","","","","","","","",""
"","S2","","html-keyboard-response","494","538439","0.0-1.0-679.0","0","0","48171","","null","","","null","75","","NaN","","","","","","","","","","","","","",""
"","response","","html-keyboard-response","495","539246","0.0-1.0-680.0-0.0","0","0","48171","","804","","","68","75","","","2","75","training","adjacent","GF","7","6","M.jpg","Q.jpg","0","0","1","",""
"","feedback","","html-keyboard-response","496","540255","0.0-1.0-681.0-0.0","0","0","48171","","null","","","null","75","","","","","","","","","","","","","","","",""
"","ITI","","html-keyboard-response","497","541264","0.0-1.0-684.0","0","0","48171","","null","","","null","75","","","","","","","","","","","","","","","NaN",""
"","S1","","html-keyboard-response","498","541519","0.0-1.0-686.0","0","0","48171","","null","","","null","76","","","","","","","","","","","","","","","",""
"","ISI","","html-keyboard-response","499","542528","0.0-1.0-687.0","0","0","48171","","null","","","null","76","NaN","","","","","","","","","","","","","","",""
"","S2","","html-keyboard-response","500","542784","0.0-1.0-688.0","0","0","48171","","null","","","null","76","","NaN","","","","","","","","","","","","","",""
"","response","","html-keyboard-response","501","543129","0.0-1.0-689.0-0.0","0","0","48171","","341","","","75","76","","","2","76","training","adjacent","FE","6","5","Q.jpg","N.jpg","1","0","0","",""
"","feedback","","html-keyboard-response","502","544135","0.0-1.0-690.0-0.0","0","0","48171","","null","","","null","76","","","","","","","","","","","","","","","",""
"","time_out","","html-keyboard-response","503","546144","0.0-1.0-692.0-0.0","0","0","48171","","null","","","null","76","","","","","","","","","","","","","","","",""
"","ITI","","html-keyboard-response","504","547151","0.0-1.0-693.0","0","0","48171","","null","","","null","76","","","","","","","","","","","","","","","NaN",""
"","S1","","html-keyboard-response","505","547408","0.0-1.0-695.0","0","0","48171","","null","","","null","77","","","","","","","","","","","","","","","",""
"","ISI","","html-keyboard-response","506","548414","0.0-1.0-696.0","0","0","48171","","null","","","null","77","NaN","","","","","","","","","","","","","","",""
"","S2","","html-keyboard-response","507","548670","0.0-1.0-697.0","0","0","48171","","null","","","null","77","","NaN","","","","","","","","","","","","","",""
"","response","","html-keyboard-response","508","549386","0.0-1.0-698.0-0.0","0","0","48171","","712","","","75","77","","","2","77","training","adjacent","FG","6","7","Q.jpg","M.jpg","1","1","1","",""
"","feedback","","html-keyboard-response","509","550390","0.0-1.0-699.0-0.0","0","0","48171","","null","","","null","77","","","","","","","","","","","","","","","",""
"","ITI","","html-keyboard-response","510","551399","0.0-1.0-702.0","0","0","48171","","null","","","null","77","","","","","","","","","","","","","","","NaN",""
"","S1","","html-keyboard-response","511","551656","0.0-1.0-704.0","0","0","48171","","null","","","null","78","","","","","","","","","","","","","","","",""
"","ISI","","html-keyboard-response","512","552664","0.0-1.0-705.0","0","0","48171","","null","","","null","78","NaN","","","","","","","","","","","","","","",""
"","S2","","html-keyboard-response","513","552920","0.0-1.0-706.0","0","0","48171","","null","","","null","78","","NaN","","","","","","","","","","","","","",""
"","response","","html-keyboard-response","514","553717","0.0-1.0-707.0-0.0","0","0","48171","","793","","","75","78","","","2","78","training","adjacent","EF","5","6","N.jpg","Q.jpg","1","1","1","",""
"","feedback","","html-keyboard-response","515","554727","0.0-1.0-708.0-0.0","0","0","48171","","null","","","null","78","","","","","","","","","","","","","","","",""
"","ITI","","html-keyboard-response","516","555735","0.0-1.0-711.0","0","0","48171","","null","","","null","78","","","","","","","","","","","","","","","NaN",""
"","S1","","html-keyboard-response","517","555990","0.0-1.0-713.0","0","0","48171","","null","","","null","79","","","","","","","","","","","","","","","",""
"","ISI","","html-keyboard-response","518","556999","0.0-1.0-714.0","0","0","48171","","null","","","null","79","NaN","","","","","","","","","","","","","","",""
"","S2","","html-keyboard-response","519","557257","0.0-1.0-715.0","0","0","48171","","null","","","null","79","","NaN","","","","","","","","","","","","","",""
"","response","","html-keyboard-response","520","557661","0.0-1.0-716.0-0.0","0","0","48171","","400","","","68","79","","","2","79","training","adjacent","CB","3","2","P.jpg","R.jpg","0","0","1","",""
"","feedback","","html-keyboard-response","521","558671","0.0-1.0-717.0-0.0","0","0","48171","","null","","","null","79","","","","","","","","","","","","","","","",""
"","ITI","","html-keyboard-response","522","559679","0.0-1.0-720.0","0","0","48171","","null","","","null","79","","","","","","","","","","","","","","","NaN",""
"","S1","","html-keyboard-response","523","559935","0.0-1.0-722.0","0","0","48171","","null","","","null","80","","","","","","","","","","","","","","","",""
"","ISI","","html-keyboard-response","524","560943","0.0-1.0-723.0","0","0","48171","","null","","","null","80","NaN","","","","","","","","","","","","","","",""
"","S2","","html-keyboard-response","525","561200","0.0-1.0-724.0","0","0","48171","","null","","","null","80","","NaN","","","","","","","","","","","","","",""
"","response","","html-keyboard-response","526","561826","0.0-1.0-725.0-0.0","0","0","48171","","622","","","75","80","","","2","80","training","adjacent","BC","2","3","R.jpg","P.jpg","1","1","1","",""
"","feedback","","html-keyboard-response","527","562832","0.0-1.0-726.0-0.0","0","0","48171","","null","","","null","80","","","","","","","","","","","","","","","",""
"","ITI","","html-keyboard-response","528","563839","0.0-1.0-729.0","0","0","48171","","null","","","null","80","","","","","","","","","","","","","","","NaN",""
"","S1","","html-keyboard-response","529","564096","0.0-1.0-731.0","0","0","48171","","null","","","null","81","","","","","","","","","","","","","","","",""
"","ISI","","html-keyboard-response","530","565103","0.0-1.0-732.0","0","0","48171","","null","","","null","81","NaN","","","","","","","","","","","","","","",""
"","S2","","html-keyboard-response","531","565360","0.0-1.0-733.0","0","0","48171","","null","","","null","81","","NaN","","","","","","","","","","","","","",""
"","response","","html-keyboard-response","532","565886","0.0-1.0-734.0-0.0","0","0","48171","","523","","","75","81","","","2","81","training","adjacent","GF","7","6","M.jpg","Q.jpg","1","0","0","",""
"","feedback","","html-keyboard-response","533","566895","0.0-1.0-735.0-0.0","0","0","48171","","null","","","null","81","","","","","","","","","","","","","","","",""
"","time_out","","html-keyboard-response","534","568903","0.0-1.0-737.0-0.0","0","0","48171","","null","","","null","81","","","","","","","","","","","","","","","",""
"","ITI","","html-keyboard-response","535","569911","0.0-1.0-738.0","0","0","48171","","null","","","null","81","","","","","","","","","","","","","","","NaN",""
"","S1","","html-keyboard-response","536","570168","0.0-1.0-740.0","0","0","48171","","null","","","null","82","","","","","","","","","","","","","","","",""
"","ISI","","html-keyboard-response","537","571175","0.0-1.0-741.0","0","0","48171","","null","","","null","82","NaN","","","","","","","","","","","","","","",""
"","S2","","html-keyboard-response","538","571431","0.0-1.0-742.0","0","0","48171","","null","","","null","82","","NaN","","","","","","","","","","","","","",""
"","response","","html-keyboard-response","539","571857","0.0-1.0-743.0-0.0","0","0","48171","","423","","","75","82","","","2","82","training","adjacent","DC","4","3","O.jpg","P.jpg","1","0","0","",""
"","feedback","","html-keyboard-response","540","572863","0.0-1.0-744.0-0.0","0","0","48171","","null","","","null","82","","","","","","","","","","","","","","","",""
"","time_out","","html-keyboard-response","541","574871","0.0-1.0-746.0-0.0","0","0","48171","","null","","","null","82","","","","","","","","","","","","","","","",""
"","ITI","","html-keyboard-response","542","575879","0.0-1.0-747.0","0","0","48171","","null","","","null","82","","","","","","","","","","","","","","","NaN",""
"","S1","","html-keyboard-response","543","576135","0.0-1.0-749.0","0","0","48171","","null","","","null","83","","","","","","","","","","","","","","","",""
"","ISI","","html-keyboard-response","544","577143","0.0-1.0-750.0","0","0","48171","","null","","","null","83","NaN","","","","","","","","","","","","","","",""
"","S2","","html-keyboard-response","545","577401","0.0-1.0-751.0","0","0","48171","","null","","","null","83","","NaN","","","","","","","","","","","","","",""
"","response","","html-keyboard-response","546","577881","0.0-1.0-752.0-0.0","0","0","48171","","476","","","68","83","","","2","83","training","adjacent","AB","1","2","L.jpg","R.jpg","0","1","0","",""
"","feedback","","html-keyboard-response","547","578887","0.0-1.0-753.0-0.0","0","0","48171","","null","","","null","83","","","","","","","","","","","","","","","",""
"","time_out","","html-keyboard-response","548","580895","0.0-1.0-755.0-0.0","0","0","48171","","null","","","null","83","","","","","","","","","","","","","","","",""
"","ITI","","html-keyboard-response","549","581904","0.0-1.0-756.0","0","0","48171","","null","","","null","83","","","","","","","","","","","","","","","NaN",""
"","S1","","html-keyboard-response","550","582160","0.0-1.0-758.0","0","0","48171","","null","","","null","84","","","","","","","","","","","","","","","",""
"","ISI","","html-keyboard-response","551","583167","0.0-1.0-759.0","0","0","48171","","null","","","null","84","NaN","","","","","","","","","","","","","","",""
"","S2","","html-keyboard-response","552","583424","0.0-1.0-760.0","0","0","48171","","null","","","null","84","","NaN","","","","","","","","","","","","","",""
"","response","","html-keyboard-response","553","583706","0.0-1.0-761.0-0.0","0","0","48171","","278","","","75","84","","","2","84","training","adjacent","BA","2","1","R.jpg","L.jpg","1","0","0","",""
"","feedback","","html-keyboard-response","554","584711","0.0-1.0-762.0-0.0","0","0","48171","","null","","","null","84","","","","","","","","","","","","","","","",""
"","time_out","","html-keyboard-response","555","586720","0.0-1.0-764.0-0.0","0","0","48171","","null","","","null","84","","","","","","","","","","","","","","","",""
"","ITI","","html-keyboard-response","556","587727","0.0-1.0-765.0","0","0","48171","","null","","","null","84","","","","","","","","","","","","","","","NaN",""
"","S1","","html-keyboard-response","557","587983","0.0-1.0-767.0","0","0","48171","","null","","","null","85","","","","","","","","","","","","","","","",""
"","ISI","","html-keyboard-response","558","588991","0.0-1.0-768.0","0","0","48171","","null","","","null","85","NaN","","","","","","","","","","","","","","",""
"","S2","","html-keyboard-response","559","589248","0.0-1.0-769.0","0","0","48171","","null","","","null","85","","NaN","","","","","","","","","","","","","",""
"","response","","html-keyboard-response","560","589335","0.0-1.0-770.0-0.0","0","0","48171","","84","","","68","85","","","2","85","training","adjacent","BC","2","3","R.jpg","P.jpg","0","1","0","",""
"","feedback","","html-keyboard-response","561","590342","0.0-1.0-771.0-0.0","0","0","48171","","null","","","null","85","","","","","","","","","","","","","","","",""
"","time_out","","html-keyboard-response","562","592351","0.0-1.0-773.0-0.0","0","0","48171","","null","","","null","85","","","","","","","","","","","","","","","",""
"","ITI","","html-keyboard-response","563","593360","0.0-1.0-774.0","0","0","48171","","null","","","null","85","","","","","","","","","","","","","","","NaN",""
"","S1","","html-keyboard-response","564","593616","0.0-1.0-776.0","0","0","48171","","null","","","null","86","","","","","","","","","","","","","","","",""
"","ISI","","html-keyboard-response","565","594623","0.0-1.0-777.0","0","0","48171","","null","","","null","86","NaN","","","","","","","","","","","","","","",""
"","S2","","html-keyboard-response","566","594879","0.0-1.0-778.0","0","0","48171","","null","","","null","86","","NaN","","","","","","","","","","","","","",""
"","response","","html-keyboard-response","567","595432","0.0-1.0-779.0-0.0","0","0","48171","","549","","","68","86","","","2","86","training","adjacent","CB","3","2","P.jpg","R.jpg","0","0","1","",""
"","feedback","","html-keyboard-response","568","596439","0.0-1.0-780.0-0.0","0","0","48171","","null","","","null","86","","","","","","","","","","","","","","","",""
"","ITI","","html-keyboard-response","569","597447","0.0-1.0-783.0","0","0","48171","","null","","","null","86","","","","","","","","","","","","","","","NaN",""
"","S1","","html-keyboard-response","570","597703","0.0-1.0-785.0","0","0","48171","","null","","","null","87","","","","","","","","","","","","","","","",""
"","ISI","","html-keyboard-response","571","598711","0.0-1.0-786.0","0","0","48171","","null","","","null","87","NaN","","","","","","","","","","","","","","",""
"","S2","","html-keyboard-response","572","598968","0.0-1.0-787.0","0","0","48171","","null","","","null","87","","NaN","","","","","","","","","","","","","",""
"","response","","html-keyboard-response","573","599514","0.0-1.0-788.0-0.0","0","0","48171","","542","","","68","87","","","2","87","training","adjacent","FE","6","5","Q.jpg","N.jpg","0","0","1","",""
"","feedback","","html-keyboard-response","574","600519","0.0-1.0-789.0-0.0","0","0","48171","","null","","","null","87","","","","","","","","","","","","","","","",""
"","ITI","","html-keyboard-response","575","601527","0.0-1.0-792.0","0","0","48171","","null","","","null","87","","","","","","","","","","","","","","","NaN",""
"","S1","","html-keyboard-response","576","601783","0.0-1.0-794.0","0","0","48171","","null","","","null","88","","","","","","","","","","","","","","","",""
"","ISI","","html-keyboard-response","577","602791","0.0-1.0-795.0","0","0","48171","","null","","","null","88","NaN","","","","","","","","","","","","","","",""
"","S2","","html-keyboard-response","578","603047","0.0-1.0-796.0","0","0","48171","","null","","","null","88","","NaN","","","","","","","","","","","","","",""
"","response","","html-keyboard-response","579","603693","0.0-1.0-797.0-0.0","0","0","48171","","642","","","68","88","","","2","88","training","adjacent","FE","6","5","Q.jpg","N.jpg","0","0","1","",""
"","feedback","","html-keyboard-response","580","604703","0.0-1.0-798.0-0.0","0","0","48171","","null","","","null","88","","","","","","","","","","","","","","","",""
"","ITI","","html-keyboard-response","581","605711","0.0-1.0-801.0","0","0","48171","","null","","","null","88","","","","","","","","","","","","","","","NaN",""
"","S1","","html-keyboard-response","582","605968","0.0-1.0-803.0","0","0","48171","","null","","","null","89","","","","","","","","","","","","","","","",""
