"success","ttype","start_time","trial_type","trial_index","time_elapsed","internal_node_id","warning","missed_checkup","PID","view_history","rt","responses","repeat_instructions","key_press","index","keypress_isi","keypress_S2","block","trial_num","phase","group_type","pair_type","S1_stim","S2_stim","S1_img","S2_img","S1_chosen","S1_higher","accuracy","keypress_iti","total_bonus_tally"
"true","full_screen","d03032023hr2012","fullscreen","0","294710","0.0-0.0","0","0","72928","","","","","","","","","","","","","","","","","","","","","",""
"","instructions","","instructions","1","554371","0.0-1.0-0.0-0.0","0","0","72928","[{""page_index"":0,""viewing_time"":17055},{""page_index"":1,""viewing_time"":177303},{""page_index"":2,""viewing_time"":54629},{""page_index"":3,""viewing_time"":10656}]","259645","","","","","","","","","","","","","","","","","","","",""
"","comprehension_check","","survey-multi-choice","2","883338","0.0-1.0-0.0-1.0","0","0","72928","","328947","{""Q0"":""True"",""Q1"":""D"",""Q2"":""Once the second image appears and while the screen 'MAKE A CHOICE' is shown"",""Q3"":""Green mark"",""Q4"":""either D or K""}","0","","","","","","","","","","","","","","","","","",""
"","start_exp","","html-keyboard-response","3","901240","0.0-1.0-1.0","0","0","72928","","17890","","","32","","","","","","","","","","","","","","","","",""
"","S1","","html-keyboard-response","4","901497","0.0-1.0-2.0","0","0","72928","","null","","","null","0","","","","","","","","","","","","","","","",""
"","ISI","","html-keyboard-response","5","902002","0.0-1.0-3.0","0","0","72928","","null","","","null","0","NaN","","","","","","","","","","","","","","",""
"","S2","","html-keyboard-response","6","902259","0.0-1.0-4.0","0","0","72928","","null","","","null","0","","NaN","","","","","","","","","","","","","",""
"","response","","html-keyboard-response","7","904018","0.0-1.0-5.0-0.0","0","0","72928","","null","","","null","0","","","1","0","training","adjacent","BC","2","3","N.jpg","M.jpg","NaN","1","0","",""
"","too_slow_prompt","","html-keyboard-response","8","905029","0.0-1.0-7.0-0.0","1","0","72928","","null","","","null","","","","","","","","","","","","","","","","",""
"","time_out","","html-keyboard-response","9","907034","0.0-1.0-8.0-0.0","0","0","72928","","null","","","null","0","","","","","","","","","","","","","","","",""
"","ITI","","html-keyboard-response","10","908041","0.0-1.0-9.0","0","0","72928","","null","","","null","0","","","","","","","","","","","","","","","NaN",""
"","S1","","html-keyboard-response","11","908298","0.0-1.0-11.0","0","0","72928","","null","","","null","1","","","","","","","","","","","","","","","",""
"","ISI","","html-keyboard-response","12","908812","0.0-1.0-12.0","0","0","72928","","null","","","null","1","NaN","","","","","","","","","","","","","","",""
"","S2","","html-keyboard-response","13","909068","0.0-1.0-13.0","0","0","72928","","null","","","null","1","","NaN","","","","","","","","","","","","","",""
"","response","","html-keyboard-response","14","910825","0.0-1.0-14.0-0.0","0","0","72928","","null","","","null","1","","","1","1","training","adjacent","DE","4","5","Q.jpg","R.jpg","NaN","1","0","",""
"","too_slow_prompt","","html-keyboard-response","15","911832","0.0-1.0-16.0-0.0","1","0","72928","","null","","","null","","","","","","","","","","","","","","","","",""
"","time_out","","html-keyboard-response","16","913841","0.0-1.0-17.0-0.0","0","0","72928","","null","","","null","1","","","","","","","","","","","","","","","",""
"","ITI","","html-keyboard-response","17","914849","0.0-1.0-18.0","0","0","72928","","null","","","null","1","","","","","","","","","","","","","","","NaN",""
"","S1","","html-keyboard-response","18","915109","0.0-1.0-20.0","0","0","72928","","null","","","null","2","","","","","","","","","","","","","","","",""
"","ISI","","html-keyboard-response","19","915614","0.0-1.0-21.0","0","0","72928","","null","","","null","2","NaN","","","","","","","","","","","","","","",""
"","S2","","html-keyboard-response","20","915871","0.0-1.0-22.0","0","0","72928","","null","","","null","2","","NaN","","","","","","","","","","","","","",""
"","response","","html-keyboard-response","21","917627","0.0-1.0-23.0-0.0","0","0","72928","","null","","","null","2","","","1","2","training","adjacent","BC","2","3","N.jpg","M.jpg","NaN","1","0","",""
"","too_slow_prompt","","html-keyboard-response","22","918632","0.0-1.0-25.0-0.0","1","0","72928","","null","","","null","","","","","","","","","","","","","","","","",""
"","time_out","","html-keyboard-response","23","920639","0.0-1.0-26.0-0.0","0","0","72928","","null","","","null","2","","","","","","","","","","","","","","","",""
"","ITI","","html-keyboard-response","24","921646","0.0-1.0-27.0","0","0","72928","","null","","","null","2","","","","","","","","","","","","","","","NaN",""
"","S1","","html-keyboard-response","25","921904","0.0-1.0-29.0","0","0","72928","","null","","","null","3","","","","","","","","","","","","","","","",""
"","ISI","","html-keyboard-response","26","922412","0.0-1.0-30.0","0","0","72928","","null","","","null","3","NaN","","","","","","","","","","","","","","",""
"","S2","","html-keyboard-response","27","922670","0.0-1.0-31.0","0","0","72928","","null","","","null","3","","NaN","","","","","","","","","","","","","",""
"","response","","html-keyboard-response","28","924427","0.0-1.0-32.0-0.0","0","0","72928","","null","","","null","3","","","1","3","training","adjacent","DC","4","3","Q.jpg","M.jpg","NaN","0","0","",""
"","too_slow_prompt","","html-keyboard-response","29","925430","0.0-1.0-34.0-0.0","1","0","72928","","null","","","null","","","","","","","","","","","","","","","","",""
"","time_out","","html-keyboard-response","30","927435","0.0-1.0-35.0-0.0","0","0","72928","","null","","","null","3","","","","","","","","","","","","","","","",""
"","ITI","","html-keyboard-response","31","928441","0.0-1.0-36.0","0","0","72928","","null","","","null","3","","","","","","","","","","","","","","","NaN",""
"","S1","","html-keyboard-response","32","928696","0.0-1.0-38.0","0","0","72928","","null","","","null","4","","","","","","","","","","","","","","","",""
"","ISI","","html-keyboard-response","33","929202","0.0-1.0-39.0","0","0","72928","","null","","","null","4","NaN","","","","","","","","","","","","","","",""
"","S2","","html-keyboard-response","34","929454","0.0-1.0-40.0","0","0","72928","","null","","","null","4","","NaN","","","","","","","","","","","","","",""
"","response","","html-keyboard-response","35","931210","0.0-1.0-41.0-0.0","0","0","72928","","null","","","null","4","","","1","4","training","adjacent","AB","1","2","O.jpg","N.jpg","NaN","1","0","",""
"","too_slow_prompt","","html-keyboard-response","36","932219","0.0-1.0-43.0-0.0","1","0","72928","","null","","","null","","","","","","","","","","","","","","","","",""
"","time_out","","html-keyboard-response","37","934226","0.0-1.0-44.0-0.0","0","0","72928","","null","","","null","4","","","","","","","","","","","","","","","",""
"","ITI","","html-keyboard-response","38","935232","0.0-1.0-45.0","0","0","72928","","null","","","null","4","","","","","","","","","","","","","","","NaN",""
"","S1","","html-keyboard-response","39","935492","0.0-1.0-47.0","0","0","72928","","null","","","null","5","","","","","","","","","","","","","","","",""
"","ISI","","html-keyboard-response","40","935995","0.0-1.0-48.0","0","0","72928","","null","","","null","5","NaN","","","","","","","","","","","","","","",""
"","S2","","html-keyboard-response","41","936253","0.0-1.0-49.0","0","0","72928","","null","","","null","5","","NaN","","","","","","","","","","","","","",""
"","response","","html-keyboard-response","42","936515","0.0-1.0-50.0-0.0","0","0","72928","","253","","","75","5","","","1","5","training","adjacent","EF","5","6","R.jpg","P.jpg","0","1","0","",""
"","feedback","","html-keyboard-response","43","937537","0.0-1.0-51.0-0.0","0","0","72928","","null","","","null","5","","","","","","","","","","","","","","","",""
"","time_out","","html-keyboard-response","44","939551","0.0-1.0-53.0-0.0","0","0","72928","","null","","","null","5","","","","","","","","","","","","","","","",""
"","ITI","","html-keyboard-response","45","940558","0.0-1.0-54.0","0","0","72928","","null","","","null","5","","","","","","","","","","","","","","","NaN",""
"","S1","","html-keyboard-response","46","940815","0.0-1.0-56.0","0","0","72928","","null","","","null","6","","","","","","","","","","","","","","","",""
"","ISI","","html-keyboard-response","47","941322","0.0-1.0-57.0","0","0","72928","","null","","","null","6","NaN","","","","","","","","","","","","","","",""
"","S2","","html-keyboard-response","48","941610","0.0-1.0-58.0","0","0","72928","","null","","","null","6","","NaN","","","","","","","","","","","","","",""
"","response","","html-keyboard-response","49","943366","0.0-1.0-59.0-0.0","0","0","72928","","null","","","null","6","","","1","6","training","adjacent","GF","7","6","L.jpg","P.jpg","NaN","0","0","",""
"","too_slow_prompt","","html-keyboard-response","50","944375","0.0-1.0-61.0-0.0","1","0","72928","","null","","","null","","","","","","","","","","","","","","","","",""
"","time_out","","html-keyboard-response","51","946380","0.0-1.0-62.0-0.0","0","0","72928","","null","","","null","6","","","","","","","","","","","","","","","",""
"","ITI","","html-keyboard-response","52","947392","0.0-1.0-63.0","0","0","72928","","null","","","null","6","","","","","","","","","","","","","","","NaN",""
"","S1","","html-keyboard-response","53","947650","0.0-1.0-65.0","0","0","72928","","null","","","null","7","","","","","","","","","","","","","","","",""
"","ISI","","html-keyboard-response","54","948155","0.0-1.0-66.0","0","0","72928","","null","","","null","7","NaN","","","","","","","","","","","","","","",""
"","S2","","html-keyboard-response","55","948412","0.0-1.0-67.0","0","0","72928","","null","","","null","7","","NaN","","","","","","","","","","","","","",""
"","response","","html-keyboard-response","56","950169","0.0-1.0-68.0-0.0","0","0","72928","","null","","","null","7","","","1","7","training","adjacent","EF","5","6","R.jpg","P.jpg","NaN","1","0","",""
"","too_slow_prompt","","html-keyboard-response","57","951176","0.0-1.0-70.0-0.0","1","0","72928","","null","","","null","","","","","","","","","","","","","","","","",""
"","time_out","","html-keyboard-response","58","953183","0.0-1.0-71.0-0.0","0","0","72928","","null","","","null","7","","","","","","","","","","","","","","","",""
"","ITI","","html-keyboard-response","59","954192","0.0-1.0-72.0","0","0","72928","","null","","","null","7","","","","","","","","","","","","","","","NaN",""
"","S1","","html-keyboard-response","60","954447","0.0-1.0-74.0","0","0","72928","","null","","","null","8","","","","","","","","","","","","","","","",""
"","ISI","","html-keyboard-response","61","954951","0.0-1.0-75.0","0","0","72928","","null","","","null","8","NaN","","","","","","","","","","","","","","",""
"","S2","","html-keyboard-response","62","955211","0.0-1.0-76.0","0","0","72928","","null","","","null","8","","NaN","","","","","","","","","","","","","",""
"","response","","html-keyboard-response","63","956731","0.0-1.0-77.0-0.0","0","0","72928","","1514","","","68","8","","","1","8","training","adjacent","AB","1","2","O.jpg","N.jpg","1","1","1","",""
"","feedback","","html-keyboard-response","64","957737","0.0-1.0-78.0-0.0","0","0","72928","","null","","","null","8","","","","","","","","","","","","","","","",""
"","ITI","","html-keyboard-response","65","958744","0.0-1.0-81.0","0","0","72928","","null","","","null","8","","","","","","","","","","","","","","","NaN",""
"","S1","","html-keyboard-response","66","959000","0.0-1.0-83.0","0","0","72928","","null","","","null","9","","","","","","","","","","","","","","","",""
"","ISI","","html-keyboard-response","67","959505","0.0-1.0-84.0","0","0","72928","","null","","","null","9","NaN","","","","","","","","","","","","","","",""
"","S2","","html-keyboard-response","68","959781","0.0-1.0-85.0","0","0","72928","","null","","","null","9","","NaN","","","","","","","","","","","","","",""
"","response","","html-keyboard-response","69","960875","0.0-1.0-86.0-0.0","0","0","72928","","1088","","","75","9","","","1","9","training","adjacent","CB","3","2","M.jpg","N.jpg","0","0","1","",""
"","feedback","","html-keyboard-response","70","961882","0.0-1.0-87.0-0.0","0","0","72928","","null","","","null","9","","","","","","","","","","","","","","","",""
"","ITI","","html-keyboard-response","71","962890","0.0-1.0-90.0","0","0","72928","","null","","","null","9","","","","","","","","","","","","","","","NaN",""
"","S1","","html-keyboard-response","72","963147","0.0-1.0-92.0","0","0","72928","","null","","","null","10","","","","","","","","","","","","","","","",""
"","ISI","","html-keyboard-response","73","963701","0.0-1.0-93.0","0","0","72928","","null","","","null","10","NaN","","","","","","","","","","","","","","",""
"","S2","","html-keyboard-response","74","963955","0.0-1.0-94.0","0","0","72928","","null","","","null","10","","NaN","","","","","","","","","","","","","",""
"","response","","html-keyboard-response","75","965712","0.0-1.0-95.0-0.0","0","0","72928","","null","","","null","10","","","1","10","training","adjacent","CD","3","4","M.jpg","Q.jpg","NaN","1","0","",""
"","too_slow_prompt","","html-keyboard-response","76","966716","0.0-1.0-97.0-0.0","1","0","72928","","null","","","null","","","","","","","","","","","","","","","","",""
"","time_out","","html-keyboard-response","77","968721","0.0-1.0-98.0-0.0","0","0","72928","","null","","","null","10","","","","","","","","","","","","","","","",""
"","ITI","","html-keyboard-response","78","969728","0.0-1.0-99.0","0","0","72928","","null","","","null","10","","","","","","","","","","","","","","","NaN",""
"","S1","","html-keyboard-response","79","969983","0.0-1.0-101.0","0","0","72928","","null","","","null","11","","","","","","","","","","","","","","","",""
"","ISI","","html-keyboard-response","80","970498","0.0-1.0-102.0","0","0","72928","","null","","","null","11","NaN","","","","","","","","","","","","","","",""
"","S2","","html-keyboard-response","81","970754","0.0-1.0-103.0","0","0","72928","","null","","","null","11","","NaN","","","","","","","","","","","","","",""
"","response","","html-keyboard-response","82","972000","0.0-1.0-104.0-0.0","0","0","72928","","1244","","","68","11","","","1","11","training","adjacent","DC","4","3","Q.jpg","M.jpg","1","0","0","",""
"","feedback","","html-keyboard-response","83","973011","0.0-1.0-105.0-0.0","0","0","72928","","null","","","null","11","","","","","","","","","","","","","","","",""
"","time_out","","html-keyboard-response","84","975015","0.0-1.0-107.0-0.0","0","0","72928","","null","","","null","11","","","","","","","","","","","","","","","",""
"","ITI","","html-keyboard-response","85","976021","0.0-1.0-108.0","0","0","72928","","null","","","null","11","","","","","","","","","","","","","","","NaN",""
"","S1","","html-keyboard-response","86","976278","0.0-1.0-110.0","0","0","72928","","null","","","null","12","","","","","","","","","","","","","","","",""
"","ISI","","html-keyboard-response","87","976782","0.0-1.0-111.0","0","0","72928","","null","","","null","12","NaN","","","","","","","","","","","","","","",""
"","S2","","html-keyboard-response","88","977037","0.0-1.0-112.0","0","0","72928","","null","","","null","12","","NaN","","","","","","","","","","","","","",""
"","response","","html-keyboard-response","89","977497","0.0-1.0-113.0-0.0","0","0","72928","","454","","","75","12","","","1","12","training","adjacent","BA","2","1","N.jpg","O.jpg","0","0","1","",""
"","feedback","","html-keyboard-response","90","978509","0.0-1.0-114.0-0.0","0","0","72928","","null","","","null","12","","","","","","","","","","","","","","","",""
"","ITI","","html-keyboard-response","91","979516","0.0-1.0-117.0","0","0","72928","","null","","","null","12","","","","","","","","","","","","","","","NaN",""
"","S1","","html-keyboard-response","92","979770","0.0-1.0-119.0","0","0","72928","","null","","","null","13","","","","","","","","","","","","","","","",""
"","ISI","","html-keyboard-response","93","980274","0.0-1.0-120.0","0","0","72928","","null","","","null","13","NaN","","","","","","","","","","","","","","",""
"","S2","","html-keyboard-response","94","980528","0.0-1.0-121.0","0","0","72928","","null","","","null","13","","NaN","","","","","","","","","","","","","",""
"","response","","html-keyboard-response","95","981561","0.0-1.0-122.0-0.0","0","0","72928","","1028","","","75","13","","","1","13","training","adjacent","DE","4","5","Q.jpg","R.jpg","0","1","0","",""
"","feedback","","html-keyboard-response","96","982574","0.0-1.0-123.0-0.0","0","0","72928","","null","","","null","13","","","","","","","","","","","","","","","",""
"","time_out","","html-keyboard-response","97","984582","0.0-1.0-125.0-0.0","0","0","72928","","null","","","null","13","","","","","","","","","","","","","","","",""
"","ITI","","html-keyboard-response","98","985587","0.0-1.0-126.0","0","0","72928","","null","","","null","13","","","","","","","","","","","","","","","NaN",""
"","S1","","html-keyboard-response","99","985878","0.0-1.0-128.0","0","0","72928","","null","","","null","14","","","","","","","","","","","","","","","",""
"","ISI","","html-keyboard-response","100","986406","0.0-1.0-129.0","0","0","72928","","null","","","null","14","NaN","","","","","","","","","","","","","","",""
"","S2","","html-keyboard-response","101","986661","0.0-1.0-130.0","0","0","72928","","null","","","null","14","","NaN","","","","","","","","","","","","","",""
"","response","","html-keyboard-response","102","987096","0.0-1.0-131.0-0.0","0","0","72928","","429","","","68","14","","","1","14","training","adjacent","EF","5","6","R.jpg","P.jpg","1","1","1","",""
"","feedback","","html-keyboard-response","103","988102","0.0-1.0-132.0-0.0","0","0","72928","","null","","","null","14","","","","","","","","","","","","","","","",""
"","ITI","","html-keyboard-response","104","989108","0.0-1.0-135.0","0","0","72928","","null","","","null","14","","","","","","","","","","","","","","","NaN",""
"","S1","","html-keyboard-response","105","989367","0.0-1.0-137.0","0","0","72928","","null","","","null","15","","","","","","","","","","","","","","","",""
"","ISI","","html-keyboard-response","106","989870","0.0-1.0-138.0","0","0","72928","","null","","","null","15","NaN","","","","","","","","","","","","","","",""
"","S2","","html-keyboard-response","107","990124","0.0-1.0-139.0","0","0","72928","","null","","","null","15","","NaN","","","","","","","","","","","","","",""
"","response","","html-keyboard-response","108","990518","0.0-1.0-140.0-0.0","0","0","72928","","389","","","75","15","","","1","15","training","adjacent","CB","3","2","M.jpg","N.jpg","0","0","1","",""
"","feedback","","html-keyboard-response","109","991525","0.0-1.0-141.0-0.0","0","0","72928","","null","","","null","15","","","","","","","","","","","","","","","",""
"","ITI","","html-keyboard-response","110","992530","0.0-1.0-144.0","0","0","72928","","null","","","null","15","","","","","","","","","","","","","","","NaN",""
"","S1","","html-keyboard-response","111","992794","0.0-1.0-146.0","0","0","72928","","null","","","null","16","","","","","","","","","","","","","","","",""
"","ISI","","html-keyboard-response","112","993299","0.0-1.0-147.0","0","0","72928","","null","","","null","16","NaN","","","","","","","","","","","","","","",""
"","S2","","html-keyboard-response","113","993592","0.0-1.0-148.0","0","0","72928","","null","","","null","16","","NaN","","","","","","","","","","","","","",""
"","response","","html-keyboard-response","114","993999","0.0-1.0-149.0-0.0","0","0","72928","","402","","","75","16","","","1","16","training","adjacent","FG","6","7","P.jpg","L.jpg","0","1","0","",""
"","feedback","","html-keyboard-response","115","995003","0.0-1.0-150.0-0.0","0","0","72928","","null","","","null","16","","","","","","","","","","","","","","","",""
"","time_out","","html-keyboard-response","116","997010","0.0-1.0-152.0-0.0","0","0","72928","","null","","","null","16","","","","","","","","","","","","","","","",""
"","ITI","","html-keyboard-response","117","998015","0.0-1.0-153.0","0","0","72928","","null","","","null","16","","","","","","","","","","","","","","","NaN",""
"","S1","","html-keyboard-response","118","998269","0.0-1.0-155.0","0","0","72928","","null","","","null","17","","","","","","","","","","","","","","","",""
"","ISI","","html-keyboard-response","119","998775","0.0-1.0-156.0","0","0","72928","","null","","","null","17","NaN","","","","","","","","","","","","","","",""
"","S2","","html-keyboard-response","120","999029","0.0-1.0-157.0","0","0","72928","","null","","","null","17","","NaN","","","","","","","","","","","","","",""
"","response","","html-keyboard-response","121","999685","0.0-1.0-158.0-0.0","0","0","72928","","649","","","75","17","","","1","17","training","adjacent","GF","7","6","L.jpg","P.jpg","0","0","1","",""
"","feedback","","html-keyboard-response","122","1000691","0.0-1.0-159.0-0.0","0","0","72928","","null","","","null","17","","","","","","","","","","","","","","","",""
"","ITI","","html-keyboard-response","123","1001696","0.0-1.0-162.0","0","0","72928","","null","","","null","17","","","","","","","","","","","","","","","NaN",""
"","S1","","html-keyboard-response","124","1001950","0.0-1.0-164.0","0","0","72928","","null","","","null","18","","","","","","","","","","","","","","","",""
"","ISI","","html-keyboard-response","125","1002463","0.0-1.0-165.0","0","0","72928","","null","","","null","18","NaN","","","","","","","","","","","","","","",""
"","S2","","html-keyboard-response","126","1002720","0.0-1.0-166.0","0","0","72928","","null","","","null","18","","NaN","","","","","","","","","","","","","",""
"","response","","html-keyboard-response","127","1003080","0.0-1.0-167.0-0.0","0","0","72928","","356","","","68","18","","","1","18","training","adjacent","CB","3","2","M.jpg","N.jpg","1","0","0","",""
"","feedback","","html-keyboard-response","128","1004085","0.0-1.0-168.0-0.0","0","0","72928","","null","","","null","18","","","","","","","","","","","","","","","",""
"","time_out","","html-keyboard-response","129","1006093","0.0-1.0-170.0-0.0","0","0","72928","","null","","","null","18","","","","","","","","","","","","","","","",""
"","ITI","","html-keyboard-response","130","1007100","0.0-1.0-171.0","0","0","72928","","null","","","null","18","","","","","","","","","","","","","","","NaN",""
"","S1","","html-keyboard-response","131","1007363","0.0-1.0-173.0","0","0","72928","","null","","","null","19","","","","","","","","","","","","","","","",""
"","ISI","","html-keyboard-response","132","1007868","0.0-1.0-174.0","0","0","72928","","null","","","null","19","NaN","","","","","","","","","","","","","","",""
"","S2","","html-keyboard-response","133","1008124","0.0-1.0-175.0","0","0","72928","","null","","","null","19","","NaN","","","","","","","","","","","","","",""
"","response","","html-keyboard-response","134","1008871","0.0-1.0-176.0-0.0","0","0","72928","","739","","","75","19","","","1","19","training","adjacent","AB","1","2","O.jpg","N.jpg","0","1","0","",""
"","feedback","","html-keyboard-response","135","1009917","0.0-1.0-177.0-0.0","0","0","72928","","null","","","null","19","","","","","","","","","","","","","","","",""
"","time_out","","html-keyboard-response","136","1011924","0.0-1.0-179.0-0.0","0","0","72928","","null","","","null","19","","","","","","","","","","","","","","","",""
"","ITI","","html-keyboard-response","137","1012930","0.0-1.0-180.0","0","0","72928","","null","","","null","19","","","","","","","","","","","","","","","NaN",""
"","S1","","html-keyboard-response","138","1013185","0.0-1.0-182.0","0","0","72928","","null","","","null","20","","","","","","","","","","","","","","","",""
"","ISI","","html-keyboard-response","139","1013691","0.0-1.0-183.0","0","0","72928","","null","","","null","20","NaN","","","","","","","","","","","","","","",""
"","S2","","html-keyboard-response","140","1013947","0.0-1.0-184.0","0","0","72928","","null","","","null","20","","NaN","","","","","","","","","","","","","",""
"","response","","html-keyboard-response","141","1014473","0.0-1.0-185.0-0.0","0","0","72928","","520","","","68","20","","","1","20","training","adjacent","DC","4","3","Q.jpg","M.jpg","1","0","0","",""
"","feedback","","html-keyboard-response","142","1015478","0.0-1.0-186.0-0.0","0","0","72928","","null","","","null","20","","","","","","","","","","","","","","","",""
"","time_out","","html-keyboard-response","143","1017489","0.0-1.0-188.0-0.0","0","0","72928","","null","","","null","20","","","","","","","","","","","","","","","",""
"","ITI","","html-keyboard-response","144","1018496","0.0-1.0-189.0","0","0","72928","","null","","","null","20","","","","","","","","","","","","","","","NaN",""
"","S1","","html-keyboard-response","145","1018751","0.0-1.0-191.0","0","0","72928","","null","","","null","21","","","","","","","","","","","","","","","",""
"","ISI","","html-keyboard-response","146","1019256","0.0-1.0-192.0","0","0","72928","","null","","","null","21","NaN","","","","","","","","","","","","","","",""
"","S2","","html-keyboard-response","147","1019514","0.0-1.0-193.0","0","0","72928","","null","","","null","21","","NaN","","","","","","","","","","","","","",""
"","response","","html-keyboard-response","148","1020501","0.0-1.0-194.0-0.0","0","0","72928","","983","","","75","21","","","1","21","training","adjacent","FG","6","7","P.jpg","L.jpg","0","1","0","",""
"","feedback","","html-keyboard-response","149","1021508","0.0-1.0-195.0-0.0","0","0","72928","","null","","","null","21","","","","","","","","","","","","","","","",""
"","time_out","","html-keyboard-response","150","1023522","0.0-1.0-197.0-0.0","0","0","72928","","null","","","null","21","","","","","","","","","","","","","","","",""
"","ITI","","html-keyboard-response","151","1024532","0.0-1.0-198.0","0","0","72928","","null","","","null","21","","","","","","","","","","","","","","","NaN",""
"","S1","","html-keyboard-response","152","1024786","0.0-1.0-200.0","0","0","72928","","null","","","null","22","","","","","","","","","","","","","","","",""
"","ISI","","html-keyboard-response","153","1025288","0.0-1.0-201.0","0","0","72928","","null","","","null","22","NaN","","","","","","","","","","","","","","",""
"","S2","","html-keyboard-response","154","1025544","0.0-1.0-202.0","0","0","72928","","null","","","null","22","","NaN","","","","","","","","","","","","","",""
"","response","","html-keyboard-response","155","1026796","0.0-1.0-203.0-0.0","0","0","72928","","1246","","","75","22","","","1","22","training","adjacent","FG","6","7","P.jpg","L.jpg","0","1","0","",""
"","feedback","","html-keyboard-response","156","1027802","0.0-1.0-204.0-0.0","0","0","72928","","null","","","null","22","","","","","","","","","","","","","","","",""
"","time_out","","html-keyboard-response","157","1029813","0.0-1.0-206.0-0.0","0","0","72928","","null","","","null","22","","","","","","","","","","","","","","","",""
"","ITI","","html-keyboard-response","158","1030820","0.0-1.0-207.0","0","0","72928","","null","","","null","22","","","","","","","","","","","","","","","NaN",""
"","S1","","html-keyboard-response","159","1031077","0.0-1.0-209.0","0","0","72928","","null","","","null","23","","","","","","","","","","","","","","","",""
"","ISI","","html-keyboard-response","160","1031582","0.0-1.0-210.0","0","0","72928","","null","","","null","23","NaN","","","","","","","","","","","","","","",""
"","S2","","html-keyboard-response","161","1031839","0.0-1.0-211.0","0","0","72928","","null","","","null","23","","NaN","","","","","","","","","","","","","",""
"","response","","html-keyboard-response","162","1033080","0.0-1.0-212.0-0.0","0","0","72928","","1233","","","75","23","","","1","23","training","adjacent","FG","6","7","P.jpg","L.jpg","0","1","0","",""
"","feedback","","html-keyboard-response","163","1034084","0.0-1.0-213.0-0.0","0","0","72928","","null","","","null","23","","","","","","","","","","","","","","","",""
"","time_out","","html-keyboard-response","164","1036090","0.0-1.0-215.0-0.0","0","0","72928","","null","","","null","23","","","","","","","","","","","","","","","",""
"","ITI","","html-keyboard-response","165","1037097","0.0-1.0-216.0","0","0","72928","","null","","","null","23","","","","","","","","","","","","","","","NaN",""
"","S1","","html-keyboard-response","166","1037354","0.0-1.0-218.0","0","0","72928","","null","","","null","24","","","","","","","","","","","","","","","",""
"","ISI","","html-keyboard-response","167","1037857","0.0-1.0-219.0","0","0","72928","","null","","","null","24","NaN","","","","","","","","","","","","","","",""
"","S2","","html-keyboard-response","168","1038115","0.0-1.0-220.0","0","0","72928","","null","","","null","24","","NaN","","","","","","","","","","","","","",""
"","response","","html-keyboard-response","169","1038993","0.0-1.0-221.0-0.0","0","0","72928","","872","","","75","24","","","1","24","training","adjacent","FE","6","5","P.jpg","R.jpg","0","0","1","",""
"","feedback","","html-keyboard-response","170","1040002","0.0-1.0-222.0-0.0","0","0","72928","","null","","","null","24","","","","","","","","","","","","","","","",""
"","ITI","","html-keyboard-response","171","1041008","0.0-1.0-225.0","0","0","72928","","null","","","null","24","","","","","","","","","","","","","","","NaN",""
"","S1","","html-keyboard-response","172","1041264","0.0-1.0-227.0","0","0","72928","","null","","","null","25","","","","","","","","","","","","","","","",""
"","ISI","","html-keyboard-response","173","1041769","0.0-1.0-228.0","0","0","72928","","null","","","null","25","NaN","","","","","","","","","","","","","","",""
"","S2","","html-keyboard-response","174","1042023","0.0-1.0-229.0","0","0","72928","","null","","","null","25","","NaN","","","","","","","","","","","","","",""
"","response","","html-keyboard-response","175","1043077","0.0-1.0-230.0-0.0","0","0","72928","","1048","","","75","25","","","1","25","training","adjacent","BC","2","3","N.jpg","M.jpg","0","1","0","",""
"","feedback","","html-keyboard-response","176","1044084","0.0-1.0-231.0-0.0","0","0","72928","","null","","","null","25","","","","","","","","","","","","","","","",""
"","time_out","","html-keyboard-response","177","1046090","0.0-1.0-233.0-0.0","0","0","72928","","null","","","null","25","","","","","","","","","","","","","","","",""
"","ITI","","html-keyboard-response","178","1047094","0.0-1.0-234.0","0","0","72928","","null","","","null","25","","","","","","","","","","","","","","","NaN",""
"","S1","","html-keyboard-response","179","1047353","0.0-1.0-236.0","0","0","72928","","null","","","null","26","","","","","","","","","","","","","","","",""
"","ISI","","html-keyboard-response","180","1047859","0.0-1.0-237.0","0","0","72928","","null","","","null","26","NaN","","","","","","","","","","","","","","",""
"","S2","","html-keyboard-response","181","1048116","0.0-1.0-238.0","0","0","72928","","null","","","null","26","","NaN","","","","","","","","","","","","","",""
"","response","","html-keyboard-response","182","1049064","0.0-1.0-239.0-0.0","0","0","72928","","943","","","68","26","","","1","26","training","adjacent","EF","5","6","R.jpg","P.jpg","1","1","1","",""
"","feedback","","html-keyboard-response","183","1050072","0.0-1.0-240.0-0.0","0","0","72928","","null","","","null","26","","","","","","","","","","","","","","","",""
"","ITI","","html-keyboard-response","184","1051080","0.0-1.0-243.0","0","0","72928","","null","","","null","26","","","","","","","","","","","","","","","NaN",""
"","S1","","html-keyboard-response","185","1051337","0.0-1.0-245.0","0","0","72928","","null","","","null","27","","","","","","","","","","","","","","","",""
"","ISI","","html-keyboard-response","186","1051841","0.0-1.0-246.0","0","0","72928","","null","","","null","27","NaN","","","","","","","","","","","","","","",""
"","S2","","html-keyboard-response","187","1052095","0.0-1.0-247.0","0","0","72928","","null","","","null","27","","NaN","","","","","","","","","","","","","",""
"","response","","html-keyboard-response","188","1053364","0.0-1.0-248.0-0.0","0","0","72928","","1263","","","68","27","","","1","27","training","adjacent","ED","5","4","R.jpg","Q.jpg","1","0","0","",""
"","feedback","","html-keyboard-response","189","1054375","0.0-1.0-249.0-0.0","0","0","72928","","null","","","null","27","","","","","","","","","","","","","","","",""
"","time_out","","html-keyboard-response","190","1056381","0.0-1.0-251.0-0.0","0","0","72928","","null","","","null","27","","","","","","","","","","","","","","","",""
"","ITI","","html-keyboard-response","191","1057385","0.0-1.0-252.0","0","0","72928","","null","","","null","27","","","","","","","","","","","","","","","NaN",""
"","S1","","html-keyboard-response","192","1057682","0.0-1.0-254.0","0","0","72928","","null","","","null","28","","","","","","","","","","","","","","","",""
"","ISI","","html-keyboard-response","193","1058188","0.0-1.0-255.0","0","0","72928","","null","","","null","28","NaN","","","","","","","","","","","","","","",""
"","S2","","html-keyboard-response","194","1058444","0.0-1.0-256.0","0","0","72928","","null","","","null","28","","NaN","","","","","","","","","","","","","",""
"","response","","html-keyboard-response","195","1059246","0.0-1.0-257.0-0.0","0","0","72928","","797","","","75","28","","","1","28","training","adjacent","CB","3","2","M.jpg","N.jpg","0","0","1","",""
"","feedback","","html-keyboard-response","196","1060255","0.0-1.0-258.0-0.0","0","0","72928","","null","","","null","28","","","","","","","","","","","","","","","",""
"","ITI","","html-keyboard-response","197","1061263","0.0-1.0-261.0","0","0","72928","","null","","","null","28","","","","","","","","","","","","","","","NaN",""
"","S1","","html-keyboard-response","198","1061518","0.0-1.0-263.0","0","0","72928","","null","","","null","29","","","","","","","","","","","","","","","",""
"","ISI","","html-keyboard-response","199","1062025","0.0-1.0-264.0","0","0","72928","","null","","","null","29","NaN","","","","","","","","","","","","","","",""
"","S2","","html-keyboard-response","200","1062283","0.0-1.0-265.0","0","0","72928","","null","","","null","29","","NaN","","","","","","","","","","","","","",""
"","response","","html-keyboard-response","201","1063187","0.0-1.0-266.0-0.0","0","0","72928","","897","","","75","29","","","1","29","training","adjacent","DC","4","3","Q.jpg","M.jpg","0","0","1","",""
"","feedback","","html-keyboard-response","202","1064198","0.0-1.0-267.0-0.0","0","0","72928","","null","","","null","29","","","","","","","","","","","","","","","",""
"","ITI","","html-keyboard-response","203","1065214","0.0-1.0-270.0","0","0","72928","","null","","","null","29","","","","","","","","","","","","","","","NaN",""
"","S1","","html-keyboard-response","204","1065469","0.0-1.0-272.0","0","0","72928","","null","","","null","30","","","","","","","","","","","","","","","",""
"","ISI","","html-keyboard-response","205","1065973","0.0-1.0-273.0","0","0","72928","","null","","","null","30","NaN","","","","","","","","","","","","","","",""
"","S2","","html-keyboard-response","206","1066230","0.0-1.0-274.0","0","0","72928","","null","","","null","30","","NaN","","","","","","","","","","","","","",""
"","response","","html-keyboard-response","207","1067304","0.0-1.0-275.0-0.0","0","0","72928","","1069","","","68","30","","","1","30","training","adjacent","FE","6","5","P.jpg","R.jpg","1","0","0","",""
"","feedback","","html-keyboard-response","208","1068308","0.0-1.0-276.0-0.0","0","0","72928","","null","","","null","30","","","","","","","","","","","","","","","",""
"","time_out","","html-keyboard-response","209","1070318","0.0-1.0-278.0-0.0","0","0","72928","","null","","","null","30","","","","","","","","","","","","","","","",""
"","ITI","","html-keyboard-response","210","1071325","0.0-1.0-279.0","0","0","72928","","null","","","null","30","","","","","","","","","","","","","","","NaN",""
"","S1","","html-keyboard-response","211","1071592","0.0-1.0-281.0","0","0","72928","","null","","","null","31","","","","","","","","","","","","","","","",""
"","ISI","","html-keyboard-response","212","1072100","0.0-1.0-282.0","0","0","72928","","null","","","null","31","NaN","","","","","","","","","","","","","","",""
"","S2","","html-keyboard-response","213","1072363","0.0-1.0-283.0","0","0","72928","","null","","","null","31","","NaN","","","","","","","","","","","","","",""
"","response","","html-keyboard-response","214","1073502","0.0-1.0-284.0-0.0","0","0","72928","","1134","","","68","31","","","1","31","training","adjacent","ED","5","4","R.jpg","Q.jpg","1","0","0","",""
"","feedback","","html-keyboard-response","215","1074509","0.0-1.0-285.0-0.0","0","0","72928","","null","","","null","31","","","","","","","","","","","","","","","",""
"","time_out","","html-keyboard-response","216","1076515","0.0-1.0-287.0-0.0","0","0","72928","","null","","","null","31","","","","","","","","","","","","","","","",""
"","ITI","","html-keyboard-response","217","1077521","0.0-1.0-288.0","0","0","72928","","null","","","null","31","","","","","","","","","","","","","","","NaN",""
"","S1","","html-keyboard-response","218","1077781","0.0-1.0-290.0","0","0","72928","","null","","","null","32","","","","","","","","","","","","","","","",""
"","ISI","","html-keyboard-response","219","1078285","0.0-1.0-291.0","0","0","72928","","null","","","null","32","NaN","","","","","","","","","","","","","","",""
"","S2","","html-keyboard-response","220","1078540","0.0-1.0-292.0","0","0","72928","","null","","","null","32","","NaN","","","","","","","","","","","","","",""
"","response","","html-keyboard-response","221","1080295","0.0-1.0-293.0-0.0","0","0","72928","","null","","","null","32","","","1","32","training","adjacent","CD","3","4","M.jpg","Q.jpg","NaN","1","0","",""
"","too_slow_prompt","","html-keyboard-response","222","1081302","0.0-1.0-295.0-0.0","1","0","72928","","null","","","null","","","","","","","","","","","","","","","","",""
"","time_out","","html-keyboard-response","223","1083310","0.0-1.0-296.0-0.0","0","0","72928","","null","","","null","32","","","","","","","","","","","","","","","",""
"","ITI","","html-keyboard-response","224","1084318","0.0-1.0-297.0","0","0","72928","","null","","","null","32","","","","","","","","","","","","","","","NaN",""
"","S1","","html-keyboard-response","225","1084573","0.0-1.0-299.0","0","0","72928","","null","","","null","33","","","","","","","","","","","","","","","",""
"","ISI","","html-keyboard-response","226","1085077","0.0-1.0-300.0","0","0","72928","","null","","","null","33","NaN","","","","","","","","","","","","","","",""
"","S2","","html-keyboard-response","227","1085333","0.0-1.0-301.0","0","0","72928","","null","","","null","33","","NaN","","","","","","","","","","","","","",""
"","response","","html-keyboard-response","228","1085977","0.0-1.0-302.0-0.0","0","0","72928","","639","","","75","33","","","1","33","training","adjacent","BC","2","3","N.jpg","M.jpg","0","1","0","",""
"","feedback","","html-keyboard-response","229","1086986","0.0-1.0-303.0-0.0","0","0","72928","","null","","","null","33","","","","","","","","","","","","","","","",""
"","time_out","","html-keyboard-response","230","1089004","0.0-1.0-305.0-0.0","0","0","72928","","null","","","null","33","","","","","","","","","","","","","","","",""
"","ITI","","html-keyboard-response","231","1090009","0.0-1.0-306.0","0","0","72928","","null","","","null","33","","","","","","","","","","","","","","","NaN",""
"","S1","","html-keyboard-response","232","1090263","0.0-1.0-308.0","0","0","72928","","null","","","null","34","","","","","","","","","","","","","","","",""
"","ISI","","html-keyboard-response","233","1090766","0.0-1.0-309.0","0","0","72928","","null","","","null","34","NaN","","","","","","","","","","","","","","",""
"","S2","","html-keyboard-response","234","1091022","0.0-1.0-310.0","0","0","72928","","null","","","null","34","","NaN","","","","","","","","","","","","","",""
"","response","","html-keyboard-response","235","1091377","0.0-1.0-311.0-0.0","0","0","72928","","351","","","68","34","","","1","34","training","adjacent","ED","5","4","R.jpg","Q.jpg","1","0","0","",""
"","feedback","","html-keyboard-response","236","1092381","0.0-1.0-312.0-0.0","0","0","72928","","null","","","null","34","","","","","","","","","","","","","","","",""
"","time_out","","html-keyboard-response","237","1094394","0.0-1.0-314.0-0.0","0","0","72928","","null","","","null","34","","","","","","","","","","","","","","","",""
"","ITI","","html-keyboard-response","238","1095399","0.0-1.0-315.0","0","0","72928","","null","","","null","34","","","","","","","","","","","","","","","NaN",""
"","S1","","html-keyboard-response","239","1095702","0.0-1.0-317.0","0","0","72928","","null","","","null","35","","","","","","","","","","","","","","","",""
"","ISI","","html-keyboard-response","240","1096206","0.0-1.0-318.0","0","0","72928","","null","","","null","35","NaN","","","","","","","","","","","","","","",""
"","S2","","html-keyboard-response","241","1096472","0.0-1.0-319.0","0","0","72928","","null","","","null","35","","NaN","","","","","","","","","","","","","",""
"","response","","html-keyboard-response","242","1097280","0.0-1.0-320.0-0.0","0","0","72928","","801","","","75","35","","","1","35","training","adjacent","BA","2","1","N.jpg","O.jpg","0","0","1","",""
"","feedback","","html-keyboard-response","243","1098287","0.0-1.0-321.0-0.0","0","0","72928","","null","","","null","35","","","","","","","","","","","","","","","",""
"","ITI","","html-keyboard-response","244","1099295","0.0-1.0-324.0","0","0","72928","","null","","","null","35","","","","","","","","","","","","","","","NaN",""
"","S1","","html-keyboard-response","245","1099661","0.0-1.0-326.0","0","0","72928","","null","","","null","36","","","","","","","","","","","","","","","",""
"","ISI","","html-keyboard-response","246","1100165","0.0-1.0-327.0","0","0","72928","","null","","","null","36","NaN","","","","","","","","","","","","","","",""
"","S2","","html-keyboard-response","247","1100423","0.0-1.0-328.0","0","0","72928","","null","","","null","36","","NaN","","","","","","","","","","","","","",""
"","response","","html-keyboard-response","248","1100877","0.0-1.0-329.0-0.0","0","0","72928","","448","","","75","36","","","1","36","training","adjacent","GF","7","6","L.jpg","P.jpg","0","0","1","",""
"","feedback","","html-keyboard-response","249","1101883","0.0-1.0-330.0-0.0","0","0","72928","","null","","","null","36","","","","","","","","","","","","","","","",""
"","ITI","","html-keyboard-response","250","1102889","0.0-1.0-333.0","0","0","72928","","null","","","null","36","","","","","","","","","","","","","","","NaN",""
"","S1","","html-keyboard-response","251","1103145","0.0-1.0-335.0","0","0","72928","","null","","","null","37","","","","","","","","","","","","","","","",""
"","ISI","","html-keyboard-response","252","1103649","0.0-1.0-336.0","0","0","72928","","null","","","null","37","NaN","","","","","","","","","","","","","","",""
"","S2","","html-keyboard-response","253","1103904","0.0-1.0-337.0","0","0","72928","","null","","","null","37","","NaN","","","","","","","","","","","","","",""
"","response","","html-keyboard-response","254","1105668","0.0-1.0-338.0-0.0","0","0","72928","","null","","","null","37","","","1","37","training","adjacent","DE","4","5","Q.jpg","R.jpg","NaN","1","0","",""
"","too_slow_prompt","","html-keyboard-response","255","1106671","0.0-1.0-340.0-0.0","1","0","72928","","null","","","null","","","","","","","","","","","","","","","","",""
"","time_out","","html-keyboard-response","256","1108678","0.0-1.0-341.0-0.0","0","0","72928","","null","","","null","37","","","","","","","","","","","","","","","",""
"","ITI","","html-keyboard-response","257","1109684","0.0-1.0-342.0","0","0","72928","","null","","","null","37","","","","","","","","","","","","","","","NaN",""
"","S1","","html-keyboard-response","258","1109941","0.0-1.0-344.0","0","0","72928","","null","","","null","38","","","","","","","","","","","","","","","",""
"","ISI","","html-keyboard-response","259","1110446","0.0-1.0-345.0","0","0","72928","","null","","","null","38","NaN","","","","","","","","","","","","","","",""
"","S2","","html-keyboard-response","260","1110701","0.0-1.0-346.0","0","0","72928","","null","","","null","38","","NaN","","","","","","","","","","","","","",""
"","response","","html-keyboard-response","261","1111779","0.0-1.0-347.0-0.0","0","0","72928","","1071","","","68","38","","","1","38","training","adjacent","CD","3","4","M.jpg","Q.jpg","1","1","1","",""
"","feedback","","html-keyboard-response","262","1112784","0.0-1.0-348.0-0.0","0","0","72928","","null","","","null","38","","","","","","","","","","","","","","","",""
"","ITI","","html-keyboard-response","263","1113796","0.0-1.0-351.0","0","0","72928","","null","","","null","38","","","","","","","","","","","","","","","NaN",""
"","S1","","html-keyboard-response","264","1114052","0.0-1.0-353.0","0","0","72928","","null","","","null","39","","","","","","","","","","","","","","","",""
"","ISI","","html-keyboard-response","265","1114558","0.0-1.0-354.0","0","0","72928","","null","","","null","39","NaN","","","","","","","","","","","","","","",""
"","S2","","html-keyboard-response","266","1114814","0.0-1.0-355.0","0","0","72928","","null","","","null","39","","NaN","","","","","","","","","","","","","",""
"","response","","html-keyboard-response","267","1115940","0.0-1.0-356.0-0.0","0","0","72928","","1112","","","75","39","","","1","39","training","adjacent","BA","2","1","N.jpg","O.jpg","0","0","1","",""
"","feedback","","html-keyboard-response","268","1116949","0.0-1.0-357.0-0.0","0","0","72928","","null","","","null","39","","","","","","","","","","","","","","","",""
"","ITI","","html-keyboard-response","269","1117973","0.0-1.0-360.0","0","0","72928","","null","","","null","39","","","","","","","","","","","","","","","NaN",""
"","S1","","html-keyboard-response","270","1118230","0.0-1.0-362.0","0","0","72928","","null","","","null","40","","","","","","","","","","","","","","","",""
"","ISI","","html-keyboard-response","271","1118733","0.0-1.0-363.0","0","0","72928","","null","","","null","40","NaN","","","","","","","","","","","","","","",""
"","S2","","html-keyboard-response","272","1119000","0.0-1.0-364.0","0","0","72928","","null","","","null","40","","NaN","","","","","","","","","","","","","",""
"","response","","html-keyboard-response","273","1120758","0.0-1.0-365.0-0.0","0","0","72928","","null","","","null","40","","","1","40","training","adjacent","CD","3","4","M.jpg","Q.jpg","NaN","1","0","",""
"","too_slow_prompt","","html-keyboard-response","274","1121763","0.0-1.0-367.0-0.0","1","0","72928","","null","","","null","","","","","","","","","","","","","","","","",""
"","time_out","","html-keyboard-response","275","1123769","0.0-1.0-368.0-0.0","0","0","72928","","null","","","null","40","","","","","","","","","","","","","","","",""
"","ITI","","html-keyboard-response","276","1124774","0.0-1.0-369.0","0","0","72928","","353","","","75","40","","","","","","","","","","","","","","","k",""
"","S1","","html-keyboard-response","277","1125032","0.0-1.0-371.0","0","0","72928","","null","","","null","41","","","","","","","","","","","","","","","",""
"","ISI","","html-keyboard-response","278","1125537","0.0-1.0-372.0","0","0","72928","","null","","","null","41","NaN","","","","","","","","","","","","","","",""
"","S2","","html-keyboard-response","279","1125641","0.0-1.0-373.0","0","0","72928","","98","","","68","41","","d","1","41","training","adjacent","FE","6","5","P.jpg","R.jpg","1","0","0","",""
"","feedback","","html-keyboard-response","280","1126650","0.0-1.0-375.0-0.0","0","0","72928","","null","","","null","41","","","","","","","","","","","","","","","",""
"","time_out","","html-keyboard-response","281","1128659","0.0-1.0-377.0-0.0","0","0","72928","","null","","","null","41","","","","","","","","","","","","","","","",""
"","ITI","","html-keyboard-response","282","1129666","0.0-1.0-378.0","0","0","72928","","null","","","null","41","","","","","","","","","","","","","","","NaN",""
"","S1","","html-keyboard-response","283","1129920","0.0-1.0-380.0","0","0","72928","","null","","","null","42","","","","","","","","","","","","","","","",""
"","ISI","","html-keyboard-response","284","1130426","0.0-1.0-381.0","0","0","72928","","null","","","null","42","NaN","","","","","","","","","","","","","","",""
"","S2","","html-keyboard-response","285","1130683","0.0-1.0-382.0","0","0","72928","","null","","","null","42","","NaN","","","","","","","","","","","","","",""
"","response","","html-keyboard-response","286","1131315","0.0-1.0-383.0-0.0","0","0","72928","","626","","","68","42","","","1","42","training","adjacent","DE","4","5","Q.jpg","R.jpg","1","1","1","",""
"","feedback","","html-keyboard-response","287","1132320","0.0-1.0-384.0-0.0","0","0","72928","","null","","","null","42","","","","","","","","","","","","","","","",""
"","ITI","","html-keyboard-response","288","1133327","0.0-1.0-387.0","0","0","72928","","null","","","null","42","","","","","","","","","","","","","","","NaN",""
"","S1","","html-keyboard-response","289","1133580","0.0-1.0-389.0","0","0","72928","","null","","","null","43","","","","","","","","","","","","","","","",""
"","ISI","","html-keyboard-response","290","1134085","0.0-1.0-390.0","0","0","72928","","null","","","null","43","NaN","","","","","","","","","","","","","","",""
"","S2","","html-keyboard-response","291","1134344","0.0-1.0-391.0","0","0","72928","","null","","","null","43","","NaN","","","","","","","","","","","","","",""
"","response","","html-keyboard-response","292","1135213","0.0-1.0-392.0-0.0","0","0","72928","","863","","","68","43","","","1","43","training","adjacent","ED","5","4","R.jpg","Q.jpg","1","0","0","",""
"","feedback","","html-keyboard-response","293","1136219","0.0-1.0-393.0-0.0","0","0","72928","","null","","","null","43","","","","","","","","","","","","","","","",""
"","time_out","","html-keyboard-response","294","1138230","0.0-1.0-395.0-0.0","0","0","72928","","null","","","null","43","","","","","","","","","","","","","","","",""
"","ITI","","html-keyboard-response","295","1139236","0.0-1.0-396.0","0","0","72928","","null","","","null","43","","","","","","","","","","","","","","","NaN",""
"","S1","","html-keyboard-response","296","1139504","0.0-1.0-398.0","0","0","72928","","null","","","null","44","","","","","","","","","","","","","","","",""
"","ISI","","html-keyboard-response","297","1140013","0.0-1.0-399.0","0","0","72928","","null","","","null","44","NaN","","","","","","","","","","","","","","",""
"","S2","","html-keyboard-response","298","1140268","0.0-1.0-400.0","0","0","72928","","null","","","null","44","","NaN","","","","","","","","","","","","","",""
"","response","","html-keyboard-response","299","1141024","0.0-1.0-401.0-0.0","0","0","72928","","750","","","75","44","","","1","44","training","adjacent","FE","6","5","P.jpg","R.jpg","0","0","1","",""
"","feedback","","html-keyboard-response","300","1142031","0.0-1.0-402.0-0.0","0","0","72928","","null","","","null","44","","","","","","","","","","","","","","","",""
"","ITI","","html-keyboard-response","301","1143035","0.0-1.0-405.0","0","0","72928","","null","","","null","44","","","","","","","","","","","","","","","NaN",""
"","S1","","html-keyboard-response","302","1143290","0.0-1.0-407.0","0","0","72928","","null","","","null","45","","","","","","","","","","","","","","","",""
"","ISI","","html-keyboard-response","303","1143794","0.0-1.0-408.0","0","0","72928","","null","","","null","45","NaN","","","","","","","","","","","","","","",""
"","S2","","html-keyboard-response","304","1144050","0.0-1.0-409.0","0","0","72928","","null","","","null","45","","NaN","","","","","","","","","","","","","",""
"","response","","html-keyboard-response","305","1145345","0.0-1.0-410.0-0.0","0","0","72928","","1289","","","68","45","","","1","45","training","adjacent","BA","2","1","N.jpg","O.jpg","1","0","0","",""
"","feedback","","html-keyboard-response","306","1146361","0.0-1.0-411.0-0.0","0","0","72928","","null","","","null","45","","","","","","","","","","","","","","","",""
"","time_out","","html-keyboard-response","307","1148371","0.0-1.0-413.0-0.0","0","0","72928","","null","","","null","45","","","","","","","","","","","","","","","",""
"","ITI","","html-keyboard-response","308","1149379","0.0-1.0-414.0","0","0","72928","","null","","","null","45","","","","","","","","","","","","","","","NaN",""
"","S1","","html-keyboard-response","309","1149678","0.0-1.0-416.0","0","0","72928","","null","","","null","46","","","","","","","","","","","","","","","",""
"","ISI","","html-keyboard-response","310","1150183","0.0-1.0-417.0","0","0","72928","","null","","","null","46","NaN","","","","","","","","","","","","","","",""
"","S2","","html-keyboard-response","311","1150440","0.0-1.0-418.0","0","0","72928","","null","","","null","46","","NaN","","","","","","","","","","","","","",""
"","response","","html-keyboard-response","312","1151465","0.0-1.0-419.0-0.0","0","0","72928","","1019","","","75","46","","","1","46","training","adjacent","GF","7","6","L.jpg","P.jpg","0","0","1","",""
"","feedback","","html-keyboard-response","313","1152471","0.0-1.0-420.0-0.0","0","0","72928","","null","","","null","46","","","","","","","","","","","","","","","",""
"","ITI","","html-keyboard-response","314","1153477","0.0-1.0-423.0","0","0","72928","","null","","","null","46","","","","","","","","","","","","","","","NaN",""
"","S1","","html-keyboard-response","315","1153736","0.0-1.0-425.0","0","0","72928","","null","","","null","47","","","","","","","","","","","","","","","",""
"","ISI","","html-keyboard-response","316","1154240","0.0-1.0-426.0","0","0","72928","","null","","","null","47","NaN","","","","","","","","","","","","","","",""
"","S2","","html-keyboard-response","317","1154496","0.0-1.0-427.0","0","0","72928","","null","","","null","47","","NaN","","","","","","","","","","","","","",""
"","response","","html-keyboard-response","318","1155623","0.0-1.0-428.0-0.0","0","0","72928","","1121","","","68","47","","","1","47","training","adjacent","AB","1","2","O.jpg","N.jpg","1","1","1","",""
"","feedback","","html-keyboard-response","319","1156629","0.0-1.0-429.0-0.0","0","0","72928","","null","","","null","47","","","","","","","","","","","","","","","",""
"","ITI","","html-keyboard-response","320","1157648","0.0-1.0-432.0","0","0","72928","","null","","","null","47","","","","","","","","","","","","","","","NaN",""
"","block_over","","html-keyboard-response","321","1181944","0.0-1.0-433.0-0.0","0","0","72928","","24274","","","32","47","","","","","","","","","","","","","","","",""
"","S1","","html-keyboard-response","322","1182200","0.0-1.0-434.0","0","0","72928","","null","","","null","48","","","","","","","","","","","","","","","",""
"","ISI","","html-keyboard-response","323","1182705","0.0-1.0-435.0","0","0","72928","","null","","","null","48","NaN","","","","","","","","","","","","","","",""
"","S2","","html-keyboard-response","324","1182960","0.0-1.0-436.0","0","0","72928","","null","","","null","48","","NaN","","","","","","","","","","","","","",""
"","response","","html-keyboard-response","325","1184266","0.0-1.0-437.0-0.0","0","0","72928","","1299","","","68","48","","","2","48","training","adjacent","GF","7","6","L.jpg","P.jpg","1","0","0","",""
"","feedback","","html-keyboard-response","326","1185272","0.0-1.0-438.0-0.0","0","0","72928","","null","","","null","48","","","","","","","","","","","","","","","",""
"","time_out","","html-keyboard-response","327","1187282","0.0-1.0-440.0-0.0","0","0","72928","","null","","","null","48","","","","","","","","","","","","","","","",""
"","ITI","","html-keyboard-response","328","1188290","0.0-1.0-441.0","0","0","72928","","null","","","null","48","","","","","","","","","","","","","","","NaN",""
"","S1","","html-keyboard-response","329","1188546","0.0-1.0-443.0","0","0","72928","","null","","","null","49","","","","","","","","","","","","","","","",""
"","ISI","","html-keyboard-response","330","1189049","0.0-1.0-444.0","0","0","72928","","null","","","null","49","NaN","","","","","","","","","","","","","","",""
"","S2","","html-keyboard-response","331","1189307","0.0-1.0-445.0","0","0","72928","","null","","","null","49","","NaN","","","","","","","","","","","","","",""
"","response","","html-keyboard-response","332","1190288","0.0-1.0-446.0-0.0","0","0","72928","","976","","","68","49","","","2","49","training","adjacent","CD","3","4","M.jpg","Q.jpg","1","1","1","",""
"","feedback","","html-keyboard-response","333","1191296","0.0-1.0-447.0-0.0","0","0","72928","","null","","","null","49","","","","","","","","","","","","","","","",""
"","ITI","","html-keyboard-response","334","1192303","0.0-1.0-450.0","0","0","72928","","null","","","null","49","","","","","","","","","","","","","","","NaN",""
"","S1","","html-keyboard-response","335","1192558","0.0-1.0-452.0","0","0","72928","","null","","","null","50","","","","","","","","","","","","","","","",""
"","ISI","","html-keyboard-response","336","1193065","0.0-1.0-453.0","0","0","72928","","null","","","null","50","NaN","","","","","","","","","","","","","","",""
"","S2","","html-keyboard-response","337","1193320","0.0-1.0-454.0","0","0","72928","","null","","","null","50","","NaN","","","","","","","","","","","","","",""
"","response","","html-keyboard-response","338","1194364","0.0-1.0-455.0-0.0","0","0","72928","","1030","","","68","50","","","2","50","training","adjacent","CD","3","4","M.jpg","Q.jpg","1","1","1","",""
"","feedback","","html-keyboard-response","339","1195373","0.0-1.0-456.0-0.0","0","0","72928","","null","","","null","50","","","","","","","","","","","","","","","",""
"","ITI","","html-keyboard-response","340","1196380","0.0-1.0-459.0","0","0","72928","","null","","","null","50","","","","","","","","","","","","","","","NaN",""
"","S1","","html-keyboard-response","341","1196637","0.0-1.0-461.0","0","0","72928","","null","","","null","51","","","","","","","","","","","","","","","",""
"","ISI","","html-keyboard-response","342","1197141","0.0-1.0-462.0","0","0","72928","","null","","","null","51","NaN","","","","","","","","","","","","","","",""
"","S2","","html-keyboard-response","343","1197400","0.0-1.0-463.0","0","0","72928","","null","","","null","51","","NaN","","","","","","","","","","","","","",""
"","response","","html-keyboard-response","344","1198383","0.0-1.0-464.0-0.0","0","0","72928","","979","","","75","51","","","2","51","training","adjacent","CB","3","2","M.jpg","N.jpg","0","0","1","",""
"","feedback","","html-keyboard-response","345","1199390","0.0-1.0-465.0-0.0","0","0","72928","","null","","","null","51","","","","","","","","","","","","","","","",""
"","ITI","","html-keyboard-response","346","1200413","0.0-1.0-468.0","0","0","72928","","null","","","null","51","","","","","","","","","","","","","","","NaN",""
"","S1","","html-keyboard-response","347","1200667","0.0-1.0-470.0","0","0","72928","","null","","","null","52","","","","","","","","","","","","","","","",""
"","ISI","","html-keyboard-response","348","1201172","0.0-1.0-471.0","0","0","72928","","null","","","null","52","NaN","","","","","","","","","","","","","","",""
"","S2","","html-keyboard-response","349","1201438","0.0-1.0-472.0","0","0","72928","","null","","","null","52","","NaN","","","","","","","","","","","","","",""
"","response","","html-keyboard-response","350","1202003","0.0-1.0-473.0-0.0","0","0","72928","","560","","","75","52","","","2","52","training","adjacent","CB","3","2","M.jpg","N.jpg","0","0","1","",""
"","feedback","","html-keyboard-response","351","1203009","0.0-1.0-474.0-0.0","0","0","72928","","null","","","null","52","","","","","","","","","","","","","","","",""
"","ITI","","html-keyboard-response","352","1204013","0.0-1.0-477.0","0","0","72928","","null","","","null","52","","","","","","","","","","","","","","","NaN",""
"","S1","","html-keyboard-response","353","1204268","0.0-1.0-479.0","0","0","72928","","null","","","null","53","","","","","","","","","","","","","","","",""
"","ISI","","html-keyboard-response","354","1204771","0.0-1.0-480.0","0","0","72928","","null","","","null","53","NaN","","","","","","","","","","","","","","",""
"","S2","","html-keyboard-response","355","1205025","0.0-1.0-481.0","0","0","72928","","null","","","null","53","","NaN","","","","","","","","","","","","","",""
"","response","","html-keyboard-response","356","1205765","0.0-1.0-482.0-0.0","0","0","72928","","736","","","75","53","","","2","53","training","adjacent","DE","4","5","Q.jpg","R.jpg","0","1","0","",""
"","feedback","","html-keyboard-response","357","1206771","0.0-1.0-483.0-0.0","0","0","72928","","null","","","null","53","","","","","","","","","","","","","","","",""
"","time_out","","html-keyboard-response","358","1208780","0.0-1.0-485.0-0.0","0","0","72928","","null","","","null","53","","","","","","","","","","","","","","","",""
"","ITI","","html-keyboard-response","359","1209790","0.0-1.0-486.0","0","0","72928","","null","","","null","53","","","","","","","","","","","","","","","NaN",""
"","S1","","html-keyboard-response","360","1210046","0.0-1.0-488.0","0","0","72928","","null","","","null","54","","","","","","","","","","","","","","","",""
"","ISI","","html-keyboard-response","361","1210560","0.0-1.0-489.0","0","0","72928","","null","","","null","54","NaN","","","","","","","","","","","","","","",""
"","S2","","html-keyboard-response","362","1210817","0.0-1.0-490.0","0","0","72928","","null","","","null","54","","NaN","","","","","","","","","","","","","",""
"","response","","html-keyboard-response","363","1211740","0.0-1.0-491.0-0.0","0","0","72928","","918","","","75","54","","","2","54","training","adjacent","GF","7","6","L.jpg","P.jpg","0","0","1","",""
"","feedback","","html-keyboard-response","364","1212747","0.0-1.0-492.0-0.0","0","0","72928","","null","","","null","54","","","","","","","","","","","","","","","",""
"","ITI","","html-keyboard-response","365","1213753","0.0-1.0-495.0","0","0","72928","","null","","","null","54","","","","","","","","","","","","","","","NaN",""
"","S1","","html-keyboard-response","366","1214009","0.0-1.0-497.0","0","0","72928","","null","","","null","55","","","","","","","","","","","","","","","",""
"","ISI","","html-keyboard-response","367","1214514","0.0-1.0-498.0","0","0","72928","","null","","","null","55","NaN","","","","","","","","","","","","","","",""
"","S2","","html-keyboard-response","368","1214771","0.0-1.0-499.0","0","0","72928","","null","","","null","55","","NaN","","","","","","","","","","","","","",""
"","response","","html-keyboard-response","369","1215955","0.0-1.0-500.0-0.0","0","0","72928","","1179","","","68","55","","","2","55","training","adjacent","ED","5","4","R.jpg","Q.jpg","1","0","0","",""
"","feedback","","html-keyboard-response","370","1216961","0.0-1.0-501.0-0.0","0","0","72928","","null","","","null","55","","","","","","","","","","","","","","","",""
"","time_out","","html-keyboard-response","371","1218968","0.0-1.0-503.0-0.0","0","0","72928","","null","","","null","55","","","","","","","","","","","","","","","",""
"","ITI","","html-keyboard-response","372","1219975","0.0-1.0-504.0","0","0","72928","","null","","","null","55","","","","","","","","","","","","","","","NaN",""
"","S1","","html-keyboard-response","373","1220235","0.0-1.0-506.0","0","0","72928","","null","","","null","56","","","","","","","","","","","","","","","",""
"","ISI","","html-keyboard-response","374","1220744","0.0-1.0-507.0","0","0","72928","","null","","","null","56","NaN","","","","","","","","","","","","","","",""
"","S2","","html-keyboard-response","375","1221001","0.0-1.0-508.0","0","0","72928","","null","","","null","56","","NaN","","","","","","","","","","","","","",""
"","response","","html-keyboard-response","376","1221862","0.0-1.0-509.0-0.0","0","0","72928","","857","","","75","56","","","2","56","training","adjacent","FE","6","5","P.jpg","R.jpg","0","0","1","",""
"","feedback","","html-keyboard-response","377","1222877","0.0-1.0-510.0-0.0","0","0","72928","","null","","","null","56","","","","","","","","","","","","","","","",""
"","ITI","","html-keyboard-response","378","1223885","0.0-1.0-513.0","0","0","72928","","null","","","null","56","","","","","","","","","","","","","","","NaN",""
"","S1","","html-keyboard-response","379","1224141","0.0-1.0-515.0","0","0","72928","","null","","","null","57","","","","","","","","","","","","","","","",""
"","ISI","","html-keyboard-response","380","1224645","0.0-1.0-516.0","0","0","72928","","null","","","null","57","NaN","","","","","","","","","","","","","","",""
"","S2","","html-keyboard-response","381","1224902","0.0-1.0-517.0","0","0","72928","","null","","","null","57","","NaN","","","","","","","","","","","","","",""
"","response","","html-keyboard-response","382","1225704","0.0-1.0-518.0-0.0","0","0","72928","","798","","","68","57","","","2","57","training","adjacent","CB","3","2","M.jpg","N.jpg","1","0","0","",""
"","feedback","","html-keyboard-response","383","1226715","0.0-1.0-519.0-0.0","0","0","72928","","null","","","null","57","","","","","","","","","","","","","","","",""
"","time_out","","html-keyboard-response","384","1228743","0.0-1.0-521.0-0.0","0","0","72928","","null","","","null","57","","","","","","","","","","","","","","","",""
"","ITI","","html-keyboard-response","385","1229748","0.0-1.0-522.0","0","0","72928","","null","","","null","57","","","","","","","","","","","","","","","NaN",""
"","S1","","html-keyboard-response","386","1230005","0.0-1.0-524.0","0","0","72928","","null","","","null","58","","","","","","","","","","","","","","","",""
"","ISI","","html-keyboard-response","387","1230512","0.0-1.0-525.0","0","0","72928","","null","","","null","58","NaN","","","","","","","","","","","","","","",""
"","S2","","html-keyboard-response","388","1230768","0.0-1.0-526.0","0","0","72928","","null","","","null","58","","NaN","","","","","","","","","","","","","",""
"","response","","html-keyboard-response","389","1231517","0.0-1.0-527.0-0.0","0","0","72928","","742","","","75","58","","","2","58","training","adjacent","FE","6","5","P.jpg","R.jpg","0","0","1","",""
"","feedback","","html-keyboard-response","390","1232526","0.0-1.0-528.0-0.0","0","0","72928","","null","","","null","58","","","","","","","","","","","","","","","",""
"","ITI","","html-keyboard-response","391","1233544","0.0-1.0-531.0","0","0","72928","","null","","","null","58","","","","","","","","","","","","","","","NaN",""
"","S1","","html-keyboard-response","392","1233817","0.0-1.0-533.0","0","0","72928","","null","","","null","59","","","","","","","","","","","","","","","",""
"","ISI","","html-keyboard-response","393","1234325","0.0-1.0-534.0","0","0","72928","","null","","","null","59","NaN","","","","","","","","","","","","","","",""
"","S2","","html-keyboard-response","394","1234581","0.0-1.0-535.0","0","0","72928","","null","","","null","59","","NaN","","","","","","","","","","","","","",""
"","response","","html-keyboard-response","395","1235131","0.0-1.0-536.0-0.0","0","0","72928","","546","","","75","59","","","2","59","training","adjacent","FE","6","5","P.jpg","R.jpg","0","0","1","",""
"","feedback","","html-keyboard-response","396","1236137","0.0-1.0-537.0-0.0","0","0","72928","","null","","","null","59","","","","","","","","","","","","","","","",""
"","ITI","","html-keyboard-response","397","1237143","0.0-1.0-540.0","0","0","72928","","null","","","null","59","","","","","","","","","","","","","","","NaN",""
"","S1","","html-keyboard-response","398","1237399","0.0-1.0-542.0","0","0","72928","","null","","","null","60","","","","","","","","","","","","","","","",""
"","ISI","","html-keyboard-response","399","1237907","0.0-1.0-543.0","0","0","72928","","null","","","null","60","NaN","","","","","","","","","","","","","","",""
"","S2","","html-keyboard-response","400","1238165","0.0-1.0-544.0","0","0","72928","","null","","","null","60","","NaN","","","","","","","","","","","","","",""
"","response","","html-keyboard-response","401","1238909","0.0-1.0-545.0-0.0","0","0","72928","","734","","","68","60","","","2","60","training","adjacent","DC","4","3","Q.jpg","M.jpg","1","0","0","",""
"","feedback","","html-keyboard-response","402","1239924","0.0-1.0-546.0-0.0","0","0","72928","","null","","","null","60","","","","","","","","","","","","","","","",""
"","time_out","","html-keyboard-response","403","1241932","0.0-1.0-548.0-0.0","0","0","72928","","null","","","null","60","","","","","","","","","","","","","","","",""
"","ITI","","html-keyboard-response","404","1242939","0.0-1.0-549.0","0","0","72928","","null","","","null","60","","","","","","","","","","","","","","","NaN",""
"","S1","","html-keyboard-response","405","1243193","0.0-1.0-551.0","0","0","72928","","null","","","null","61","","","","","","","","","","","","","","","",""
"","ISI","","html-keyboard-response","406","1243700","0.0-1.0-552.0","0","0","72928","","null","","","null","61","NaN","","","","","","","","","","","","","","",""
"","S2","","html-keyboard-response","407","1243958","0.0-1.0-553.0","0","0","72928","","null","","","null","61","","NaN","","","","","","","","","","","","","",""
"","response","","html-keyboard-response","408","1245046","0.0-1.0-554.0-0.0","0","0","72928","","1081","","","68","61","","","2","61","training","adjacent","CD","3","4","M.jpg","Q.jpg","1","1","1","",""
"","feedback","","html-keyboard-response","409","1246050","0.0-1.0-555.0-0.0","0","0","72928","","null","","","null","61","","","","","","","","","","","","","","","",""
"","ITI","","html-keyboard-response","410","1247053","0.0-1.0-558.0","0","0","72928","","null","","","null","61","","","","","","","","","","","","","","","NaN",""
"","S1","","html-keyboard-response","411","1247306","0.0-1.0-560.0","0","0","72928","","null","","","null","62","","","","","","","","","","","","","","","",""
"","ISI","","html-keyboard-response","412","1247810","0.0-1.0-561.0","0","0","72928","","null","","","null","62","NaN","","","","","","","","","","","","","","",""
"","S2","","html-keyboard-response","413","1248069","0.0-1.0-562.0","0","0","72928","","null","","","null","62","","NaN","","","","","","","","","","","","","",""
"","response","","html-keyboard-response","414","1248677","0.0-1.0-563.0-0.0","0","0","72928","","602","","","75","62","","","2","62","training","adjacent","FE","6","5","P.jpg","R.jpg","0","0","1","",""
"","feedback","","html-keyboard-response","415","1249681","0.0-1.0-564.0-0.0","0","0","72928","","null","","","null","62","","","","","","","","","","","","","","","",""
"","ITI","","html-keyboard-response","416","1250687","0.0-1.0-567.0","0","0","72928","","null","","","null","62","","","","","","","","","","","","","","","NaN",""
"","S1","","html-keyboard-response","417","1250943","0.0-1.0-569.0","0","0","72928","","null","","","null","63","","","","","","","","","","","","","","","",""
"","ISI","","html-keyboard-response","418","1251448","0.0-1.0-570.0","0","0","72928","","null","","","null","63","NaN","","","","","","","","","","","","","","",""
"","S2","","html-keyboard-response","419","1251729","0.0-1.0-571.0","0","0","72928","","null","","","null","63","","NaN","","","","","","","","","","","","","",""
"","response","","html-keyboard-response","420","1252807","0.0-1.0-572.0-0.0","0","0","72928","","1072","","","68","63","","","2","63","training","adjacent","ED","5","4","R.jpg","Q.jpg","1","0","0","",""
"","feedback","","html-keyboard-response","421","1253815","0.0-1.0-573.0-0.0","0","0","72928","","null","","","null","63","","","","","","","","","","","","","","","",""
"","time_out","","html-keyboard-response","422","1255822","0.0-1.0-575.0-0.0","0","0","72928","","null","","","null","63","","","","","","","","","","","","","","","",""
"","ITI","","html-keyboard-response","423","1256826","0.0-1.0-576.0","0","0","72928","","null","","","null","63","","","","","","","","","","","","","","","NaN",""
"","S1","","html-keyboard-response","424","1257080","0.0-1.0-578.0","0","0","72928","","null","","","null","64","","","","","","","","","","","","","","","",""
"","ISI","","html-keyboard-response","425","1257587","0.0-1.0-579.0","0","0","72928","","null","","","null","64","NaN","","","","","","","","","","","","","","",""
"","S2","","html-keyboard-response","426","1257845","0.0-1.0-580.0","0","0","72928","","null","","","null","64","","NaN","","","","","","","","","","","","","",""
"","response","","html-keyboard-response","427","1258711","0.0-1.0-581.0-0.0","0","0","72928","","856","","","75","64","","","2","64","training","adjacent","EF","5","6","R.jpg","P.jpg","0","1","0","",""
"","feedback","","html-keyboard-response","428","1259716","0.0-1.0-582.0-0.0","0","0","72928","","null","","","null","64","","","","","","","","","","","","","","","",""
"","time_out","","html-keyboard-response","429","1261723","0.0-1.0-584.0-0.0","0","0","72928","","null","","","null","64","","","","","","","","","","","","","","","",""
"","ITI","","html-keyboard-response","430","1262731","0.0-1.0-585.0","0","0","72928","","null","","","null","64","","","","","","","","","","","","","","","NaN",""
"","S1","","html-keyboard-response","431","1262988","0.0-1.0-587.0","0","0","72928","","null","","","null","65","","","","","","","","","","","","","","","",""
"","ISI","","html-keyboard-response","432","1263493","0.0-1.0-588.0","0","0","72928","","null","","","null","65","NaN","","","","","","","","","","","","","","",""
"","S2","","html-keyboard-response","433","1263761","0.0-1.0-589.0","0","0","72928","","null","","","null","65","","NaN","","","","","","","","","","","","","",""
"","response","","html-keyboard-response","434","1264496","0.0-1.0-590.0-0.0","0","0","72928","","730","","","68","65","","","2","65","training","adjacent","GF","7","6","L.jpg","P.jpg","1","0","0","",""
"","feedback","","html-keyboard-response","435","1265503","0.0-1.0-591.0-0.0","0","0","72928","","null","","","null","65","","","","","","","","","","","","","","","",""
"","time_out","","html-keyboard-response","436","1267506","0.0-1.0-593.0-0.0","0","0","72928","","null","","","null","65","","","","","","","","","","","","","","","",""
"","ITI","","html-keyboard-response","437","1268512","0.0-1.0-594.0","0","0","72928","","null","","","null","65","","","","","","","","","","","","","","","NaN",""
"","S1","","html-keyboard-response","438","1268768","0.0-1.0-596.0","0","0","72928","","null","","","null","66","","","","","","","","","","","","","","","",""
"","ISI","","html-keyboard-response","439","1269272","0.0-1.0-597.0","0","0","72928","","null","","","null","66","NaN","","","","","","","","","","","","","","",""
"","S2","","html-keyboard-response","440","1269527","0.0-1.0-598.0","0","0","72928","","null","","","null","66","","NaN","","","","","","","","","","","","","",""
"","response","","html-keyboard-response","441","1270132","0.0-1.0-599.0-0.0","0","0","72928","","600","","","75","66","","","2","66","training","adjacent","AB","1","2","O.jpg","N.jpg","0","1","0","",""
"","feedback","","html-keyboard-response","442","1271139","0.0-1.0-600.0-0.0","0","0","72928","","null","","","null","66","","","","","","","","","","","","","","","",""
"","time_out","","html-keyboard-response","443","1273149","0.0-1.0-602.0-0.0","0","0","72928","","null","","","null","66","","","","","","","","","","","","","","","",""
"","ITI","","html-keyboard-response","444","1274156","0.0-1.0-603.0","0","0","72928","","null","","","null","66","","","","","","","","","","","","","","","NaN",""
"","S1","","html-keyboard-response","445","1274413","0.0-1.0-605.0","0","0","72928","","null","","","null","67","","","","","","","","","","","","","","","",""
"","ISI","","html-keyboard-response","446","1274920","0.0-1.0-606.0","0","0","72928","","null","","","null","67","NaN","","","","","","","","","","","","","","",""
"","S2","","html-keyboard-response","447","1275176","0.0-1.0-607.0","0","0","72928","","null","","","null","67","","NaN","","","","","","","","","","","","","",""
"","response","","html-keyboard-response","448","1276255","0.0-1.0-608.0-0.0","0","0","72928","","1073","","","68","67","","","2","67","training","adjacent","BC","2","3","N.jpg","M.jpg","1","1","1","",""
"","feedback","","html-keyboard-response","449","1277263","0.0-1.0-609.0-0.0","0","0","72928","","null","","","null","67","","","","","","","","","","","","","","","",""
"","ITI","","html-keyboard-response","450","1278268","0.0-1.0-612.0","0","0","72928","","null","","","null","67","","","","","","","","","","","","","","","NaN",""
"","S1","","html-keyboard-response","451","1278525","0.0-1.0-614.0","0","0","72928","","null","","","null","68","","","","","","","","","","","","","","","",""
"","ISI","","html-keyboard-response","452","1279029","0.0-1.0-615.0","0","0","72928","","null","","","null","68","NaN","","","","","","","","","","","","","","",""
"","S2","","html-keyboard-response","453","1279285","0.0-1.0-616.0","0","0","72928","","null","","","null","68","","NaN","","","","","","","","","","","","","",""
"","response","","html-keyboard-response","454","1280094","0.0-1.0-617.0-0.0","0","0","72928","","802","","","75","68","","","2","68","training","adjacent","FG","6","7","P.jpg","L.jpg","0","1","0","",""
"","feedback","","html-keyboard-response","455","1281102","0.0-1.0-618.0-0.0","0","0","72928","","null","","","null","68","","","","","","","","","","","","","","","",""
"","time_out","","html-keyboard-response","456","1283111","0.0-1.0-620.0-0.0","0","0","72928","","null","","","null","68","","","","","","","","","","","","","","","",""
"","ITI","","html-keyboard-response","457","1284125","0.0-1.0-621.0","0","0","72928","","null","","","null","68","","","","","","","","","","","","","","","NaN",""
"","S1","","html-keyboard-response","458","1284393","0.0-1.0-623.0","0","0","72928","","null","","","null","69","","","","","","","","","","","","","","","",""
"","ISI","","html-keyboard-response","459","1284928","0.0-1.0-624.0","0","0","72928","","null","","","null","69","NaN","","","","","","","","","","","","","","",""
"","S2","","html-keyboard-response","460","1285218","0.0-1.0-625.0","0","0","72928","","null","","","null","69","","NaN","","","","","","","","","","","","","",""
"","response","","html-keyboard-response","461","1285933","0.0-1.0-626.0-0.0","0","0","72928","","710","","","75","69","","","2","69","training","adjacent","CB","3","2","M.jpg","N.jpg","0","0","1","",""
"","feedback","","html-keyboard-response","462","1286939","0.0-1.0-627.0-0.0","0","0","72928","","null","","","null","69","","","","","","","","","","","","","","","",""
"","ITI","","html-keyboard-response","463","1287946","0.0-1.0-630.0","0","0","72928","","null","","","null","69","","","","","","","","","","","","","","","NaN",""
"","S1","","html-keyboard-response","464","1288200","0.0-1.0-632.0","0","0","72928","","null","","","null","70","","","","","","","","","","","","","","","",""
"","ISI","","html-keyboard-response","465","1288706","0.0-1.0-633.0","0","0","72928","","null","","","null","70","NaN","","","","","","","","","","","","","","",""
"","S2","","html-keyboard-response","466","1288963","0.0-1.0-634.0","0","0","72928","","null","","","null","70","","NaN","","","","","","","","","","","","","",""
"","response","","html-keyboard-response","467","1289945","0.0-1.0-635.0-0.0","0","0","72928","","975","","","68","70","","","2","70","training","adjacent","CD","3","4","M.jpg","Q.jpg","1","1","1","",""
"","feedback","","html-keyboard-response","468","1290954","0.0-1.0-636.0-0.0","0","0","72928","","null","","","null","70","","","","","","","","","","","","","","","",""
"","ITI","","html-keyboard-response","469","1291960","0.0-1.0-639.0","0","0","72928","","null","","","null","70","","","","","","","","","","","","","","","NaN",""
"","S1","","html-keyboard-response","470","1292216","0.0-1.0-641.0","0","0","72928","","null","","","null","71","","","","","","","","","","","","","","","",""
"","ISI","","html-keyboard-response","471","1292721","0.0-1.0-642.0","0","0","72928","","null","","","null","71","NaN","","","","","","","","","","","","","","",""
"","S2","","html-keyboard-response","472","1292977","0.0-1.0-643.0","0","0","72928","","null","","","null","71","","NaN","","","","","","","","","","","","","",""
"","response","","html-keyboard-response","473","1293679","0.0-1.0-644.0-0.0","0","0","72928","","694","","","75","71","","","2","71","training","adjacent","DC","4","3","Q.jpg","M.jpg","0","0","1","",""
"","feedback","","html-keyboard-response","474","1294687","0.0-1.0-645.0-0.0","0","0","72928","","null","","","null","71","","","","","","","","","","","","","","","",""
"","ITI","","html-keyboard-response","475","1295693","0.0-1.0-648.0","0","0","72928","","null","","","null","71","","","","","","","","","","","","","","","NaN",""
"","S1","","html-keyboard-response","476","1295950","0.0-1.0-650.0","0","0","72928","","null","","","null","72","","","","","","","","","","","","","","","",""
"","ISI","","html-keyboard-response","477","1296456","0.0-1.0-651.0","0","0","72928","","null","","","null","72","NaN","","","","","","","","","","","","","","",""
"","S2","","html-keyboard-response","478","1296713","0.0-1.0-652.0","0","0","72928","","null","","","null","72","","NaN","","","","","","","","","","","","","",""
"","response","","html-keyboard-response","479","1298344","0.0-1.0-653.0-0.0","0","0","72928","","1626","","","75","72","","","2","72","training","adjacent","AB","1","2","O.jpg","N.jpg","0","1","0","",""
"","feedback","","html-keyboard-response","480","1299354","0.0-1.0-654.0-0.0","0","0","72928","","null","","","null","72","","","","","","","","","","","","","","","",""
"","time_out","","html-keyboard-response","481","1301363","0.0-1.0-656.0-0.0","0","0","72928","","null","","","null","72","","","","","","","","","","","","","","","",""
"","ITI","","html-keyboard-response","482","1302368","0.0-1.0-657.0","0","0","72928","","null","","","null","72","","","","","","","","","","","","","","","NaN",""
"","S1","","html-keyboard-response","483","1302623","0.0-1.0-659.0","0","0","72928","","null","","","null","73","","","","","","","","","","","","","","","",""
"","ISI","","html-keyboard-response","484","1303137","0.0-1.0-660.0","0","0","72928","","null","","","null","73","NaN","","","","","","","","","","","","","","",""
"","S2","","html-keyboard-response","485","1303393","0.0-1.0-661.0","0","0","72928","","null","","","null","73","","NaN","","","","","","","","","","","","","",""
"","response","","html-keyboard-response","486","1303766","0.0-1.0-662.0-0.0","0","0","72928","","369","","","75","73","","","2","73","training","adjacent","EF","5","6","R.jpg","P.jpg","0","1","0","",""
"","feedback","","html-keyboard-response","487","1304774","0.0-1.0-663.0-0.0","0","0","72928","","null","","","null","73","","","","","","","","","","","","","","","",""
"","time_out","","html-keyboard-response","488","1306781","0.0-1.0-665.0-0.0","0","0","72928","","null","","","null","73","","","","","","","","","","","","","","","",""
"","ITI","","html-keyboard-response","489","1307789","0.0-1.0-666.0","0","0","72928","","null","","","null","73","","","","","","","","","","","","","","","NaN",""
"","S1","","html-keyboard-response","490","1308046","0.0-1.0-668.0","0","0","72928","","null","","","null","74","","","","","","","","","","","","","","","",""
"","ISI","","html-keyboard-response","491","1308550","0.0-1.0-669.0","0","0","72928","","null","","","null","74","NaN","","","","","","","","","","","","","","",""
"","S2","","html-keyboard-response","492","1308804","0.0-1.0-670.0","0","0","72928","","null","","","null","74","","NaN","","","","","","","","","","","","","",""
"","response","","html-keyboard-response","493","1309099","0.0-1.0-671.0-0.0","0","0","72928","","283","","","75","74","","","2","74","training","adjacent","ED","5","4","R.jpg","Q.jpg","0","0","1","",""
"","feedback","","html-keyboard-response","494","1310105","0.0-1.0-672.0-0.0","0","0","72928","","null","","","null","74","","","","","","","","","","","","","","","",""
"","ITI","","html-keyboard-response","495","1311111","0.0-1.0-675.0","0","0","72928","","null","","","null","74","","","","","","","","","","","","","","","NaN",""
"","S1","","html-keyboard-response","496","1311365","0.0-1.0-677.0","0","0","72928","","null","","","null","75","","","","","","","","","","","","","","","",""
"","ISI","","html-keyboard-response","497","1311869","0.0-1.0-678.0","0","0","72928","","null","","","null","75","NaN","","","","","","","","","","","","","","",""
"","S2","","html-keyboard-response","498","1312126","0.0-1.0-679.0","0","0","72928","","null","","","null","75","","NaN","","","","","","","","","","","","","",""
"","response","","html-keyboard-response","499","1312758","0.0-1.0-680.0-0.0","0","0","72928","","624","","","75","75","","","2","75","training","adjacent","BA","2","1","N.jpg","O.jpg","0","0","1","",""
"","feedback","","html-keyboard-response","500","1313768","0.0-1.0-681.0-0.0","0","0","72928","","null","","","null","75","","","","","","","","","","","","","","","",""
"","ITI","","html-keyboard-response","501","1314775","0.0-1.0-684.0","0","0","72928","","null","","","null","75","","","","","","","","","","","","","","","NaN",""
"","S1","","html-keyboard-response","502","1315032","0.0-1.0-686.0","0","0","72928","","null","","","null","76","","","","","","","","","","","","","","","",""
"","ISI","","html-keyboard-response","503","1315538","0.0-1.0-687.0","0","0","72928","","null","","","null","76","NaN","","","","","","","","","","","","","","",""
"","S2","","html-keyboard-response","504","1315792","0.0-1.0-688.0","0","0","72928","","null","","","null","76","","NaN","","","","","","","","","","","","","",""
"","response","","html-keyboard-response","505","1316200","0.0-1.0-689.0-0.0","0","0","72928","","401","","","75","76","","","2","76","training","adjacent","BC","2","3","N.jpg","M.jpg","0","1","0","",""
"","feedback","","html-keyboard-response","506","1317213","0.0-1.0-690.0-0.0","0","0","72928","","null","","","null","76","","","","","","","","","","","","","","","",""
"","time_out","","html-keyboard-response","507","1319221","0.0-1.0-692.0-0.0","0","0","72928","","null","","","null","76","","","","","","","","","","","","","","","",""
"","ITI","","html-keyboard-response","508","1320226","0.0-1.0-693.0","0","0","72928","","null","","","null","76","","","","","","","","","","","","","","","NaN",""
"","S1","","html-keyboard-response","509","1320485","0.0-1.0-695.0","0","0","72928","","null","","","null","77","","","","","","","","","","","","","","","",""
"","ISI","","html-keyboard-response","510","1320989","0.0-1.0-696.0","0","0","72928","","null","","","null","77","NaN","","","","","","","","","","","","","","",""
"","S2","","html-keyboard-response","511","1321245","0.0-1.0-697.0","0","0","72928","","null","","","null","77","","NaN","","","","","","","","","","","","","",""
"","response","","html-keyboard-response","512","1321814","0.0-1.0-698.0-0.0","0","0","72928","","563","","","75","77","","","2","77","training","adjacent","BA","2","1","N.jpg","O.jpg","0","0","1","",""
"","feedback","","html-keyboard-response","513","1322821","0.0-1.0-699.0-0.0","0","0","72928","","null","","","null","77","","","","","","","","","","","","","","","",""
"","ITI","","html-keyboard-response","514","1323828","0.0-1.0-702.0","0","0","72928","","null","","","null","77","","","","","","","","","","","","","","","NaN",""
"","S1","","html-keyboard-response","515","1324083","0.0-1.0-704.0","0","0","72928","","null","","","null","78","","","","","","","","","","","","","","","",""
"","ISI","","html-keyboard-response","516","1324592","0.0-1.0-705.0","0","0","72928","","null","","","null","78","NaN","","","","","","","","","","","","","","",""
"","S2","","html-keyboard-response","517","1324856","0.0-1.0-706.0","0","0","72928","","null","","","null","78","","NaN","","","","","","","","","","","","","",""
"","response","","html-keyboard-response","518","1325235","0.0-1.0-707.0-0.0","0","0","72928","","373","","","75","78","","","2","78","training","adjacent","AB","1","2","O.jpg","N.jpg","0","1","0","",""
"","feedback","","html-keyboard-response","519","1326243","0.0-1.0-708.0-0.0","0","0","72928","","null","","","null","78","","","","","","","","","","","","","","","",""
"","time_out","","html-keyboard-response","520","1328254","0.0-1.0-710.0-0.0","0","0","72928","","null","","","null","78","","","","","","","","","","","","","","","",""
"","ITI","","html-keyboard-response","521","1329261","0.0-1.0-711.0","0","0","72928","","null","","","null","78","","","","","","","","","","","","","","","NaN",""
"","S1","","html-keyboard-response","522","1329516","0.0-1.0-713.0","0","0","72928","","null","","","null","79","","","","","","","","","","","","","","","",""
"","ISI","","html-keyboard-response","523","1330053","0.0-1.0-714.0","0","0","72928","","null","","","null","79","NaN","","","","","","","","","","","","","","",""
"","S2","","html-keyboard-response","524","1330309","0.0-1.0-715.0","0","0","72928","","null","","","null","79","","NaN","","","","","","","","","","","","","",""
"","response","","html-keyboard-response","525","1331038","0.0-1.0-716.0-0.0","0","0","72928","","725","","","68","79","","","2","79","training","adjacent","DC","4","3","Q.jpg","M.jpg","1","0","0","",""
"","feedback","","html-keyboard-response","526","1332043","0.0-1.0-717.0-0.0","0","0","72928","","null","","","null","79","","","","","","","","","","","","","","","",""
"","time_out","","html-keyboard-response","527","1334051","0.0-1.0-719.0-0.0","0","0","72928","","null","","","null","79","","","","","","","","","","","","","","","",""
"","ITI","","html-keyboard-response","528","1335060","0.0-1.0-720.0","0","0","72928","","null","","","null","79","","","","","","","","","","","","","","","NaN",""
"","S1","","html-keyboard-response","529","1335319","0.0-1.0-722.0","0","0","72928","","null","","","null","80","","","","","","","","","","","","","","","",""
"","ISI","","html-keyboard-response","530","1335825","0.0-1.0-723.0","0","0","72928","","null","","","null","80","NaN","","","","","","","","","","","","","","",""
"","S2","","html-keyboard-response","531","1336083","0.0-1.0-724.0","0","0","72928","","null","","","null","80","","NaN","","","","","","","","","","","","","",""
"","response","","html-keyboard-response","532","1336818","0.0-1.0-725.0-0.0","0","0","72928","","729","","","75","80","","","2","80","training","adjacent","EF","5","6","R.jpg","P.jpg","0","1","0","",""
"","feedback","","html-keyboard-response","533","1337825","0.0-1.0-726.0-0.0","0","0","72928","","null","","","null","80","","","","","","","","","","","","","","","",""
"","time_out","","html-keyboard-response","534","1339832","0.0-1.0-728.0-0.0","0","0","72928","","null","","","null","80","","","","","","","","","","","","","","","",""
"","ITI","","html-keyboard-response","535","1340836","0.0-1.0-729.0","0","0","72928","","null","","","null","80","","","","","","","","","","","","","","","NaN",""
"","S1","","html-keyboard-response","536","1341092","0.0-1.0-731.0","0","0","72928","","null","","","null","81","","","","","","","","","","","","","","","",""
"","ISI","","html-keyboard-response","537","1341594","0.0-1.0-732.0","0","0","72928","","null","","","null","81","NaN","","","","","","","","","","","","","","",""
"","S2","","html-keyboard-response","538","1341850","0.0-1.0-733.0","0","0","72928","","null","","","null","81","","NaN","","","","","","","","","","","","","",""
"","response","","html-keyboard-response","539","1342126","0.0-1.0-734.0-0.0","0","0","72928","","270","","","75","81","","","2","81","training","adjacent","ED","5","4","R.jpg","Q.jpg","0","0","1","",""
"","feedback","","html-keyboard-response","540","1343132","0.0-1.0-735.0-0.0","0","0","72928","","null","","","null","81","","","","","","","","","","","","","","","",""
"","ITI","","html-keyboard-response","541","1344138","0.0-1.0-738.0","0","0","72928","","null","","","null","81","","","","","","","","","","","","","","","NaN",""
"","S1","","html-keyboard-response","542","1344394","0.0-1.0-740.0","0","0","72928","","null","","","null","82","","","","","","","","","","","","","","","",""
"","ISI","","html-keyboard-response","543","1344910","0.0-1.0-741.0","0","0","72928","","null","","","null","82","NaN","","","","","","","","","","","","","","",""
"","S2","","html-keyboard-response","544","1345169","0.0-1.0-742.0","0","0","72928","","null","","","null","82","","NaN","","","","","","","","","","","","","",""
"","response","","html-keyboard-response","545","1345845","0.0-1.0-743.0-0.0","0","0","72928","","670","","","75","82","","","2","82","training","adjacent","FG","6","7","P.jpg","L.jpg","0","1","0","",""
"","feedback","","html-keyboard-response","546","1346851","0.0-1.0-744.0-0.0","0","0","72928","","null","","","null","82","","","","","","","","","","","","","","","",""
"","time_out","","html-keyboard-response","547","1348860","0.0-1.0-746.0-0.0","0","0","72928","","null","","","null","82","","","","","","","","","","","","","","","",""
"","ITI","","html-keyboard-response","548","1349869","0.0-1.0-747.0","0","0","72928","","null","","","null","82","","","","","","","","","","","","","","","NaN",""
"","S1","","html-keyboard-response","549","1350126","0.0-1.0-749.0","0","0","72928","","null","","","null","83","","","","","","","","","","","","","","","",""
"","ISI","","html-keyboard-response","550","1350630","0.0-1.0-750.0","0","0","72928","","null","","","null","83","NaN","","","","","","","","","","","","","","",""
"","S2","","html-keyboard-response","551","1350886","0.0-1.0-751.0","0","0","72928","","null","","","null","83","","NaN","","","","","","","","","","","","","",""
"","response","","html-keyboard-response","552","1351196","0.0-1.0-752.0-0.0","0","0","72928","","303","","","68","83","","","2","83","training","adjacent","DE","4","5","Q.jpg","R.jpg","1","1","1","",""
"","feedback","","html-keyboard-response","553","1352200","0.0-1.0-753.0-0.0","0","0","72928","","null","","","null","83","","","","","","","","","","","","","","","",""
"","ITI","","html-keyboard-response","554","1353206","0.0-1.0-756.0","0","0","72928","","null","","","null","83","","","","","","","","","","","","","","","NaN",""
"","S1","","html-keyboard-response","555","1353463","0.0-1.0-758.0","0","0","72928","","null","","","null","84","","","","","","","","","","","","","","","",""
"","ISI","","html-keyboard-response","556","1353969","0.0-1.0-759.0","0","0","72928","","null","","","null","84","NaN","","","","","","","","","","","","","","",""
"","S2","","html-keyboard-response","557","1354236","0.0-1.0-760.0","0","0","72928","","null","","","null","84","","NaN","","","","","","","","","","","","","",""
"","response","","html-keyboard-response","558","1355646","0.0-1.0-761.0-0.0","0","0","72928","","1404","","","75","84","","","2","84","training","adjacent","AB","1","2","O.jpg","N.jpg","0","1","0","",""
"","feedback","","html-keyboard-response","559","1356653","0.0-1.0-762.0-0.0","0","0","72928","","null","","","null","84","","","","","","","","","","","","","","","",""
"","time_out","","html-keyboard-response","560","1358661","0.0-1.0-764.0-0.0","0","0","72928","","null","","","null","84","","","","","","","","","","","","","","","",""
"","ITI","","html-keyboard-response","561","1359670","0.0-1.0-765.0","0","0","72928","","null","","","null","84","","","","","","","","","","","","","","","NaN",""
"","S1","","html-keyboard-response","562","1360011","0.0-1.0-767.0","0","0","72928","","null","","","null","85","","","","","","","","","","","","","","","",""
"","ISI","","html-keyboard-response","563","1360516","0.0-1.0-768.0","0","0","72928","","null","","","null","85","NaN","","","","","","","","","","","","","","",""
"","S2","","html-keyboard-response","564","1360772","0.0-1.0-769.0","0","0","72928","","null","","","null","85","","NaN","","","","","","","","","","","","","",""
"","response","","html-keyboard-response","565","1361487","0.0-1.0-770.0-0.0","0","0","72928","","711","","","68","85","","","2","85","training","adjacent","FG","6","7","P.jpg","L.jpg","1","1","1","",""
"","feedback","","html-keyboard-response","566","1362490","0.0-1.0-771.0-0.0","0","0","72928","","null","","","null","85","","","","","","","","","","","","","","","",""
"","ITI","","html-keyboard-response","567","1363496","0.0-1.0-774.0","0","0","72928","","null","","","null","85","","","","","","","","","","","","","","","NaN",""
"","S1","","html-keyboard-response","568","1363752","0.0-1.0-776.0","0","0","72928","","null","","","null","86","","","","","","","","","","","","","","","",""
"","ISI","","html-keyboard-response","569","1364258","0.0-1.0-777.0","0","0","72928","","null","","","null","86","NaN","","","","","","","","","","","","","","",""
"","S2","","html-keyboard-response","570","1364517","0.0-1.0-778.0","0","0","72928","","null","","","null","86","","NaN","","","","","","","","","","","","","",""
"","response","","html-keyboard-response","571","1365254","0.0-1.0-779.0-0.0","0","0","72928","","730","","","68","86","","","2","86","training","adjacent","BA","2","1","N.jpg","O.jpg","1","0","0","",""
"","feedback","","html-keyboard-response","572","1366265","0.0-1.0-780.0-0.0","0","0","72928","","null","","","null","86","","","","","","","","","","","","","","","",""
"","time_out","","html-keyboard-response","573","1368274","0.0-1.0-782.0-0.0","0","0","72928","","null","","","null","86","","","","","","","","","","","","","","","",""
"","ITI","","html-keyboard-response","574","1369283","0.0-1.0-783.0","0","0","72928","","null","","","null","86","","","","","","","","","","","","","","","NaN",""
"","S1","","html-keyboard-response","575","1369593","0.0-1.0-785.0","0","0","72928","","null","","","null","87","","","","","","","","","","","","","","","",""
"","ISI","","html-keyboard-response","576","1370098","0.0-1.0-786.0","0","0","72928","","null","","","null","87","NaN","","","","","","","","","","","","","","",""
"","S2","","html-keyboard-response","577","1370354","0.0-1.0-787.0","0","0","72928","","null","","","null","87","","NaN","","","","","","","","","","","","","",""
"","response","","html-keyboard-response","578","1370792","0.0-1.0-788.0-0.0","0","0","72928","","432","","","75","87","","","2","87","training","adjacent","BC","2","3","N.jpg","M.jpg","0","1","0","",""
"","feedback","","html-keyboard-response","579","1371799","0.0-1.0-789.0-0.0","0","0","72928","","null","","","null","87","","","","","","","","","","","","","","","",""
