"success","ttype","start_time","trial_type","trial_index","time_elapsed","internal_node_id","warning","missed_checkup","PID","view_history","rt","responses","repeat_instructions","key_press","index","keypress_isi","keypress_S2","block","trial_num","phase","group_type","pair_type","S1_stim","S2_stim","S1_img","S2_img","S1_chosen","S1_higher","accuracy","keypress_iti","total_bonus_tally"
"true","full_screen","d04152023hr0237","fullscreen","0","8709","0.0-0.0","0","0","24308","","","","","","","","","","","","","","","","","","","","","",""
"","instructions","","instructions","1","36019","0.0-1.0-0.0-0.0","0","0","24308","[{""page_index"":0,""viewing_time"":3136},{""page_index"":1,""viewing_time"":14079},{""page_index"":2,""viewing_time"":8376},{""page_index"":3,""viewing_time"":1712}]","27304","","","","","","","","","","","","","","","","","","","",""
"","comprehension_check","","survey-multi-choice","2","54817","0.0-1.0-0.0-1.0","0","0","24308","","18790","{""Q0"":""False"",""Q1"":""D"",""Q2"":""Only when the screen 'MAKE A CHOICE' is shown"",""Q3"":""Green mark"",""Q4"":""either D or K""}","1","","","","","","","","","","","","","","","","","",""
"","missed_instruction_checkup","","html-keyboard-response","3","57000","0.0-1.0-0.0-2.0-0.0","0","1","24308","","2178","","","32","","","","","","","","","","","","","","","","",""
"","instructions","","instructions","4","65898","0.0-1.0-0.1-0.1","0","0","24308","[{""page_index"":0,""viewing_time"":3360},{""page_index"":1,""viewing_time"":3382},{""page_index"":2,""viewing_time"":1265},{""page_index"":3,""viewing_time"":888}]","8895","","","","","","","","","","","","","","","","","","","",""
"","comprehension_check","","survey-multi-choice","5","81460","0.0-1.0-0.1-1.1","0","0","24308","","15555","{""Q0"":""True"",""Q1"":""D"",""Q2"":""Only when the screen 'MAKE A CHOICE' is shown"",""Q3"":""Green mark"",""Q4"":""either D or K""}","1","","","","","","","","","","","","","","","","","",""
"","missed_instruction_checkup","","html-keyboard-response","6","83697","0.0-1.0-0.1-2.1-0.1","0","1","24308","","2232","","","32","","","","","","","","","","","","","","","","",""
"","instructions","","instructions","7","95953","0.0-1.0-0.2-0.2","0","0","24308","[{""page_index"":0,""viewing_time"":1917},{""page_index"":1,""viewing_time"":4897},{""page_index"":2,""viewing_time"":1785},{""page_index"":1,""viewing_time"":2239},{""page_index"":2,""viewing_time"":826},{""page_index"":3,""viewing_time"":589}]","12253","","","","","","","","","","","","","","","","","","","",""
"","comprehension_check","","survey-multi-choice","8","106852","0.0-1.0-0.2-1.2","0","0","24308","","10892","{""Q0"":""True"",""Q1"":""D"",""Q2"":""Once the second image appears and while the screen 'MAKE A CHOICE' is shown"",""Q3"":""Green mark"",""Q4"":""either D or K""}","0","","","","","","","","","","","","","","","","","",""
"","start_exp","","html-keyboard-response","9","111922","0.0-1.0-1.0","0","0","24308","","5065","","","32","","","","","","","","","","","","","","","","",""
"","S1","","html-keyboard-response","10","112182","0.0-1.0-2.0","0","0","24308","","null","","","null","0","","","","","","","","","","","","","","","",""
"","ISI","","html-keyboard-response","11","113206","0.0-1.0-3.0","0","0","24308","","null","","","null","0","NaN","","","","","","","","","","","","","","",""
"","S2","","html-keyboard-response","12","113469","0.0-1.0-4.0","0","0","24308","","null","","","null","0","","NaN","","","","","","","","","","","","","",""
"","response","","html-keyboard-response","13","115235","0.0-1.0-5.0-0.0","0","0","24308","","null","","","null","0","","","1","0","training","adjacent","FG","6","7","Q.jpg","N.jpg","NaN","1","0","",""
"","too_slow_prompt","","html-keyboard-response","14","116249","0.0-1.0-7.0-0.0","1","0","24308","","null","","","null","","","","","","","","","","","","","","","","",""
"","time_out","","html-keyboard-response","15","118263","0.0-1.0-8.0-0.0","0","0","24308","","null","","","null","0","","","","","","","","","","","","","","","",""
"","ITI","","html-keyboard-response","16","119268","0.0-1.0-9.0","0","0","24308","","null","","","null","0","","","","","","","","","","","","","","","NaN",""
"","S1","","html-keyboard-response","17","119536","0.0-1.0-11.0","0","0","24308","","null","","","null","1","","","","","","","","","","","","","","","",""
"","ISI","","html-keyboard-response","18","120562","0.0-1.0-12.0","0","0","24308","","null","","","null","1","NaN","","","","","","","","","","","","","","",""
"","S2","","html-keyboard-response","19","120820","0.0-1.0-13.0","0","0","24308","","null","","","null","1","","NaN","","","","","","","","","","","","","",""
"","response","","html-keyboard-response","20","121108","0.0-1.0-14.0-0.0","0","0","24308","","283","","","68","1","","","1","1","training","adjacent","ED","5","4","R.jpg","P.jpg","1","0","0","",""
"","feedback","","html-keyboard-response","21","122123","0.0-1.0-15.0-0.0","0","0","24308","","null","","","null","1","","","","","","","","","","","","","","","",""
"","time_out","","html-keyboard-response","22","124140","0.0-1.0-17.0-0.0","0","0","24308","","null","","","null","1","","","","","","","","","","","","","","","",""
"","ITI","","html-keyboard-response","23","125144","0.0-1.0-18.0","0","0","24308","","null","","","null","1","","","","","","","","","","","","","","","NaN",""
"","S1","","html-keyboard-response","24","125411","0.0-1.0-20.0","0","0","24308","","null","","","null","2","","","","","","","","","","","","","","","",""
"","ISI","","html-keyboard-response","25","126426","0.0-1.0-21.0","0","0","24308","","null","","","null","2","NaN","","","","","","","","","","","","","","",""
"","S2","","html-keyboard-response","26","126679","0.0-1.0-22.0","0","0","24308","","null","","","null","2","","NaN","","","","","","","","","","","","","",""
"","response","","html-keyboard-response","27","126911","0.0-1.0-23.0-0.0","0","0","24308","","226","","","68","2","","","1","2","training","adjacent","AB","1","2","L.jpg","M.jpg","1","1","1","",""
"","feedback","","html-keyboard-response","28","127928","0.0-1.0-24.0-0.0","0","0","24308","","null","","","null","2","","","","","","","","","","","","","","","",""
"","ITI","","html-keyboard-response","29","128942","0.0-1.0-27.0","0","0","24308","","null","","","null","2","","","","","","","","","","","","","","","NaN",""
"","S1","","html-keyboard-response","30","129199","0.0-1.0-29.0","0","0","24308","","null","","","null","3","","","","","","","","","","","","","","","",""
"","ISI","","html-keyboard-response","31","130206","0.0-1.0-30.0","0","0","24308","","null","","","null","3","NaN","","","","","","","","","","","","","","",""
"","S2","","html-keyboard-response","32","130470","0.0-1.0-31.0","0","0","24308","","null","","","null","3","","NaN","","","","","","","","","","","","","",""
"","response","","html-keyboard-response","33","130708","0.0-1.0-32.0-0.0","0","0","24308","","227","","","68","3","","","1","3","training","adjacent","AB","1","2","L.jpg","M.jpg","1","1","1","",""
"","feedback","","html-keyboard-response","34","131719","0.0-1.0-33.0-0.0","0","0","24308","","null","","","null","3","","","","","","","","","","","","","","","",""
"","ITI","","html-keyboard-response","35","132732","0.0-1.0-36.0","0","0","24308","","null","","","null","3","","","","","","","","","","","","","","","NaN",""
"","S1","","html-keyboard-response","36","132999","0.0-1.0-38.0","0","0","24308","","null","","","null","4","","","","","","","","","","","","","","","",""
"","ISI","","html-keyboard-response","37","134013","0.0-1.0-39.0","0","0","24308","","null","","","null","4","NaN","","","","","","","","","","","","","","",""
"","S2","","html-keyboard-response","38","134280","0.0-1.0-40.0","0","0","24308","","null","","","null","4","","NaN","","","","","","","","","","","","","",""
"","response","","html-keyboard-response","39","134547","0.0-1.0-41.0-0.0","0","0","24308","","258","","","68","4","","","1","4","training","adjacent","CB","3","2","O.jpg","M.jpg","1","0","0","",""
"","feedback","","html-keyboard-response","40","135559","0.0-1.0-42.0-0.0","0","0","24308","","null","","","null","4","","","","","","","","","","","","","","","",""
"","time_out","","html-keyboard-response","41","137576","0.0-1.0-44.0-0.0","0","0","24308","","null","","","null","4","","","","","","","","","","","","","","","",""
"","ITI","","html-keyboard-response","42","138588","0.0-1.0-45.0","0","0","24308","","null","","","null","4","","","","","","","","","","","","","","","NaN",""
"","S1","","html-keyboard-response","43","138844","0.0-1.0-47.0","0","0","24308","","null","","","null","5","","","","","","","","","","","","","","","",""
"","ISI","","html-keyboard-response","44","139857","0.0-1.0-48.0","0","0","24308","","null","","","null","5","NaN","","","","","","","","","","","","","","",""
"","S2","","html-keyboard-response","45","140129","0.0-1.0-49.0","0","0","24308","","null","","","null","5","","NaN","","","","","","","","","","","","","",""
"","response","","html-keyboard-response","46","140395","0.0-1.0-50.0-0.0","0","0","24308","","259","","","75","5","","","1","5","training","adjacent","DE","4","5","P.jpg","R.jpg","0","1","0","",""
"","feedback","","html-keyboard-response","47","141407","0.0-1.0-51.0-0.0","0","0","24308","","null","","","null","5","","","","","","","","","","","","","","","",""
"","time_out","","html-keyboard-response","48","143424","0.0-1.0-53.0-0.0","0","0","24308","","null","","","null","5","","","","","","","","","","","","","","","",""
"","ITI","","html-keyboard-response","49","144443","0.0-1.0-54.0","0","0","24308","","null","","","null","5","","","","","","","","","","","","","","","NaN",""
"","S1","","html-keyboard-response","50","144704","0.0-1.0-56.0","0","0","24308","","null","","","null","6","","","","","","","","","","","","","","","",""
"","ISI","","html-keyboard-response","51","145725","0.0-1.0-57.0","0","0","24308","","null","","","null","6","NaN","","","","","","","","","","","","","","",""
"","S2","","html-keyboard-response","52","145989","0.0-1.0-58.0","0","0","24308","","null","","","null","6","","NaN","","","","","","","","","","","","","",""
"","response","","html-keyboard-response","53","146125","0.0-1.0-59.0-0.0","0","0","24308","","133","","","68","6","","","1","6","training","adjacent","AB","1","2","L.jpg","M.jpg","1","1","1","",""
"","feedback","","html-keyboard-response","54","147135","0.0-1.0-60.0-0.0","0","0","24308","","null","","","null","6","","","","","","","","","","","","","","","",""
"","ITI","","html-keyboard-response","55","148152","0.0-1.0-63.0","0","0","24308","","null","","","null","6","","","","","","","","","","","","","","","NaN",""
"","S1","","html-keyboard-response","56","148417","0.0-1.0-65.0","0","0","24308","","null","","","null","7","","","","","","","","","","","","","","","",""
"","ISI","","html-keyboard-response","57","149433","0.0-1.0-66.0","0","0","24308","","null","","","null","7","NaN","","","","","","","","","","","","","","",""
"","S2","","html-keyboard-response","58","149699","0.0-1.0-67.0","0","0","24308","","null","","","null","7","","NaN","","","","","","","","","","","","","",""
"","response","","html-keyboard-response","59","150101","0.0-1.0-68.0-0.0","0","0","24308","","399","","","75","7","","","1","7","training","adjacent","ED","5","4","R.jpg","P.jpg","0","0","1","",""
"","feedback","","html-keyboard-response","60","151115","0.0-1.0-69.0-0.0","0","0","24308","","null","","","null","7","","","","","","","","","","","","","","","",""
"","ITI","","html-keyboard-response","61","152132","0.0-1.0-72.0","0","0","24308","","null","","","null","7","","","","","","","","","","","","","","","NaN",""
"","S1","","html-keyboard-response","62","152401","0.0-1.0-74.0","0","0","24308","","null","","","null","8","","","","","","","","","","","","","","","",""
"","ISI","","html-keyboard-response","63","153414","0.0-1.0-75.0","0","0","24308","","null","","","null","8","NaN","","","","","","","","","","","","","","",""
"","S2","","html-keyboard-response","64","153684","0.0-1.0-76.0","0","0","24308","","null","","","null","8","","NaN","","","","","","","","","","","","","",""
"","response","","html-keyboard-response","65","154184","0.0-1.0-77.0-0.0","0","0","24308","","496","","","75","8","","","1","8","training","adjacent","CB","3","2","O.jpg","M.jpg","0","0","1","",""
"","feedback","","html-keyboard-response","66","155196","0.0-1.0-78.0-0.0","0","0","24308","","null","","","null","8","","","","","","","","","","","","","","","",""
"","ITI","","html-keyboard-response","67","156213","0.0-1.0-81.0","0","0","24308","","null","","","null","8","","","","","","","","","","","","","","","NaN",""
"","S1","","html-keyboard-response","68","156477","0.0-1.0-83.0","0","0","24308","","null","","","null","9","","","","","","","","","","","","","","","",""
"","ISI","","html-keyboard-response","69","157495","0.0-1.0-84.0","0","0","24308","","null","","","null","9","NaN","","","","","","","","","","","","","","",""
"","S2","","html-keyboard-response","70","157764","0.0-1.0-85.0","0","0","24308","","null","","","null","9","","NaN","","","","","","","","","","","","","",""
"","response","","html-keyboard-response","71","158282","0.0-1.0-86.0-0.0","0","0","24308","","510","","","68","9","","","1","9","training","adjacent","CD","3","4","O.jpg","P.jpg","1","1","1","",""
"","feedback","","html-keyboard-response","72","159292","0.0-1.0-87.0-0.0","0","0","24308","","null","","","null","9","","","","","","","","","","","","","","","",""
"","ITI","","html-keyboard-response","73","160307","0.0-1.0-90.0","0","0","24308","","null","","","null","9","","","","","","","","","","","","","","","NaN",""
"","S1","","html-keyboard-response","74","160572","0.0-1.0-92.0","0","0","24308","","null","","","null","10","","","","","","","","","","","","","","","",""
"","ISI","","html-keyboard-response","75","161591","0.0-1.0-93.0","0","0","24308","","null","","","null","10","NaN","","","","","","","","","","","","","","",""
"","S2","","html-keyboard-response","76","161855","0.0-1.0-94.0","0","0","24308","","null","","","null","10","","NaN","","","","","","","","","","","","","",""
"","response","","html-keyboard-response","77","162137","0.0-1.0-95.0-0.0","0","0","24308","","275","","","75","10","","","1","10","training","adjacent","EF","5","6","R.jpg","Q.jpg","0","1","0","",""
"","feedback","","html-keyboard-response","78","163156","0.0-1.0-96.0-0.0","0","0","24308","","null","","","null","10","","","","","","","","","","","","","","","",""
"","time_out","","html-keyboard-response","79","165169","0.0-1.0-98.0-0.0","0","0","24308","","null","","","null","10","","","","","","","","","","","","","","","",""
"","ITI","","html-keyboard-response","80","166187","0.0-1.0-99.0","0","0","24308","","null","","","null","10","","","","","","","","","","","","","","","NaN",""
"","S1","","html-keyboard-response","81","166453","0.0-1.0-101.0","0","0","24308","","null","","","null","11","","","","","","","","","","","","","","","",""
"","ISI","","html-keyboard-response","82","167470","0.0-1.0-102.0","0","0","24308","","null","","","null","11","NaN","","","","","","","","","","","","","","",""
"","S2","","html-keyboard-response","83","167736","0.0-1.0-103.0","0","0","24308","","null","","","null","11","","NaN","","","","","","","","","","","","","",""
"","response","","html-keyboard-response","84","168102","0.0-1.0-104.0-0.0","0","0","24308","","362","","","68","11","","","1","11","training","adjacent","GF","7","6","N.jpg","Q.jpg","1","0","0","",""
"","feedback","","html-keyboard-response","85","169118","0.0-1.0-105.0-0.0","0","0","24308","","null","","","null","11","","","","","","","","","","","","","","","",""
"","time_out","","html-keyboard-response","86","171131","0.0-1.0-107.0-0.0","0","0","24308","","null","","","null","11","","","","","","","","","","","","","","","",""
"","ITI","","html-keyboard-response","87","172144","0.0-1.0-108.0","0","0","24308","","null","","","null","11","","","","","","","","","","","","","","","NaN",""
"","S1","","html-keyboard-response","88","172415","0.0-1.0-110.0","0","0","24308","","null","","","null","12","","","","","","","","","","","","","","","",""
"","ISI","","html-keyboard-response","89","173431","0.0-1.0-111.0","0","0","24308","","null","","","null","12","NaN","","","","","","","","","","","","","","",""
"","S2","","html-keyboard-response","90","173699","0.0-1.0-112.0","0","0","24308","","null","","","null","12","","NaN","","","","","","","","","","","","","",""
"","response","","html-keyboard-response","91","173934","0.0-1.0-113.0-0.0","0","0","24308","","227","","","68","12","","","1","12","training","adjacent","AB","1","2","L.jpg","M.jpg","1","1","1","",""
"","feedback","","html-keyboard-response","92","174947","0.0-1.0-114.0-0.0","0","0","24308","","null","","","null","12","","","","","","","","","","","","","","","",""
"","ITI","","html-keyboard-response","93","175962","0.0-1.0-117.0","0","0","24308","","null","","","null","12","","","","","","","","","","","","","","","NaN",""
"","S1","","html-keyboard-response","94","176229","0.0-1.0-119.0","0","0","24308","","null","","","null","13","","","","","","","","","","","","","","","",""
"","ISI","","html-keyboard-response","95","177246","0.0-1.0-120.0","0","0","24308","","null","","","null","13","NaN","","","","","","","","","","","","","","",""
"","S2","","html-keyboard-response","96","177512","0.0-1.0-121.0","0","0","24308","","null","","","null","13","","NaN","","","","","","","","","","","","","",""
"","response","","html-keyboard-response","97","177647","0.0-1.0-122.0-0.0","0","0","24308","","130","","","75","13","","","1","13","training","adjacent","FE","6","5","Q.jpg","R.jpg","0","0","1","",""
"","feedback","","html-keyboard-response","98","178657","0.0-1.0-123.0-0.0","0","0","24308","","null","","","null","13","","","","","","","","","","","","","","","",""
"","ITI","","html-keyboard-response","99","179673","0.0-1.0-126.0","0","0","24308","","null","","","null","13","","","","","","","","","","","","","","","NaN",""
"","S1","","html-keyboard-response","100","179943","0.0-1.0-128.0","0","0","24308","","null","","","null","14","","","","","","","","","","","","","","","",""
"","ISI","","html-keyboard-response","101","180958","0.0-1.0-129.0","0","0","24308","","null","","","null","14","NaN","","","","","","","","","","","","","","",""
"","S2","","html-keyboard-response","102","181220","0.0-1.0-130.0","0","0","24308","","null","","","null","14","","NaN","","","","","","","","","","","","","",""
"","response","","html-keyboard-response","103","181441","0.0-1.0-131.0-0.0","0","0","24308","","215","","","75","14","","","1","14","training","adjacent","BC","2","3","M.jpg","O.jpg","0","1","0","",""
"","feedback","","html-keyboard-response","104","182457","0.0-1.0-132.0-0.0","0","0","24308","","null","","","null","14","","","","","","","","","","","","","","","",""
"","time_out","","html-keyboard-response","105","184473","0.0-1.0-134.0-0.0","0","0","24308","","null","","","null","14","","","","","","","","","","","","","","","",""
"","ITI","","html-keyboard-response","106","185485","0.0-1.0-135.0","0","0","24308","","null","","","null","14","","","","","","","","","","","","","","","NaN",""
"","S1","","html-keyboard-response","107","185751","0.0-1.0-137.0","0","0","24308","","null","","","null","15","","","","","","","","","","","","","","","",""
"","ISI","","html-keyboard-response","108","186765","0.0-1.0-138.0","0","0","24308","","null","","","null","15","NaN","","","","","","","","","","","","","","",""
"","S2","","html-keyboard-response","109","187032","0.0-1.0-139.0","0","0","24308","","null","","","null","15","","NaN","","","","","","","","","","","","","",""
"","response","","html-keyboard-response","110","187363","0.0-1.0-140.0-0.0","0","0","24308","","325","","","75","15","","","1","15","training","adjacent","FG","6","7","Q.jpg","N.jpg","0","1","0","",""
"","feedback","","html-keyboard-response","111","188383","0.0-1.0-141.0-0.0","0","0","24308","","null","","","null","15","","","","","","","","","","","","","","","",""
"","time_out","","html-keyboard-response","112","190395","0.0-1.0-143.0-0.0","0","0","24308","","null","","","null","15","","","","","","","","","","","","","","","",""
"","ITI","","html-keyboard-response","113","191415","0.0-1.0-144.0","0","0","24308","","null","","","null","15","","","","","","","","","","","","","","","NaN",""
"","S1","","html-keyboard-response","114","191682","0.0-1.0-146.0","0","0","24308","","null","","","null","16","","","","","","","","","","","","","","","",""
"","ISI","","html-keyboard-response","115","192693","0.0-1.0-147.0","0","0","24308","","null","","","null","16","NaN","","","","","","","","","","","","","","",""
"","S2","","html-keyboard-response","116","192966","0.0-1.0-148.0","0","0","24308","","null","","","null","16","","NaN","","","","","","","","","","","","","",""
"","response","","html-keyboard-response","117","193099","0.0-1.0-149.0-0.0","0","0","24308","","130","","","68","16","","","1","16","training","adjacent","CD","3","4","O.jpg","P.jpg","1","1","1","",""
"","feedback","","html-keyboard-response","118","194112","0.0-1.0-150.0-0.0","0","0","24308","","null","","","null","16","","","","","","","","","","","","","","","",""
"","ITI","","html-keyboard-response","119","195130","0.0-1.0-153.0","0","0","24308","","null","","","null","16","","","","","","","","","","","","","","","NaN",""
"","S1","","html-keyboard-response","120","195395","0.0-1.0-155.0","0","0","24308","","null","","","null","17","","","","","","","","","","","","","","","",""
"","ISI","","html-keyboard-response","121","196408","0.0-1.0-156.0","0","0","24308","","null","","","null","17","NaN","","","","","","","","","","","","","","",""
"","S2","","html-keyboard-response","122","196675","0.0-1.0-157.0","0","0","24308","","null","","","null","17","","NaN","","","","","","","","","","","","","",""
"","response","","html-keyboard-response","123","196759","0.0-1.0-158.0-0.0","0","0","24308","","79","","","68","17","","","1","17","training","adjacent","BC","2","3","M.jpg","O.jpg","1","1","1","",""
"","feedback","","html-keyboard-response","124","197771","0.0-1.0-159.0-0.0","0","0","24308","","null","","","null","17","","","","","","","","","","","","","","","",""
"","ITI","","html-keyboard-response","125","198776","0.0-1.0-162.0","0","0","24308","","null","","","null","17","","","","","","","","","","","","","","","NaN",""
"","S1","","html-keyboard-response","126","199039","0.0-1.0-164.0","0","0","24308","","null","","","null","18","","","","","","","","","","","","","","","",""
"","ISI","","html-keyboard-response","127","200055","0.0-1.0-165.0","0","0","24308","","null","","","null","18","NaN","","","","","","","","","","","","","","",""
"","S2","","html-keyboard-response","128","200323","0.0-1.0-166.0","0","0","24308","","null","","","null","18","","NaN","","","","","","","","","","","","","",""
"","response","","html-keyboard-response","129","200392","0.0-1.0-167.0-0.0","0","0","24308","","65","","","68","18","","","1","18","training","adjacent","EF","5","6","R.jpg","Q.jpg","1","1","1","",""
"","feedback","","html-keyboard-response","130","201403","0.0-1.0-168.0-0.0","0","0","24308","","null","","","null","18","","","","","","","","","","","","","","","",""
"","ITI","","html-keyboard-response","131","202423","0.0-1.0-171.0","0","0","24308","","null","","","null","18","","","","","","","","","","","","","","","NaN",""
"","S1","","html-keyboard-response","132","202691","0.0-1.0-173.0","0","0","24308","","null","","","null","19","","","","","","","","","","","","","","","",""
"","ISI","","html-keyboard-response","133","203705","0.0-1.0-174.0","0","0","24308","","null","","","null","19","NaN","","","","","","","","","","","","","","",""
"","S2","","html-keyboard-response","134","203971","0.0-1.0-175.0","0","0","24308","","null","","","null","19","","NaN","","","","","","","","","","","","","",""
"","response","","html-keyboard-response","135","204037","0.0-1.0-176.0-0.0","0","0","24308","","63","","","68","19","","","1","19","training","adjacent","DE","4","5","P.jpg","R.jpg","1","1","1","",""
"","feedback","","html-keyboard-response","136","205051","0.0-1.0-177.0-0.0","0","0","24308","","null","","","null","19","","","","","","","","","","","","","","","",""
"","ITI","","html-keyboard-response","137","206069","0.0-1.0-180.0","0","0","24308","","null","","","null","19","","","","","","","","","","","","","","","NaN",""
"","S1","","html-keyboard-response","138","206336","0.0-1.0-182.0","0","0","24308","","null","","","null","20","","","","","","","","","","","","","","","",""
"","ISI","","html-keyboard-response","139","207352","0.0-1.0-183.0","0","0","24308","","null","","","null","20","NaN","","","","","","","","","","","","","","",""
"","S2","","html-keyboard-response","140","207618","0.0-1.0-184.0","0","0","24308","","null","","","null","20","","NaN","","","","","","","","","","","","","",""
"","response","","html-keyboard-response","141","207688","0.0-1.0-185.0-0.0","0","0","24308","","63","","","68","20","","","1","20","training","adjacent","BA","2","1","M.jpg","L.jpg","1","0","0","",""
"","feedback","","html-keyboard-response","142","208698","0.0-1.0-186.0-0.0","0","0","24308","","null","","","null","20","","","","","","","","","","","","","","","",""
"","time_out","","html-keyboard-response","143","210713","0.0-1.0-188.0-0.0","0","0","24308","","null","","","null","20","","","","","","","","","","","","","","","",""
"","ITI","","html-keyboard-response","144","211730","0.0-1.0-189.0","0","0","24308","","null","","","null","20","","","","","","","","","","","","","","","NaN",""
"","S1","","html-keyboard-response","145","211995","0.0-1.0-191.0","0","0","24308","","null","","","null","21","","","","","","","","","","","","","","","",""
"","ISI","","html-keyboard-response","146","213013","0.0-1.0-192.0","0","0","24308","","null","","","null","21","NaN","","","","","","","","","","","","","","",""
"","S2","","html-keyboard-response","147","213279","0.0-1.0-193.0","0","0","24308","","null","","","null","21","","NaN","","","","","","","","","","","","","",""
"","response","","html-keyboard-response","148","213550","0.0-1.0-194.0-0.0","0","0","24308","","267","","","68","21","","","1","21","training","adjacent","DC","4","3","P.jpg","O.jpg","1","0","0","",""
"","feedback","","html-keyboard-response","149","214562","0.0-1.0-195.0-0.0","0","0","24308","","null","","","null","21","","","","","","","","","","","","","","","",""
"","time_out","","html-keyboard-response","150","216578","0.0-1.0-197.0-0.0","0","0","24308","","null","","","null","21","","","","","","","","","","","","","","","",""
"","ITI","","html-keyboard-response","151","217595","0.0-1.0-198.0","0","0","24308","","null","","","null","21","","","","","","","","","","","","","","","NaN",""
"","S1","","html-keyboard-response","152","217861","0.0-1.0-200.0","0","0","24308","","null","","","null","22","","","","","","","","","","","","","","","",""
"","ISI","","html-keyboard-response","153","218871","0.0-1.0-201.0","0","0","24308","","null","","","null","22","NaN","","","","","","","","","","","","","","",""
"","S2","","html-keyboard-response","154","219137","0.0-1.0-202.0","0","0","24308","","null","","","null","22","","NaN","","","","","","","","","","","","","",""
"","response","","html-keyboard-response","155","219619","0.0-1.0-203.0-0.0","0","0","24308","","475","","","68","22","","","1","22","training","adjacent","CB","3","2","O.jpg","M.jpg","1","0","0","",""
"","feedback","","html-keyboard-response","156","220642","0.0-1.0-204.0-0.0","0","0","24308","","null","","","null","22","","","","","","","","","","","","","","","",""
"","time_out","","html-keyboard-response","157","222655","0.0-1.0-206.0-0.0","0","0","24308","","null","","","null","22","","","","","","","","","","","","","","","",""
"","ITI","","html-keyboard-response","158","223668","0.0-1.0-207.0","0","0","24308","","null","","","null","22","","","","","","","","","","","","","","","NaN",""
"","S1","","html-keyboard-response","159","223936","0.0-1.0-209.0","0","0","24308","","null","","","null","23","","","","","","","","","","","","","","","",""
"","ISI","","html-keyboard-response","160","224955","0.0-1.0-210.0","0","0","24308","","null","","","null","23","NaN","","","","","","","","","","","","","","",""
"","S2","","html-keyboard-response","161","225215","0.0-1.0-211.0","0","0","24308","","null","","","null","23","","NaN","","","","","","","","","","","","","",""
"","response","","html-keyboard-response","162","225637","0.0-1.0-212.0-0.0","0","0","24308","","419","","","75","23","","","1","23","training","adjacent","DC","4","3","P.jpg","O.jpg","0","0","1","",""
"","feedback","","html-keyboard-response","163","226651","0.0-1.0-213.0-0.0","0","0","24308","","null","","","null","23","","","","","","","","","","","","","","","",""
"","ITI","","html-keyboard-response","164","227663","0.0-1.0-216.0","0","0","24308","","null","","","null","23","","","","","","","","","","","","","","","NaN",""
"","S1","","html-keyboard-response","165","227936","0.0-1.0-218.0","0","0","24308","","null","","","null","24","","","","","","","","","","","","","","","",""
"","ISI","","html-keyboard-response","166","228946","0.0-1.0-219.0","0","0","24308","","null","","","null","24","NaN","","","","","","","","","","","","","","",""
"","S2","","html-keyboard-response","167","229213","0.0-1.0-220.0","0","0","24308","","null","","","null","24","","NaN","","","","","","","","","","","","","",""
"","response","","html-keyboard-response","168","229469","0.0-1.0-221.0-0.0","0","0","24308","","252","","","75","24","","","1","24","training","adjacent","ED","5","4","R.jpg","P.jpg","0","0","1","",""
"","feedback","","html-keyboard-response","169","230479","0.0-1.0-222.0-0.0","0","0","24308","","null","","","null","24","","","","","","","","","","","","","","","",""
"","ITI","","html-keyboard-response","170","231497","0.0-1.0-225.0","0","0","24308","","null","","","null","24","","","","","","","","","","","","","","","NaN",""
"","S1","","html-keyboard-response","171","231760","0.0-1.0-227.0","0","0","24308","","null","","","null","25","","","","","","","","","","","","","","","",""
"","ISI","","html-keyboard-response","172","232779","0.0-1.0-228.0","0","0","24308","","null","","","null","25","NaN","","","","","","","","","","","","","","",""
"","S2","","html-keyboard-response","173","233043","0.0-1.0-229.0","0","0","24308","","null","","","null","25","","NaN","","","","","","","","","","","","","",""
"","response","","html-keyboard-response","174","233446","0.0-1.0-230.0-0.0","0","0","24308","","397","","","75","25","","","1","25","training","adjacent","DC","4","3","P.jpg","O.jpg","0","0","1","",""
"","feedback","","html-keyboard-response","175","234457","0.0-1.0-231.0-0.0","0","0","24308","","null","","","null","25","","","","","","","","","","","","","","","",""
"","ITI","","html-keyboard-response","176","235477","0.0-1.0-234.0","0","0","24308","","null","","","null","25","","","","","","","","","","","","","","","NaN",""
"","S1","","html-keyboard-response","177","235746","0.0-1.0-236.0","0","0","24308","","null","","","null","26","","","","","","","","","","","","","","","",""
"","ISI","","html-keyboard-response","178","236758","0.0-1.0-237.0","0","0","24308","","null","","","null","26","NaN","","","","","","","","","","","","","","",""
"","S2","","html-keyboard-response","179","237026","0.0-1.0-238.0","0","0","24308","","null","","","null","26","","NaN","","","","","","","","","","","","","",""
"","response","","html-keyboard-response","180","237512","0.0-1.0-239.0-0.0","0","0","24308","","482","","","75","26","","","1","26","training","adjacent","DE","4","5","P.jpg","R.jpg","0","1","0","",""
"","feedback","","html-keyboard-response","181","238525","0.0-1.0-240.0-0.0","0","0","24308","","null","","","null","26","","","","","","","","","","","","","","","",""
"","time_out","","html-keyboard-response","182","240539","0.0-1.0-242.0-0.0","0","0","24308","","null","","","null","26","","","","","","","","","","","","","","","",""
"","ITI","","html-keyboard-response","183","241555","0.0-1.0-243.0","0","0","24308","","null","","","null","26","","","","","","","","","","","","","","","NaN",""
"","S1","","html-keyboard-response","184","241823","0.0-1.0-245.0","0","0","24308","","null","","","null","27","","","","","","","","","","","","","","","",""
"","ISI","","html-keyboard-response","185","242836","0.0-1.0-246.0","0","0","24308","","null","","","null","27","NaN","","","","","","","","","","","","","","",""
"","S2","","html-keyboard-response","186","243104","0.0-1.0-247.0","0","0","24308","","null","","","null","27","","NaN","","","","","","","","","","","","","",""
"","response","","html-keyboard-response","187","243340","0.0-1.0-248.0-0.0","0","0","24308","","233","","","68","27","","","1","27","training","adjacent","FE","6","5","Q.jpg","R.jpg","1","0","0","",""
"","feedback","","html-keyboard-response","188","244352","0.0-1.0-249.0-0.0","0","0","24308","","null","","","null","27","","","","","","","","","","","","","","","",""
"","time_out","","html-keyboard-response","189","246369","0.0-1.0-251.0-0.0","0","0","24308","","null","","","null","27","","","","","","","","","","","","","","","",""
"","ITI","","html-keyboard-response","190","247383","0.0-1.0-252.0","0","0","24308","","null","","","null","27","","","","","","","","","","","","","","","NaN",""
"","S1","","html-keyboard-response","191","247649","0.0-1.0-254.0","0","0","24308","","null","","","null","28","","","","","","","","","","","","","","","",""
"","ISI","","html-keyboard-response","192","248661","0.0-1.0-255.0","0","0","24308","","null","","","null","28","NaN","","","","","","","","","","","","","","",""
"","S2","","html-keyboard-response","193","248933","0.0-1.0-256.0","0","0","24308","","null","","","null","28","","NaN","","","","","","","","","","","","","",""
"","response","","html-keyboard-response","194","249229","0.0-1.0-257.0-0.0","0","0","24308","","287","","","68","28","","","1","28","training","adjacent","EF","5","6","R.jpg","Q.jpg","1","1","1","",""
"","feedback","","html-keyboard-response","195","250250","0.0-1.0-258.0-0.0","0","0","24308","","null","","","null","28","","","","","","","","","","","","","","","",""
"","ITI","","html-keyboard-response","196","251260","0.0-1.0-261.0","0","0","24308","","null","","","null","28","","","","","","","","","","","","","","","NaN",""
"","S1","","html-keyboard-response","197","251529","0.0-1.0-263.0","0","0","24308","","null","","","null","29","","","","","","","","","","","","","","","",""
"","ISI","","html-keyboard-response","198","252544","0.0-1.0-264.0","0","0","24308","","null","","","null","29","NaN","","","","","","","","","","","","","","",""
"","S2","","html-keyboard-response","199","252811","0.0-1.0-265.0","0","0","24308","","null","","","null","29","","NaN","","","","","","","","","","","","","",""
"","response","","html-keyboard-response","200","253210","0.0-1.0-266.0-0.0","0","0","24308","","389","","","68","29","","","1","29","training","adjacent","DE","4","5","P.jpg","R.jpg","1","1","1","",""
"","feedback","","html-keyboard-response","201","254225","0.0-1.0-267.0-0.0","0","0","24308","","null","","","null","29","","","","","","","","","","","","","","","",""
"","ITI","","html-keyboard-response","202","255240","0.0-1.0-270.0","0","0","24308","","null","","","null","29","","","","","","","","","","","","","","","NaN",""
"","S1","","html-keyboard-response","203","255509","0.0-1.0-272.0","0","0","24308","","null","","","null","30","","","","","","","","","","","","","","","",""
"","ISI","","html-keyboard-response","204","256525","0.0-1.0-273.0","0","0","24308","","null","","","null","30","NaN","","","","","","","","","","","","","","",""
"","S2","","html-keyboard-response","205","256788","0.0-1.0-274.0","0","0","24308","","null","","","null","30","","NaN","","","","","","","","","","","","","",""
"","response","","html-keyboard-response","206","257114","0.0-1.0-275.0-0.0","0","0","24308","","321","","","68","30","","","1","30","training","adjacent","CD","3","4","O.jpg","P.jpg","1","1","1","",""
"","feedback","","html-keyboard-response","207","258122","0.0-1.0-276.0-0.0","0","0","24308","","null","","","null","30","","","","","","","","","","","","","","","",""
"","ITI","","html-keyboard-response","208","259139","0.0-1.0-279.0","0","0","24308","","null","","","null","30","","","","","","","","","","","","","","","NaN",""
"","S1","","html-keyboard-response","209","259404","0.0-1.0-281.0","0","0","24308","","null","","","null","31","","","","","","","","","","","","","","","",""
"","ISI","","html-keyboard-response","210","260423","0.0-1.0-282.0","0","0","24308","","null","","","null","31","NaN","","","","","","","","","","","","","","",""
"","S2","","html-keyboard-response","211","260690","0.0-1.0-283.0","0","0","24308","","null","","","null","31","","NaN","","","","","","","","","","","","","",""
"","response","","html-keyboard-response","212","260993","0.0-1.0-284.0-0.0","0","0","24308","","297","","","75","31","","","1","31","training","adjacent","ED","5","4","R.jpg","P.jpg","0","0","1","",""
"","feedback","","html-keyboard-response","213","262004","0.0-1.0-285.0-0.0","0","0","24308","","null","","","null","31","","","","","","","","","","","","","","","",""
"","ITI","","html-keyboard-response","214","263015","0.0-1.0-288.0","0","0","24308","","null","","","null","31","","","","","","","","","","","","","","","NaN",""
"","S1","","html-keyboard-response","215","263285","0.0-1.0-290.0","0","0","24308","","null","","","null","32","","","","","","","","","","","","","","","",""
"","ISI","","html-keyboard-response","216","264298","0.0-1.0-291.0","0","0","24308","","null","","","null","32","NaN","","","","","","","","","","","","","","",""
"","S2","","html-keyboard-response","217","264566","0.0-1.0-292.0","0","0","24308","","null","","","null","32","","NaN","","","","","","","","","","","","","",""
"","response","","html-keyboard-response","218","264813","0.0-1.0-293.0-0.0","0","0","24308","","240","","","75","32","","","1","32","training","adjacent","FE","6","5","Q.jpg","R.jpg","0","0","1","",""
"","feedback","","html-keyboard-response","219","265832","0.0-1.0-294.0-0.0","0","0","24308","","null","","","null","32","","","","","","","","","","","","","","","",""
"","ITI","","html-keyboard-response","220","266845","0.0-1.0-297.0","0","0","24308","","null","","","null","32","","","","","","","","","","","","","","","NaN",""
"","S1","","html-keyboard-response","221","267112","0.0-1.0-299.0","0","0","24308","","null","","","null","33","","","","","","","","","","","","","","","",""
"","ISI","","html-keyboard-response","222","268132","0.0-1.0-300.0","0","0","24308","","null","","","null","33","NaN","","","","","","","","","","","","","","",""
"","S2","","html-keyboard-response","223","268397","0.0-1.0-301.0","0","0","24308","","null","","","null","33","","NaN","","","","","","","","","","","","","",""
"","response","","html-keyboard-response","224","268651","0.0-1.0-302.0-0.0","0","0","24308","","247","","","68","33","","","1","33","training","adjacent","GF","7","6","N.jpg","Q.jpg","1","0","0","",""
"","feedback","","html-keyboard-response","225","269663","0.0-1.0-303.0-0.0","0","0","24308","","null","","","null","33","","","","","","","","","","","","","","","",""
"","time_out","","html-keyboard-response","226","271680","0.0-1.0-305.0-0.0","0","0","24308","","null","","","null","33","","","","","","","","","","","","","","","",""
"","ITI","","html-keyboard-response","227","272694","0.0-1.0-306.0","0","0","24308","","null","","","null","33","","","","","","","","","","","","","","","NaN",""
"","S1","","html-keyboard-response","228","272963","0.0-1.0-308.0","0","0","24308","","null","","","null","34","","","","","","","","","","","","","","","",""
"","ISI","","html-keyboard-response","229","273975","0.0-1.0-309.0","0","0","24308","","null","","","null","34","NaN","","","","","","","","","","","","","","",""
"","S2","","html-keyboard-response","230","274242","0.0-1.0-310.0","0","0","24308","","null","","","null","34","","NaN","","","","","","","","","","","","","",""
"","response","","html-keyboard-response","231","274426","0.0-1.0-311.0-0.0","0","0","24308","","175","","","75","34","","","1","34","training","adjacent","BC","2","3","M.jpg","O.jpg","0","1","0","",""
"","feedback","","html-keyboard-response","232","275441","0.0-1.0-312.0-0.0","0","0","24308","","null","","","null","34","","","","","","","","","","","","","","","",""
"","time_out","","html-keyboard-response","233","277455","0.0-1.0-314.0-0.0","0","0","24308","","null","","","null","34","","","","","","","","","","","","","","","",""
"","ITI","","html-keyboard-response","234","278470","0.0-1.0-315.0","0","0","24308","","null","","","null","34","","","","","","","","","","","","","","","NaN",""
"","S1","","html-keyboard-response","235","278742","0.0-1.0-317.0","0","0","24308","","null","","","null","35","","","","","","","","","","","","","","","",""
"","ISI","","html-keyboard-response","236","279752","0.0-1.0-318.0","0","0","24308","","null","","","null","35","NaN","","","","","","","","","","","","","","",""
"","S2","","html-keyboard-response","237","280019","0.0-1.0-319.0","0","0","24308","","null","","","null","35","","NaN","","","","","","","","","","","","","",""
"","response","","html-keyboard-response","238","280282","0.0-1.0-320.0-0.0","0","0","24308","","256","","","68","35","","","1","35","training","adjacent","EF","5","6","R.jpg","Q.jpg","1","1","1","",""
"","feedback","","html-keyboard-response","239","281300","0.0-1.0-321.0-0.0","0","0","24308","","null","","","null","35","","","","","","","","","","","","","","","",""
"","ITI","","html-keyboard-response","240","282319","0.0-1.0-324.0","0","0","24308","","null","","","null","35","","","","","","","","","","","","","","","NaN",""
"","S1","","html-keyboard-response","241","282588","0.0-1.0-326.0","0","0","24308","","null","","","null","36","","","","","","","","","","","","","","","",""
"","ISI","","html-keyboard-response","242","283601","0.0-1.0-327.0","0","0","24308","","null","","","null","36","NaN","","","","","","","","","","","","","","",""
"","S2","","html-keyboard-response","243","283867","0.0-1.0-328.0","0","0","24308","","null","","","null","36","","NaN","","","","","","","","","","","","","",""
"","response","","html-keyboard-response","244","284032","0.0-1.0-329.0-0.0","0","0","24308","","156","","","75","36","","","1","36","training","adjacent","CD","3","4","O.jpg","P.jpg","0","1","0","",""
"","feedback","","html-keyboard-response","245","285050","0.0-1.0-330.0-0.0","0","0","24308","","null","","","null","36","","","","","","","","","","","","","","","",""
"","time_out","","html-keyboard-response","246","287066","0.0-1.0-332.0-0.0","0","0","24308","","null","","","null","36","","","","","","","","","","","","","","","",""
"","ITI","","html-keyboard-response","247","288083","0.0-1.0-333.0","0","0","24308","","null","","","null","36","","","","","","","","","","","","","","","NaN",""
"","S1","","html-keyboard-response","248","288346","0.0-1.0-335.0","0","0","24308","","null","","","null","37","","","","","","","","","","","","","","","",""
"","ISI","","html-keyboard-response","249","289365","0.0-1.0-336.0","0","0","24308","","null","","","null","37","NaN","","","","","","","","","","","","","","",""
"","S2","","html-keyboard-response","250","289627","0.0-1.0-337.0","0","0","24308","","null","","","null","37","","NaN","","","","","","","","","","","","","",""
"","response","","html-keyboard-response","251","289868","0.0-1.0-338.0-0.0","0","0","24308","","237","","","68","37","","","1","37","training","adjacent","GF","7","6","N.jpg","Q.jpg","1","0","0","",""
"","feedback","","html-keyboard-response","252","290876","0.0-1.0-339.0-0.0","0","0","24308","","null","","","null","37","","","","","","","","","","","","","","","",""
"","time_out","","html-keyboard-response","253","292891","0.0-1.0-341.0-0.0","0","0","24308","","null","","","null","37","","","","","","","","","","","","","","","",""
"","ITI","","html-keyboard-response","254","293904","0.0-1.0-342.0","0","0","24308","","null","","","null","37","","","","","","","","","","","","","","","NaN",""
"","S1","","html-keyboard-response","255","294161","0.0-1.0-344.0","0","0","24308","","null","","","null","38","","","","","","","","","","","","","","","",""
"","ISI","","html-keyboard-response","256","295175","0.0-1.0-345.0","0","0","24308","","null","","","null","38","NaN","","","","","","","","","","","","","","",""
"","S2","","html-keyboard-response","257","295444","0.0-1.0-346.0","0","0","24308","","null","","","null","38","","NaN","","","","","","","","","","","","","",""
"","response","","html-keyboard-response","258","295660","0.0-1.0-347.0-0.0","0","0","24308","","211","","","75","38","","","1","38","training","adjacent","GF","7","6","N.jpg","Q.jpg","0","0","1","",""
"","feedback","","html-keyboard-response","259","296669","0.0-1.0-348.0-0.0","0","0","24308","","null","","","null","38","","","","","","","","","","","","","","","",""
"","ITI","","html-keyboard-response","260","297689","0.0-1.0-351.0","0","0","24308","","null","","","null","38","","","","","","","","","","","","","","","NaN",""
"","S1","","html-keyboard-response","261","297953","0.0-1.0-353.0","0","0","24308","","null","","","null","39","","","","","","","","","","","","","","","",""
"","ISI","","html-keyboard-response","262","298971","0.0-1.0-354.0","0","0","24308","","null","","","null","39","NaN","","","","","","","","","","","","","","",""
"","S2","","html-keyboard-response","263","299234","0.0-1.0-355.0","0","0","24308","","null","","","null","39","","NaN","","","","","","","","","","","","","",""
"","response","","html-keyboard-response","264","299407","0.0-1.0-356.0-0.0","0","0","24308","","167","","","75","39","","","1","39","training","adjacent","BA","2","1","M.jpg","L.jpg","0","0","1","",""
"","feedback","","html-keyboard-response","265","300416","0.0-1.0-357.0-0.0","0","0","24308","","null","","","null","39","","","","","","","","","","","","","","","",""
"","ITI","","html-keyboard-response","266","301438","0.0-1.0-360.0","0","0","24308","","null","","","null","39","","","","","","","","","","","","","","","NaN",""
"","S1","","html-keyboard-response","267","301703","0.0-1.0-362.0","0","0","24308","","null","","","null","40","","","","","","","","","","","","","","","",""
"","ISI","","html-keyboard-response","268","302717","0.0-1.0-363.0","0","0","24308","","null","","","null","40","NaN","","","","","","","","","","","","","","",""
"","S2","","html-keyboard-response","269","302984","0.0-1.0-364.0","0","0","24308","","null","","","null","40","","NaN","","","","","","","","","","","","","",""
"","response","","html-keyboard-response","270","303565","0.0-1.0-365.0-0.0","0","0","24308","","572","","","68","40","","","1","40","training","adjacent","FG","6","7","Q.jpg","N.jpg","1","1","1","",""
"","feedback","","html-keyboard-response","271","304579","0.0-1.0-366.0-0.0","0","0","24308","","null","","","null","40","","","","","","","","","","","","","","","",""
"","ITI","","html-keyboard-response","272","305597","0.0-1.0-369.0","0","0","24308","","null","","","null","40","","","","","","","","","","","","","","","NaN",""
"","S1","","html-keyboard-response","273","305864","0.0-1.0-371.0","0","0","24308","","null","","","null","41","","","","","","","","","","","","","","","",""
"","ISI","","html-keyboard-response","274","306868","0.0-1.0-372.0","0","0","24308","","null","","","null","41","NaN","","","","","","","","","","","","","","",""
"","S2","","html-keyboard-response","275","307129","0.0-1.0-373.0","0","0","24308","","null","","","null","41","","NaN","","","","","","","","","","","","","",""
"","response","","html-keyboard-response","276","307850","0.0-1.0-374.0-0.0","0","0","24308","","715","","","68","41","","","1","41","training","adjacent","FE","6","5","Q.jpg","R.jpg","1","0","0","",""
"","feedback","","html-keyboard-response","277","308869","0.0-1.0-375.0-0.0","0","0","24308","","null","","","null","41","","","","","","","","","","","","","","","",""
"","time_out","","html-keyboard-response","278","310877","0.0-1.0-377.0-0.0","0","0","24308","","null","","","null","41","","","","","","","","","","","","","","","",""
"","ITI","","html-keyboard-response","279","311895","0.0-1.0-378.0","0","0","24308","","null","","","null","41","","","","","","","","","","","","","","","NaN",""
"","S1","","html-keyboard-response","280","312160","0.0-1.0-380.0","0","0","24308","","null","","","null","42","","","","","","","","","","","","","","","",""
"","ISI","","html-keyboard-response","281","313172","0.0-1.0-381.0","0","0","24308","","null","","","null","42","NaN","","","","","","","","","","","","","","",""
"","S2","","html-keyboard-response","282","313437","0.0-1.0-382.0","0","0","24308","","null","","","null","42","","NaN","","","","","","","","","","","","","",""
"","response","","html-keyboard-response","283","313706","0.0-1.0-383.0-0.0","0","0","24308","","265","","","75","42","","","1","42","training","adjacent","BA","2","1","M.jpg","L.jpg","0","0","1","",""
"","feedback","","html-keyboard-response","284","314722","0.0-1.0-384.0-0.0","0","0","24308","","null","","","null","42","","","","","","","","","","","","","","","",""
"","ITI","","html-keyboard-response","285","315735","0.0-1.0-387.0","0","0","24308","","null","","","null","42","","","","","","","","","","","","","","","NaN",""
"","S1","","html-keyboard-response","286","315989","0.0-1.0-389.0","0","0","24308","","null","","","null","43","","","","","","","","","","","","","","","",""
"","ISI","","html-keyboard-response","287","317007","0.0-1.0-390.0","0","0","24308","","null","","","null","43","NaN","","","","","","","","","","","","","","",""
"","S2","","html-keyboard-response","288","317273","0.0-1.0-391.0","0","0","24308","","null","","","null","43","","NaN","","","","","","","","","","","","","",""
"","response","","html-keyboard-response","289","317457","0.0-1.0-392.0-0.0","0","0","24308","","180","","","75","43","","","1","43","training","adjacent","DC","4","3","P.jpg","O.jpg","0","0","1","",""
"","feedback","","html-keyboard-response","290","318470","0.0-1.0-393.0-0.0","0","0","24308","","null","","","null","43","","","","","","","","","","","","","","","",""
"","ITI","","html-keyboard-response","291","319485","0.0-1.0-396.0","0","0","24308","","null","","","null","43","","","","","","","","","","","","","","","NaN",""
"","S1","","html-keyboard-response","292","319752","0.0-1.0-398.0","0","0","24308","","null","","","null","44","","","","","","","","","","","","","","","",""
"","ISI","","html-keyboard-response","293","320771","0.0-1.0-399.0","0","0","24308","","null","","","null","44","NaN","","","","","","","","","","","","","","",""
"","S2","","html-keyboard-response","294","321003","0.0-1.0-400.0","0","0","24308","","225","","","75","44","","k","1","44","training","adjacent","BA","2","1","M.jpg","L.jpg","0","0","1","",""
"","feedback","","html-keyboard-response","295","322016","0.0-1.0-402.0-0.0","0","0","24308","","null","","","null","44","","","","","","","","","","","","","","","",""
"","ITI","","html-keyboard-response","296","323031","0.0-1.0-405.0","0","0","24308","","null","","","null","44","","","","","","","","","","","","","","","NaN",""
"","S1","","html-keyboard-response","297","323294","0.0-1.0-407.0","0","0","24308","","null","","","null","45","","","","","","","","","","","","","","","",""
"","ISI","","html-keyboard-response","298","324299","0.0-1.0-408.0","0","0","24308","","null","","","null","45","NaN","","","","","","","","","","","","","","",""
"","S2","","html-keyboard-response","299","324463","0.0-1.0-409.0","0","0","24308","","160","","","68","45","","d","1","45","training","adjacent","BC","2","3","M.jpg","O.jpg","1","1","1","",""
"","feedback","","html-keyboard-response","300","325482","0.0-1.0-411.0-0.0","0","0","24308","","null","","","null","45","","","","","","","","","","","","","","","",""
"","ITI","","html-keyboard-response","301","326497","0.0-1.0-414.0","0","0","24308","","null","","","null","45","","","","","","","","","","","","","","","NaN",""
"","S1","","html-keyboard-response","302","326766","0.0-1.0-416.0","0","0","24308","","null","","","null","46","","","","","","","","","","","","","","","",""
"","ISI","","html-keyboard-response","303","327775","0.0-1.0-417.0","0","0","24308","","null","","","null","46","NaN","","","","","","","","","","","","","","",""
"","S2","","html-keyboard-response","304","328017","0.0-1.0-418.0","0","0","24308","","239","","","75","46","","k","1","46","training","adjacent","CB","3","2","O.jpg","M.jpg","0","0","1","",""
"","feedback","","html-keyboard-response","305","329023","0.0-1.0-420.0-0.0","0","0","24308","","null","","","null","46","","","","","","","","","","","","","","","",""
"","ITI","","html-keyboard-response","306","330051","0.0-1.0-423.0","0","0","24308","","null","","","null","46","","","","","","","","","","","","","","","NaN",""
"","S1","","html-keyboard-response","307","330323","0.0-1.0-425.0","0","0","24308","","null","","","null","47","","","","","","","","","","","","","","","",""
"","ISI","","html-keyboard-response","308","331343","0.0-1.0-426.0","0","0","24308","","null","","","null","47","NaN","","","","","","","","","","","","","","",""
"","S2","","html-keyboard-response","309","331607","0.0-1.0-427.0","0","0","24308","","null","","","null","47","","NaN","","","","","","","","","","","","","",""
"","response","","html-keyboard-response","310","332312","0.0-1.0-428.0-0.0","0","0","24308","","704","","","68","47","","","1","47","training","adjacent","FG","6","7","Q.jpg","N.jpg","1","1","1","",""
"","feedback","","html-keyboard-response","311","333319","0.0-1.0-429.0-0.0","0","0","24308","","null","","","null","47","","","","","","","","","","","","","","","",""
"","ITI","","html-keyboard-response","312","334338","0.0-1.0-432.0","0","0","24308","","null","","","null","47","","","","","","","","","","","","","","","NaN",""
"","block_over","","html-keyboard-response","313","340650","0.0-1.0-433.0-0.0","0","0","24308","","6307","","","32","47","","","","","","","","","","","","","","","",""
"","S1","","html-keyboard-response","314","340916","0.0-1.0-434.0","0","0","24308","","null","","","null","48","","","","","","","","","","","","","","","",""
"","ISI","","html-keyboard-response","315","341930","0.0-1.0-435.0","0","0","24308","","null","","","null","48","NaN","","","","","","","","","","","","","","",""
"","S2","","html-keyboard-response","316","342177","0.0-1.0-436.0","0","0","24308","","241","","","75","48","","k","2","48","training","adjacent","BA","2","1","M.jpg","L.jpg","0","0","1","",""
"","feedback","","html-keyboard-response","317","343195","0.0-1.0-438.0-0.0","0","0","24308","","null","","","null","48","","","","","","","","","","","","","","","",""
"","ITI","","html-keyboard-response","318","344218","0.0-1.0-441.0","0","0","24308","","null","","","null","48","","","","","","","","","","","","","","","NaN",""
"","S1","","html-keyboard-response","319","344481","0.0-1.0-443.0","0","0","24308","","null","","","null","49","","","","","","","","","","","","","","","",""
"","ISI","","html-keyboard-response","320","345495","0.0-1.0-444.0","0","0","24308","","null","","","null","49","NaN","","","","","","","","","","","","","","",""
"","S2","","html-keyboard-response","321","345697","0.0-1.0-445.0","0","0","24308","","199","","","68","49","","d","2","49","training","adjacent","BA","2","1","M.jpg","L.jpg","1","0","0","",""
"","feedback","","html-keyboard-response","322","346710","0.0-1.0-447.0-0.0","0","0","24308","","null","","","null","49","","","","","","","","","","","","","","","",""
"","time_out","","html-keyboard-response","323","348726","0.0-1.0-449.0-0.0","0","0","24308","","null","","","null","49","","","","","","","","","","","","","","","",""
"","ITI","","html-keyboard-response","324","349741","0.0-1.0-450.0","0","0","24308","","null","","","null","49","","","","","","","","","","","","","","","NaN",""
"","S1","","html-keyboard-response","325","350006","0.0-1.0-452.0","0","0","24308","","null","","","null","50","","","","","","","","","","","","","","","",""
"","ISI","","html-keyboard-response","326","351023","0.0-1.0-453.0","0","0","24308","","null","","","null","50","NaN","","","","","","","","","","","","","","",""
"","S2","","html-keyboard-response","327","351290","0.0-1.0-454.0","0","0","24308","","null","","","null","50","","NaN","","","","","","","","","","","","","",""
"","response","","html-keyboard-response","328","351390","0.0-1.0-455.0-0.0","0","0","24308","","96","","","75","50","","","2","50","training","adjacent","BC","2","3","M.jpg","O.jpg","0","1","0","",""
"","feedback","","html-keyboard-response","329","352407","0.0-1.0-456.0-0.0","0","0","24308","","null","","","null","50","","","","","","","","","","","","","","","",""
"","time_out","","html-keyboard-response","330","354425","0.0-1.0-458.0-0.0","0","0","24308","","null","","","null","50","","","","","","","","","","","","","","","",""
"","ITI","","html-keyboard-response","331","355438","0.0-1.0-459.0","0","0","24308","","null","","","null","50","","","","","","","","","","","","","","","NaN",""
"","S1","","html-keyboard-response","332","355705","0.0-1.0-461.0","0","0","24308","","null","","","null","51","","","","","","","","","","","","","","","",""
"","ISI","","html-keyboard-response","333","356717","0.0-1.0-462.0","0","0","24308","","null","","","null","51","NaN","","","","","","","","","","","","","","",""
"","S2","","html-keyboard-response","334","356988","0.0-1.0-463.0","0","0","24308","","null","","","null","51","","NaN","","","","","","","","","","","","","",""
"","response","","html-keyboard-response","335","357603","0.0-1.0-464.0-0.0","0","0","24308","","610","","","68","51","","","2","51","training","adjacent","FG","6","7","Q.jpg","N.jpg","1","1","1","",""
"","feedback","","html-keyboard-response","336","358616","0.0-1.0-465.0-0.0","0","0","24308","","null","","","null","51","","","","","","","","","","","","","","","",""
"","ITI","","html-keyboard-response","337","359634","0.0-1.0-468.0","0","0","24308","","null","","","null","51","","","","","","","","","","","","","","","NaN",""
"","S1","","html-keyboard-response","338","359897","0.0-1.0-470.0","0","0","24308","","null","","","null","52","","","","","","","","","","","","","","","",""
"","ISI","","html-keyboard-response","339","360914","0.0-1.0-471.0","0","0","24308","","null","","","null","52","NaN","","","","","","","","","","","","","","",""
"","S2","","html-keyboard-response","340","361113","0.0-1.0-472.0","0","0","24308","","193","","","75","52","","k","2","52","training","adjacent","ED","5","4","R.jpg","P.jpg","0","0","1","",""
"","feedback","","html-keyboard-response","341","362129","0.0-1.0-474.0-0.0","0","0","24308","","null","","","null","52","","","","","","","","","","","","","","","",""
"","ITI","","html-keyboard-response","342","363148","0.0-1.0-477.0","0","0","24308","","null","","","null","52","","","","","","","","","","","","","","","NaN",""
"","S1","","html-keyboard-response","343","363414","0.0-1.0-479.0","0","0","24308","","null","","","null","53","","","","","","","","","","","","","","","",""
"","ISI","","html-keyboard-response","344","364433","0.0-1.0-480.0","0","0","24308","","null","","","null","53","NaN","","","","","","","","","","","","","","",""
"","S2","","html-keyboard-response","345","364695","0.0-1.0-481.0","0","0","24308","","null","","","null","53","","NaN","","","","","","","","","","","","","",""
"","response","","html-keyboard-response","346","364855","0.0-1.0-482.0-0.0","0","0","24308","","155","","","68","53","","","2","53","training","adjacent","FG","6","7","Q.jpg","N.jpg","1","1","1","",""
"","feedback","","html-keyboard-response","347","365866","0.0-1.0-483.0-0.0","0","0","24308","","null","","","null","53","","","","","","","","","","","","","","","",""
"","ITI","","html-keyboard-response","348","366874","0.0-1.0-486.0","0","0","24308","","null","","","null","53","","","","","","","","","","","","","","","NaN",""
"","S1","","html-keyboard-response","349","367143","0.0-1.0-488.0","0","0","24308","","null","","","null","54","","","","","","","","","","","","","","","",""
"","ISI","","html-keyboard-response","350","368159","0.0-1.0-489.0","0","0","24308","","null","","","null","54","NaN","","","","","","","","","","","","","","",""
"","S2","","html-keyboard-response","351","368427","0.0-1.0-490.0","0","0","24308","","null","","","null","54","","NaN","","","","","","","","","","","","","",""
"","response","","html-keyboard-response","352","368454","0.0-1.0-491.0-0.0","0","0","24308","","23","","","75","54","","","2","54","training","adjacent","BA","2","1","M.jpg","L.jpg","0","0","1","",""
"","feedback","","html-keyboard-response","353","369471","0.0-1.0-492.0-0.0","0","0","24308","","null","","","null","54","","","","","","","","","","","","","","","",""
"","ITI","","html-keyboard-response","354","370487","0.0-1.0-495.0","0","0","24308","","null","","","null","54","","","","","","","","","","","","","","","NaN",""
"","S1","","html-keyboard-response","355","370757","0.0-1.0-497.0","0","0","24308","","null","","","null","55","","","","","","","","","","","","","","","",""
"","ISI","","html-keyboard-response","356","371769","0.0-1.0-498.0","0","0","24308","","null","","","null","55","NaN","","","","","","","","","","","","","","",""
"","S2","","html-keyboard-response","357","372038","0.0-1.0-499.0","0","0","24308","","null","","","null","55","","NaN","","","","","","","","","","","","","",""
"","response","","html-keyboard-response","358","372307","0.0-1.0-500.0-0.0","0","0","24308","","263","","","75","55","","","2","55","training","adjacent","FE","6","5","Q.jpg","R.jpg","0","0","1","",""
"","feedback","","html-keyboard-response","359","373323","0.0-1.0-501.0-0.0","0","0","24308","","null","","","null","55","","","","","","","","","","","","","","","",""
"","ITI","","html-keyboard-response","360","374338","0.0-1.0-504.0","0","0","24308","","null","","","null","55","","","","","","","","","","","","","","","NaN",""
"","S1","","html-keyboard-response","361","374607","0.0-1.0-506.0","0","0","24308","","null","","","null","56","","","","","","","","","","","","","","","",""
"","ISI","","html-keyboard-response","362","375620","0.0-1.0-507.0","0","0","24308","","null","","","null","56","NaN","","","","","","","","","","","","","","",""
"","S2","","html-keyboard-response","363","375883","0.0-1.0-508.0","0","0","24308","","null","","","null","56","","NaN","","","","","","","","","","","","","",""
"","response","","html-keyboard-response","364","375966","0.0-1.0-509.0-0.0","0","0","24308","","80","","","75","56","","","2","56","training","adjacent","ED","5","4","R.jpg","P.jpg","0","0","1","",""
"","feedback","","html-keyboard-response","365","376982","0.0-1.0-510.0-0.0","0","0","24308","","null","","","null","56","","","","","","","","","","","","","","","",""
"","ITI","","html-keyboard-response","366","377999","0.0-1.0-513.0","0","0","24308","","null","","","null","56","","","","","","","","","","","","","","","NaN",""
"","S1","","html-keyboard-response","367","378266","0.0-1.0-515.0","0","0","24308","","null","","","null","57","","","","","","","","","","","","","","","",""
"","ISI","","html-keyboard-response","368","379282","0.0-1.0-516.0","0","0","24308","","null","","","null","57","NaN","","","","","","","","","","","","","","",""
"","S2","","html-keyboard-response","369","379548","0.0-1.0-517.0","0","0","24308","","null","","","null","57","","NaN","","","","","","","","","","","","","",""
"","response","","html-keyboard-response","370","379773","0.0-1.0-518.0-0.0","0","0","24308","","222","","","68","57","","","2","57","training","adjacent","AB","1","2","L.jpg","M.jpg","1","1","1","",""
"","feedback","","html-keyboard-response","371","380783","0.0-1.0-519.0-0.0","0","0","24308","","null","","","null","57","","","","","","","","","","","","","","","",""
"","ITI","","html-keyboard-response","372","381797","0.0-1.0-522.0","0","0","24308","","null","","","null","57","","","","","","","","","","","","","","","NaN",""
"","S1","","html-keyboard-response","373","382061","0.0-1.0-524.0","0","0","24308","","null","","","null","58","","","","","","","","","","","","","","","",""
"","ISI","","html-keyboard-response","374","383078","0.0-1.0-525.0","0","0","24308","","null","","","null","58","NaN","","","","","","","","","","","","","","",""
"","S2","","html-keyboard-response","375","383347","0.0-1.0-526.0","0","0","24308","","null","","","null","58","","NaN","","","","","","","","","","","","","",""
"","response","","html-keyboard-response","376","383802","0.0-1.0-527.0-0.0","0","0","24308","","447","","","75","58","","","2","58","training","adjacent","FE","6","5","Q.jpg","R.jpg","0","0","1","",""
"","feedback","","html-keyboard-response","377","384828","0.0-1.0-528.0-0.0","0","0","24308","","null","","","null","58","","","","","","","","","","","","","","","",""
"","ITI","","html-keyboard-response","378","385844","0.0-1.0-531.0","0","0","24308","","null","","","null","58","","","","","","","","","","","","","","","NaN",""
"","S1","","html-keyboard-response","379","386107","0.0-1.0-533.0","0","0","24308","","null","","","null","59","","","","","","","","","","","","","","","",""
"","ISI","","html-keyboard-response","380","387127","0.0-1.0-534.0","0","0","24308","","null","","","null","59","NaN","","","","","","","","","","","","","","",""
"","S2","","html-keyboard-response","381","387358","0.0-1.0-535.0","0","0","24308","","226","","","75","59","","k","2","59","training","adjacent","CD","3","4","O.jpg","P.jpg","0","1","0","",""
"","feedback","","html-keyboard-response","382","388371","0.0-1.0-537.0-0.0","0","0","24308","","null","","","null","59","","","","","","","","","","","","","","","",""
"","time_out","","html-keyboard-response","383","390389","0.0-1.0-539.0-0.0","0","0","24308","","null","","","null","59","","","","","","","","","","","","","","","",""
"","ITI","","html-keyboard-response","384","391405","0.0-1.0-540.0","0","0","24308","","null","","","null","59","","","","","","","","","","","","","","","NaN",""
"","S1","","html-keyboard-response","385","391668","0.0-1.0-542.0","0","0","24308","","null","","","null","60","","","","","","","","","","","","","","","",""
"","ISI","","html-keyboard-response","386","392685","0.0-1.0-543.0","0","0","24308","","null","","","null","60","NaN","","","","","","","","","","","","","","",""
"","S2","","html-keyboard-response","387","392923","0.0-1.0-544.0","0","0","24308","","236","","","68","60","","d","2","60","training","adjacent","CB","3","2","O.jpg","M.jpg","1","0","0","",""
"","feedback","","html-keyboard-response","388","393935","0.0-1.0-546.0-0.0","0","0","24308","","null","","","null","60","","","","","","","","","","","","","","","",""
"","time_out","","html-keyboard-response","389","395953","0.0-1.0-548.0-0.0","0","0","24308","","null","","","null","60","","","","","","","","","","","","","","","",""
"","ITI","","html-keyboard-response","390","396963","0.0-1.0-549.0","0","0","24308","","null","","","null","60","","","","","","","","","","","","","","","NaN",""
"","S1","","html-keyboard-response","391","397220","0.0-1.0-551.0","0","0","24308","","null","","","null","61","","","","","","","","","","","","","","","",""
"","ISI","","html-keyboard-response","392","398235","0.0-1.0-552.0","0","0","24308","","null","","","null","61","NaN","","","","","","","","","","","","","","",""
"","S2","","html-keyboard-response","393","398474","0.0-1.0-553.0","0","0","24308","","236","","","75","61","","k","2","61","training","adjacent","GF","7","6","N.jpg","Q.jpg","0","0","1","",""
"","feedback","","html-keyboard-response","394","399483","0.0-1.0-555.0-0.0","0","0","24308","","null","","","null","61","","","","","","","","","","","","","","","",""
"","ITI","","html-keyboard-response","395","400497","0.0-1.0-558.0","0","0","24308","","null","","","null","61","","","","","","","","","","","","","","","NaN",""
"","S1","","html-keyboard-response","396","400765","0.0-1.0-560.0","0","0","24308","","null","","","null","62","","","","","","","","","","","","","","","",""
"","ISI","","html-keyboard-response","397","401777","0.0-1.0-561.0","0","0","24308","","null","","","null","62","NaN","","","","","","","","","","","","","","",""
"","S2","","html-keyboard-response","398","401964","0.0-1.0-562.0","0","0","24308","","177","","","75","62","","k","2","62","training","adjacent","BC","2","3","M.jpg","O.jpg","0","1","0","",""
"","feedback","","html-keyboard-response","399","402978","0.0-1.0-564.0-0.0","0","0","24308","","null","","","null","62","","","","","","","","","","","","","","","",""
"","time_out","","html-keyboard-response","400","404995","0.0-1.0-566.0-0.0","0","0","24308","","null","","","null","62","","","","","","","","","","","","","","","",""
"","ITI","","html-keyboard-response","401","406013","0.0-1.0-567.0","0","0","24308","","null","","","null","62","","","","","","","","","","","","","","","NaN",""
"","S1","","html-keyboard-response","402","406276","0.0-1.0-569.0","0","0","24308","","null","","","null","63","","","","","","","","","","","","","","","",""
"","ISI","","html-keyboard-response","403","407292","0.0-1.0-570.0","0","0","24308","","null","","","null","63","NaN","","","","","","","","","","","","","","",""
"","S2","","html-keyboard-response","404","407561","0.0-1.0-571.0","0","0","24308","","null","","","null","63","","NaN","","","","","","","","","","","","","",""
"","response","","html-keyboard-response","405","407795","0.0-1.0-572.0-0.0","0","0","24308","","230","","","68","63","","","2","63","training","adjacent","EF","5","6","R.jpg","Q.jpg","1","1","1","",""
"","feedback","","html-keyboard-response","406","408807","0.0-1.0-573.0-0.0","0","0","24308","","null","","","null","63","","","","","","","","","","","","","","","",""
"","ITI","","html-keyboard-response","407","409824","0.0-1.0-576.0","0","0","24308","","null","","","null","63","","","","","","","","","","","","","","","NaN",""
"","S1","","html-keyboard-response","408","410087","0.0-1.0-578.0","0","0","24308","","null","","","null","64","","","","","","","","","","","","","","","",""
"","ISI","","html-keyboard-response","409","411107","0.0-1.0-579.0","0","0","24308","","null","","","null","64","NaN","","","","","","","","","","","","","","",""
"","S2","","html-keyboard-response","410","411361","0.0-1.0-580.0","0","0","24308","","null","","","null","64","","NaN","","","","","","","","","","","","","",""
"","response","","html-keyboard-response","411","411793","0.0-1.0-581.0-0.0","0","0","24308","","425","","","75","64","","","2","64","training","adjacent","DE","4","5","P.jpg","R.jpg","0","1","0","",""
"","feedback","","html-keyboard-response","412","412801","0.0-1.0-582.0-0.0","0","0","24308","","null","","","null","64","","","","","","","","","","","","","","","",""
"","time_out","","html-keyboard-response","413","414818","0.0-1.0-584.0-0.0","0","0","24308","","null","","","null","64","","","","","","","","","","","","","","","",""
"","ITI","","html-keyboard-response","414","415838","0.0-1.0-585.0","0","0","24308","","null","","","null","64","","","","","","","","","","","","","","","NaN",""
"","S1","","html-keyboard-response","415","416098","0.0-1.0-587.0","0","0","24308","","null","","","null","65","","","","","","","","","","","","","","","",""
"","ISI","","html-keyboard-response","416","417113","0.0-1.0-588.0","0","0","24308","","null","","","null","65","NaN","","","","","","","","","","","","","","",""
"","S2","","html-keyboard-response","417","417385","0.0-1.0-589.0","0","0","24308","","null","","","null","65","","NaN","","","","","","","","","","","","","",""
"","response","","html-keyboard-response","418","417678","0.0-1.0-590.0-0.0","0","0","24308","","285","","","68","65","","","2","65","training","adjacent","CD","3","4","O.jpg","P.jpg","1","1","1","",""
"","feedback","","html-keyboard-response","419","418699","0.0-1.0-591.0-0.0","0","0","24308","","null","","","null","65","","","","","","","","","","","","","","","",""
"","ITI","","html-keyboard-response","420","419715","0.0-1.0-594.0","0","0","24308","","null","","","null","65","","","","","","","","","","","","","","","NaN",""
"","S1","","html-keyboard-response","421","419982","0.0-1.0-596.0","0","0","24308","","null","","","null","66","","","","","","","","","","","","","","","",""
"","ISI","","html-keyboard-response","422","421000","0.0-1.0-597.0","0","0","24308","","null","","","null","66","NaN","","","","","","","","","","","","","","",""
"","S2","","html-keyboard-response","423","421259","0.0-1.0-598.0","0","0","24308","","null","","","null","66","","NaN","","","","","","","","","","","","","",""
"","response","","html-keyboard-response","424","421714","0.0-1.0-599.0-0.0","0","0","24308","","451","","","68","66","","","2","66","training","adjacent","DE","4","5","P.jpg","R.jpg","1","1","1","",""
"","feedback","","html-keyboard-response","425","422729","0.0-1.0-600.0-0.0","0","0","24308","","null","","","null","66","","","","","","","","","","","","","","","",""
"","ITI","","html-keyboard-response","426","423746","0.0-1.0-603.0","0","0","24308","","null","","","null","66","","","","","","","","","","","","","","","NaN",""
"","S1","","html-keyboard-response","427","424015","0.0-1.0-605.0","0","0","24308","","null","","","null","67","","","","","","","","","","","","","","","",""
"","ISI","","html-keyboard-response","428","425026","0.0-1.0-606.0","0","0","24308","","null","","","null","67","NaN","","","","","","","","","","","","","","",""
"","S2","","html-keyboard-response","429","425296","0.0-1.0-607.0","0","0","24308","","null","","","null","67","","NaN","","","","","","","","","","","","","",""
"","response","","html-keyboard-response","430","425713","0.0-1.0-608.0-0.0","0","0","24308","","409","","","68","67","","","2","67","training","adjacent","DE","4","5","P.jpg","R.jpg","1","1","1","",""
"","feedback","","html-keyboard-response","431","426726","0.0-1.0-609.0-0.0","0","0","24308","","null","","","null","67","","","","","","","","","","","","","","","",""
"","ITI","","html-keyboard-response","432","427746","0.0-1.0-612.0","0","0","24308","","null","","","null","67","","","","","","","","","","","","","","","NaN",""
"","S1","","html-keyboard-response","433","428007","0.0-1.0-614.0","0","0","24308","","null","","","null","68","","","","","","","","","","","","","","","",""
"","ISI","","html-keyboard-response","434","429021","0.0-1.0-615.0","0","0","24308","","null","","","null","68","NaN","","","","","","","","","","","","","","",""
"","S2","","html-keyboard-response","435","429290","0.0-1.0-616.0","0","0","24308","","null","","","null","68","","NaN","","","","","","","","","","","","","",""
"","response","","html-keyboard-response","436","429623","0.0-1.0-617.0-0.0","0","0","24308","","328","","","68","68","","","2","68","training","adjacent","CB","3","2","O.jpg","M.jpg","1","0","0","",""
"","feedback","","html-keyboard-response","437","430636","0.0-1.0-618.0-0.0","0","0","24308","","null","","","null","68","","","","","","","","","","","","","","","",""
"","time_out","","html-keyboard-response","438","432654","0.0-1.0-620.0-0.0","0","0","24308","","null","","","null","68","","","","","","","","","","","","","","","",""
"","ITI","","html-keyboard-response","439","433667","0.0-1.0-621.0","0","0","24308","","null","","","null","68","","","","","","","","","","","","","","","NaN",""
"","S1","","html-keyboard-response","440","433933","0.0-1.0-623.0","0","0","24308","","null","","","null","69","","","","","","","","","","","","","","","",""
"","ISI","","html-keyboard-response","441","434952","0.0-1.0-624.0","0","0","24308","","null","","","null","69","NaN","","","","","","","","","","","","","","",""
"","S2","","html-keyboard-response","442","435221","0.0-1.0-625.0","0","0","24308","","null","","","null","69","","NaN","","","","","","","","","","","","","",""
"","response","","html-keyboard-response","443","435683","0.0-1.0-626.0-0.0","0","0","24308","","457","","","75","69","","","2","69","training","adjacent","FE","6","5","Q.jpg","R.jpg","0","0","1","",""
"","feedback","","html-keyboard-response","444","436701","0.0-1.0-627.0-0.0","0","0","24308","","null","","","null","69","","","","","","","","","","","","","","","",""
"","ITI","","html-keyboard-response","445","437717","0.0-1.0-630.0","0","0","24308","","null","","","null","69","","","","","","","","","","","","","","","NaN",""
"","S1","","html-keyboard-response","446","437982","0.0-1.0-632.0","0","0","24308","","null","","","null","70","","","","","","","","","","","","","","","",""
"","ISI","","html-keyboard-response","447","438996","0.0-1.0-633.0","0","0","24308","","null","","","null","70","NaN","","","","","","","","","","","","","","",""
"","S2","","html-keyboard-response","448","439263","0.0-1.0-634.0","0","0","24308","","null","","","null","70","","NaN","","","","","","","","","","","","","",""
"","response","","html-keyboard-response","449","439529","0.0-1.0-635.0-0.0","0","0","24308","","262","","","75","70","","","2","70","training","adjacent","ED","5","4","R.jpg","P.jpg","0","0","1","",""
"","feedback","","html-keyboard-response","450","440546","0.0-1.0-636.0-0.0","0","0","24308","","null","","","null","70","","","","","","","","","","","","","","","",""
"","ITI","","html-keyboard-response","451","441562","0.0-1.0-639.0","0","0","24308","","null","","","null","70","","","","","","","","","","","","","","","NaN",""
"","S1","","html-keyboard-response","452","441826","0.0-1.0-641.0","0","0","24308","","null","","","null","71","","","","","","","","","","","","","","","",""
"","ISI","","html-keyboard-response","453","442844","0.0-1.0-642.0","0","0","24308","","null","","","null","71","NaN","","","","","","","","","","","","","","",""
"","S2","","html-keyboard-response","454","443109","0.0-1.0-643.0","0","0","24308","","null","","","null","71","","NaN","","","","","","","","","","","","","",""
"","response","","html-keyboard-response","455","443260","0.0-1.0-644.0-0.0","0","0","24308","","148","","","68","71","","","2","71","training","adjacent","AB","1","2","L.jpg","M.jpg","1","1","1","",""
"","feedback","","html-keyboard-response","456","444273","0.0-1.0-645.0-0.0","0","0","24308","","null","","","null","71","","","","","","","","","","","","","","","",""
"","ITI","","html-keyboard-response","457","445291","0.0-1.0-648.0","0","0","24308","","null","","","null","71","","","","","","","","","","","","","","","NaN",""
"","S1","","html-keyboard-response","458","445558","0.0-1.0-650.0","0","0","24308","","null","","","null","72","","","","","","","","","","","","","","","",""
"","ISI","","html-keyboard-response","459","446571","0.0-1.0-651.0","0","0","24308","","null","","","null","72","NaN","","","","","","","","","","","","","","",""
"","S2","","html-keyboard-response","460","446839","0.0-1.0-652.0","0","0","24308","","null","","","null","72","","NaN","","","","","","","","","","","","","",""
"","response","","html-keyboard-response","461","447052","0.0-1.0-653.0-0.0","0","0","24308","","209","","","68","72","","","2","72","training","adjacent","EF","5","6","R.jpg","Q.jpg","1","1","1","",""
"","feedback","","html-keyboard-response","462","448058","0.0-1.0-654.0-0.0","0","0","24308","","null","","","null","72","","","","","","","","","","","","","","","",""
"","ITI","","html-keyboard-response","463","449071","0.0-1.0-657.0","0","0","24308","","null","","","null","72","","","","","","","","","","","","","","","NaN",""
"","S1","","html-keyboard-response","464","449337","0.0-1.0-659.0","0","0","24308","","null","","","null","73","","","","","","","","","","","","","","","",""
"","ISI","","html-keyboard-response","465","450355","0.0-1.0-660.0","0","0","24308","","null","","","null","73","NaN","","","","","","","","","","","","","","",""
"","S2","","html-keyboard-response","466","450621","0.0-1.0-661.0","0","0","24308","","null","","","null","73","","NaN","","","","","","","","","","","","","",""
"","response","","html-keyboard-response","467","450875","0.0-1.0-662.0-0.0","0","0","24308","","248","","","68","73","","","2","73","training","adjacent","DE","4","5","P.jpg","R.jpg","1","1","1","",""
"","feedback","","html-keyboard-response","468","451887","0.0-1.0-663.0-0.0","0","0","24308","","null","","","null","73","","","","","","","","","","","","","","","",""
"","ITI","","html-keyboard-response","469","452900","0.0-1.0-666.0","0","0","24308","","null","","","null","73","","","","","","","","","","","","","","","NaN",""
"","S1","","html-keyboard-response","470","453164","0.0-1.0-668.0","0","0","24308","","null","","","null","74","","","","","","","","","","","","","","","",""
"","ISI","","html-keyboard-response","471","454185","0.0-1.0-669.0","0","0","24308","","null","","","null","74","NaN","","","","","","","","","","","","","","",""
"","S2","","html-keyboard-response","472","454451","0.0-1.0-670.0","0","0","24308","","null","","","null","74","","NaN","","","","","","","","","","","","","",""
"","response","","html-keyboard-response","473","454621","0.0-1.0-671.0-0.0","0","0","24308","","166","","","75","74","","","2","74","training","adjacent","GF","7","6","N.jpg","Q.jpg","0","0","1","",""
"","feedback","","html-keyboard-response","474","455635","0.0-1.0-672.0-0.0","0","0","24308","","null","","","null","74","","","","","","","","","","","","","","","",""
"","ITI","","html-keyboard-response","475","456650","0.0-1.0-675.0","0","0","24308","","null","","","null","74","","","","","","","","","","","","","","","NaN",""
"","S1","","html-keyboard-response","476","456903","0.0-1.0-677.0","0","0","24308","","null","","","null","75","","","","","","","","","","","","","","","",""
"","ISI","","html-keyboard-response","477","457915","0.0-1.0-678.0","0","0","24308","","null","","","null","75","NaN","","","","","","","","","","","","","","",""
"","S2","","html-keyboard-response","478","458181","0.0-1.0-679.0","0","0","24308","","null","","","null","75","","NaN","","","","","","","","","","","","","",""
"","response","","html-keyboard-response","479","458282","0.0-1.0-680.0-0.0","0","0","24308","","98","","","75","75","","","2","75","training","adjacent","BA","2","1","M.jpg","L.jpg","0","0","1","",""
"","feedback","","html-keyboard-response","480","459297","0.0-1.0-681.0-0.0","0","0","24308","","null","","","null","75","","","","","","","","","","","","","","","",""
"","ITI","","html-keyboard-response","481","460309","0.0-1.0-684.0","0","0","24308","","null","","","null","75","","","","","","","","","","","","","","","NaN",""
"","S1","","html-keyboard-response","482","460577","0.0-1.0-686.0","0","0","24308","","null","","","null","76","","","","","","","","","","","","","","","",""
"","ISI","","html-keyboard-response","483","461598","0.0-1.0-687.0","0","0","24308","","null","","","null","76","NaN","","","","","","","","","","","","","","",""
"","S2","","html-keyboard-response","484","461860","0.0-1.0-688.0","0","0","24308","","null","","","null","76","","NaN","","","","","","","","","","","","","",""
"","response","","html-keyboard-response","485","462043","0.0-1.0-689.0-0.0","0","0","24308","","179","","","68","76","","","2","76","training","adjacent","FG","6","7","Q.jpg","N.jpg","1","1","1","",""
"","feedback","","html-keyboard-response","486","463060","0.0-1.0-690.0-0.0","0","0","24308","","null","","","null","76","","","","","","","","","","","","","","","",""
"","ITI","","html-keyboard-response","487","464073","0.0-1.0-693.0","0","0","24308","","null","","","null","76","","","","","","","","","","","","","","","NaN",""
"","S1","","html-keyboard-response","488","464344","0.0-1.0-695.0","0","0","24308","","null","","","null","77","","","","","","","","","","","","","","","",""
"","ISI","","html-keyboard-response","489","465359","0.0-1.0-696.0","0","0","24308","","null","","","null","77","NaN","","","","","","","","","","","","","","",""
"","S2","","html-keyboard-response","490","465621","0.0-1.0-697.0","0","0","24308","","null","","","null","77","","NaN","","","","","","","","","","","","","",""
"","response","","html-keyboard-response","491","465651","0.0-1.0-698.0-0.0","0","0","24308","","26","","","75","77","","","2","77","training","adjacent","BC","2","3","M.jpg","O.jpg","0","1","0","",""
"","feedback","","html-keyboard-response","492","466674","0.0-1.0-699.0-0.0","0","0","24308","","null","","","null","77","","","","","","","","","","","","","","","",""
"","time_out","","html-keyboard-response","493","468685","0.0-1.0-701.0-0.0","0","0","24308","","null","","","null","77","","","","","","","","","","","","","","","",""
"","ITI","","html-keyboard-response","494","469703","0.0-1.0-702.0","0","0","24308","","null","","","null","77","","","","","","","","","","","","","","","NaN",""
"","S1","","html-keyboard-response","495","469971","0.0-1.0-704.0","0","0","24308","","null","","","null","78","","","","","","","","","","","","","","","",""
"","ISI","","html-keyboard-response","496","470985","0.0-1.0-705.0","0","0","24308","","null","","","null","78","NaN","","","","","","","","","","","","","","",""
"","S2","","html-keyboard-response","497","471251","0.0-1.0-706.0","0","0","24308","","null","","","null","78","","NaN","","","","","","","","","","","","","",""
"","response","","html-keyboard-response","498","471489","0.0-1.0-707.0-0.0","0","0","24308","","231","","","68","78","","","2","78","training","adjacent","DC","4","3","P.jpg","O.jpg","1","0","0","",""
"","feedback","","html-keyboard-response","499","472500","0.0-1.0-708.0-0.0","0","0","24308","","null","","","null","78","","","","","","","","","","","","","","","",""
"","time_out","","html-keyboard-response","500","474518","0.0-1.0-710.0-0.0","0","0","24308","","null","","","null","78","","","","","","","","","","","","","","","",""
"","ITI","","html-keyboard-response","501","475530","0.0-1.0-711.0","0","0","24308","","null","","","null","78","","","","","","","","","","","","","","","NaN",""
"","S1","","html-keyboard-response","502","475797","0.0-1.0-713.0","0","0","24308","","null","","","null","79","","","","","","","","","","","","","","","",""
"","ISI","","html-keyboard-response","503","476813","0.0-1.0-714.0","0","0","24308","","null","","","null","79","NaN","","","","","","","","","","","","","","",""
"","S2","","html-keyboard-response","504","477078","0.0-1.0-715.0","0","0","24308","","null","","","null","79","","NaN","","","","","","","","","","","","","",""
"","response","","html-keyboard-response","505","477186","0.0-1.0-716.0-0.0","0","0","24308","","104","","","75","79","","","2","79","training","adjacent","ED","5","4","R.jpg","P.jpg","0","0","1","",""
"","feedback","","html-keyboard-response","506","478196","0.0-1.0-717.0-0.0","0","0","24308","","null","","","null","79","","","","","","","","","","","","","","","",""
"","ITI","","html-keyboard-response","507","479214","0.0-1.0-720.0","0","0","24308","","null","","","null","79","","","","","","","","","","","","","","","NaN",""
"","S1","","html-keyboard-response","508","479478","0.0-1.0-722.0","0","0","24308","","null","","","null","80","","","","","","","","","","","","","","","",""
"","ISI","","html-keyboard-response","509","480494","0.0-1.0-723.0","0","0","24308","","null","","","null","80","NaN","","","","","","","","","","","","","","",""
"","S2","","html-keyboard-response","510","480763","0.0-1.0-724.0","0","0","24308","","null","","","null","80","","NaN","","","","","","","","","","","","","",""
"","response","","html-keyboard-response","511","481030","0.0-1.0-725.0-0.0","0","0","24308","","261","","","68","80","","","2","80","training","adjacent","AB","1","2","L.jpg","M.jpg","1","1","1","",""
"","feedback","","html-keyboard-response","512","482041","0.0-1.0-726.0-0.0","0","0","24308","","null","","","null","80","","","","","","","","","","","","","","","",""
"","ITI","","html-keyboard-response","513","483061","0.0-1.0-729.0","0","0","24308","","null","","","null","80","","","","","","","","","","","","","","","NaN",""
"","S1","","html-keyboard-response","514","483323","0.0-1.0-731.0","0","0","24308","","null","","","null","81","","","","","","","","","","","","","","","",""
"","ISI","","html-keyboard-response","515","484344","0.0-1.0-732.0","0","0","24308","","null","","","null","81","NaN","","","","","","","","","","","","","","",""
"","S2","","html-keyboard-response","516","484610","0.0-1.0-733.0","0","0","24308","","null","","","null","81","","NaN","","","","","","","","","","","","","",""
"","response","","html-keyboard-response","517","484726","0.0-1.0-734.0-0.0","0","0","24308","","113","","","75","81","","","2","81","training","adjacent","CD","3","4","O.jpg","P.jpg","0","1","0","",""
"","feedback","","html-keyboard-response","518","485743","0.0-1.0-735.0-0.0","0","0","24308","","null","","","null","81","","","","","","","","","","","","","","","",""
"","time_out","","html-keyboard-response","519","487753","0.0-1.0-737.0-0.0","0","0","24308","","null","","","null","81","","","","","","","","","","","","","","","",""
"","ITI","","html-keyboard-response","520","488768","0.0-1.0-738.0","0","0","24308","","null","","","null","81","","","","","","","","","","","","","","","NaN",""
"","S1","","html-keyboard-response","521","489040","0.0-1.0-740.0","0","0","24308","","null","","","null","82","","","","","","","","","","","","","","","",""
"","ISI","","html-keyboard-response","522","490050","0.0-1.0-741.0","0","0","24308","","null","","","null","82","NaN","","","","","","","","","","","","","","",""
"","S2","","html-keyboard-response","523","490317","0.0-1.0-742.0","0","0","24308","","null","","","null","82","","NaN","","","","","","","","","","","","","",""
"","response","","html-keyboard-response","524","490510","0.0-1.0-743.0-0.0","0","0","24308","","188","","","68","82","","","2","82","training","adjacent","CB","3","2","O.jpg","M.jpg","1","0","0","",""
"","feedback","","html-keyboard-response","525","491518","0.0-1.0-744.0-0.0","0","0","24308","","null","","","null","82","","","","","","","","","","","","","","","",""
"","time_out","","html-keyboard-response","526","493534","0.0-1.0-746.0-0.0","0","0","24308","","null","","","null","82","","","","","","","","","","","","","","","",""
"","ITI","","html-keyboard-response","527","494546","0.0-1.0-747.0","0","0","24308","","null","","","null","82","","","","","","","","","","","","","","","NaN",""
"","S1","","html-keyboard-response","528","494813","0.0-1.0-749.0","0","0","24308","","null","","","null","83","","","","","","","","","","","","","","","",""
"","ISI","","html-keyboard-response","529","495822","0.0-1.0-750.0","0","0","24308","","null","","","null","83","NaN","","","","","","","","","","","","","","",""
"","S2","","html-keyboard-response","530","496082","0.0-1.0-751.0","0","0","24308","","null","","","null","83","","NaN","","","","","","","","","","","","","",""
"","response","","html-keyboard-response","531","496378","0.0-1.0-752.0-0.0","0","0","24308","","288","","","68","83","","","2","83","training","adjacent","DC","4","3","P.jpg","O.jpg","1","0","0","",""
"","feedback","","html-keyboard-response","532","497394","0.0-1.0-753.0-0.0","0","0","24308","","null","","","null","83","","","","","","","","","","","","","","","",""
"","time_out","","html-keyboard-response","533","499409","0.0-1.0-755.0-0.0","0","0","24308","","null","","","null","83","","","","","","","","","","","","","","","",""
"","ITI","","html-keyboard-response","534","500427","0.0-1.0-756.0","0","0","24308","","null","","","null","83","","","","","","","","","","","","","","","NaN",""
"","S1","","html-keyboard-response","535","500689","0.0-1.0-758.0","0","0","24308","","null","","","null","84","","","","","","","","","","","","","","","",""
"","ISI","","html-keyboard-response","536","501712","0.0-1.0-759.0","0","0","24308","","null","","","null","84","NaN","","","","","","","","","","","","","","",""
"","S2","","html-keyboard-response","537","501973","0.0-1.0-760.0","0","0","24308","","null","","","null","84","","NaN","","","","","","","","","","","","","",""
"","response","","html-keyboard-response","538","502136","0.0-1.0-761.0-0.0","0","0","24308","","158","","","68","84","","","2","84","training","adjacent","EF","5","6","R.jpg","Q.jpg","1","1","1","",""
"","feedback","","html-keyboard-response","539","503159","0.0-1.0-762.0-0.0","0","0","24308","","null","","","null","84","","","","","","","","","","","","","","","",""
"","ITI","","html-keyboard-response","540","504175","0.0-1.0-765.0","0","0","24308","","null","","","null","84","","","","","","","","","","","","","","","NaN",""
"","S1","","html-keyboard-response","541","504436","0.0-1.0-767.0","0","0","24308","","null","","","null","85","","","","","","","","","","","","","","","",""
"","ISI","","html-keyboard-response","542","505456","0.0-1.0-768.0","0","0","24308","","null","","","null","85","NaN","","","","","","","","","","","","","","",""
"","S2","","html-keyboard-response","543","505723","0.0-1.0-769.0","0","0","24308","","null","","","null","85","","NaN","","","","","","","","","","","","","",""
"","response","","html-keyboard-response","544","505842","0.0-1.0-770.0-0.0","0","0","24308","","111","","","75","85","","","2","85","training","adjacent","BC","2","3","M.jpg","O.jpg","0","1","0","",""
"","feedback","","html-keyboard-response","545","506853","0.0-1.0-771.0-0.0","0","0","24308","","null","","","null","85","","","","","","","","","","","","","","","",""
"","time_out","","html-keyboard-response","546","508865","0.0-1.0-773.0-0.0","0","0","24308","","null","","","null","85","","","","","","","","","","","","","","","",""
"","ITI","","html-keyboard-response","547","509885","0.0-1.0-774.0","0","0","24308","","null","","","null","85","","","","","","","","","","","","","","","NaN",""
"","S1","","html-keyboard-response","548","510153","0.0-1.0-776.0","0","0","24308","","null","","","null","86","","","","","","","","","","","","","","","",""
"","ISI","","html-keyboard-response","549","511167","0.0-1.0-777.0","0","0","24308","","null","","","null","86","NaN","","","","","","","","","","","","","","",""
"","S2","","html-keyboard-response","550","511434","0.0-1.0-778.0","0","0","24308","","null","","","null","86","","NaN","","","","","","","","","","","","","",""
"","response","","html-keyboard-response","551","511939","0.0-1.0-779.0-0.0","0","0","24308","","503","","","75","86","","","2","86","training","adjacent","CD","3","4","O.jpg","P.jpg","0","1","0","",""
"","feedback","","html-keyboard-response","552","512945","0.0-1.0-780.0-0.0","0","0","24308","","null","","","null","86","","","","","","","","","","","","","","","",""
"","time_out","","html-keyboard-response","553","514964","0.0-1.0-782.0-0.0","0","0","24308","","null","","","null","86","","","","","","","","","","","","","","","",""
"","ITI","","html-keyboard-response","554","515976","0.0-1.0-783.0","0","0","24308","","null","","","null","86","","","","","","","","","","","","","","","NaN",""
"","S1","","html-keyboard-response","555","516247","0.0-1.0-785.0","0","0","24308","","null","","","null","87","","","","","","","","","","","","","","","",""
"","ISI","","html-keyboard-response","556","517261","0.0-1.0-786.0","0","0","24308","","null","","","null","87","NaN","","","","","","","","","","","","","","",""
"","S2","","html-keyboard-response","557","517527","0.0-1.0-787.0","0","0","24308","","null","","","null","87","","NaN","","","","","","","","","","","","","",""
"","response","","html-keyboard-response","558","517586","0.0-1.0-788.0-0.0","0","0","24308","","54","","","75","87","","","2","87","training","adjacent","GF","7","6","N.jpg","Q.jpg","0","0","1","",""
"","feedback","","html-keyboard-response","559","518610","0.0-1.0-789.0-0.0","0","0","24308","","null","","","null","87","","","","","","","","","","","","","","","",""
"","ITI","","html-keyboard-response","560","519625","0.0-1.0-792.0","0","0","24308","","null","","","null","87","","","","","","","","","","","","","","","NaN",""
"","S1","","html-keyboard-response","561","519894","0.0-1.0-794.0","0","0","24308","","null","","","null","88","","","","","","","","","","","","","","","",""
"","ISI","","html-keyboard-response","562","520907","0.0-1.0-795.0","0","0","24308","","null","","","null","88","NaN","","","","","","","","","","","","","","",""
"","S2","","html-keyboard-response","563","521175","0.0-1.0-796.0","0","0","24308","","null","","","null","88","","NaN","","","","","","","","","","","","","",""
"","response","","html-keyboard-response","564","521300","0.0-1.0-797.0-0.0","0","0","24308","","122","","","75","88","","","2","88","training","adjacent","GF","7","6","N.jpg","Q.jpg","0","0","1","",""
"","feedback","","html-keyboard-response","565","522307","0.0-1.0-798.0-0.0","0","0","24308","","null","","","null","88","","","","","","","","","","","","","","","",""
"","ITI","","html-keyboard-response","566","523321","0.0-1.0-801.0","0","0","24308","","null","","","null","88","","","","","","","","","","","","","","","NaN",""
"","S1","","html-keyboard-response","567","523588","0.0-1.0-803.0","0","0","24308","","null","","","null","89","","","","","","","","","","","","","","","",""
"","ISI","","html-keyboard-response","568","524606","0.0-1.0-804.0","0","0","24308","","null","","","null","89","NaN","","","","","","","","","","","","","","",""
"","S2","","html-keyboard-response","569","524861","0.0-1.0-805.0","0","0","24308","","null","","","null","89","","NaN","","","","","","","","","","","","","",""
"","response","","html-keyboard-response","570","525058","0.0-1.0-806.0-0.0","0","0","24308","","193","","","75","89","","","2","89","training","adjacent","DC","4","3","P.jpg","O.jpg","0","0","1","",""
"","feedback","","html-keyboard-response","571","526069","0.0-1.0-807.0-0.0","0","0","24308","","null","","","null","89","","","","","","","","","","","","","","","",""
"","ITI","","html-keyboard-response","572","527084","0.0-1.0-810.0","0","0","24308","","null","","","null","89","","","","","","","","","","","","","","","NaN",""
"","S1","","html-keyboard-response","573","527355","0.0-1.0-812.0","0","0","24308","","null","","","null","90","","","","","","","","","","","","","","","",""
"","ISI","","html-keyboard-response","574","528370","0.0-1.0-813.0","0","0","24308","","null","","","null","90","NaN","","","","","","","","","","","","","","",""
"","S2","","html-keyboard-response","575","528636","0.0-1.0-814.0","0","0","24308","","null","","","null","90","","NaN","","","","","","","","","","","","","",""
"","response","","html-keyboard-response","576","528813","0.0-1.0-815.0-0.0","0","0","24308","","171","","","75","90","","","2","90","training","adjacent","DC","4","3","P.jpg","O.jpg","0","0","1","",""
"","feedback","","html-keyboard-response","577","529833","0.0-1.0-816.0-0.0","0","0","24308","","null","","","null","90","","","","","","","","","","","","","","","",""
"","ITI","","html-keyboard-response","578","530840","0.0-1.0-819.0","0","0","24308","","null","","","null","90","","","","","","","","","","","","","","","NaN",""
