"success","ttype","start_time","trial_type","trial_index","time_elapsed","internal_node_id","warning","missed_checkup","PID","view_history","rt","responses","repeat_instructions","key_press","index","keypress_isi","keypress_S2","block","trial_num","phase","group_type","pair_type","S1_stim","S2_stim","S1_img","S2_img","S1_chosen","S1_higher","accuracy","keypress_iti","total_bonus_tally"
"true","full_screen","d04062023hr1959","fullscreen","0","43922","0.0-0.0","0","0","51927","","","","","","","","","","","","","","","","","","","","","",""
"","instructions","","instructions","1","145793","0.0-1.0-0.0-0.0","0","0","51927","[{""page_index"":0,""viewing_time"":21081},{""page_index"":1,""viewing_time"":54014},{""page_index"":2,""viewing_time"":24355},{""page_index"":3,""viewing_time"":2413}]","101863","","","","","","","","","","","","","","","","","","","",""
"","comprehension_check","","survey-multi-choice","2","203215","0.0-1.0-0.0-1.0","0","0","51927","","57414","{""Q0"":""True"",""Q1"":""K"",""Q2"":""Once the second image appears and while the screen 'MAKE A CHOICE' is shown"",""Q3"":""Green mark"",""Q4"":""either D or K""}","0","","","","","","","","","","","","","","","","","",""
"","start_exp","","html-keyboard-response","3","210541","0.0-1.0-1.0","0","0","51927","","7320","","","32","","","","","","","","","","","","","","","","",""
"","S1","","html-keyboard-response","4","210700","0.0-1.0-2.0","0","0","51927","","null","","","null","0","","","","","","","","","","","","","","","",""
"","ISI","","html-keyboard-response","5","212710","0.0-1.0-3.0","0","0","51927","","null","","","null","0","NaN","","","","","","","","","","","","","","",""
"","S2","","html-keyboard-response","6","212867","0.0-1.0-4.0","0","0","51927","","null","","","null","0","","NaN","","","","","","","","","","","","","",""
"","response","","html-keyboard-response","7","213435","0.0-1.0-5.0-0.0","0","0","51927","","563","","","68","0","","","1","0","training","adjacent","DC","4","3","R.jpg","P.jpg","0","0","1","",""
"","feedback","","html-keyboard-response","8","214444","0.0-1.0-6.0-0.0","0","0","51927","","null","","","null","0","","","","","","","","","","","","","","","",""
"","ITI","","html-keyboard-response","9","215450","0.0-1.0-9.0","0","0","51927","","null","","","null","0","","","","","","","","","","","","","","","NaN",""
"","S1","","html-keyboard-response","10","215610","0.0-1.0-11.0","0","0","51927","","null","","","null","1","","","","","","","","","","","","","","","",""
"","ISI","","html-keyboard-response","11","217618","0.0-1.0-12.0","0","0","51927","","null","","","null","1","NaN","","","","","","","","","","","","","","",""
"","S2","","html-keyboard-response","12","217777","0.0-1.0-13.0","0","0","51927","","null","","","null","1","","NaN","","","","","","","","","","","","","",""
"","response","","html-keyboard-response","13","218464","0.0-1.0-14.0-0.0","0","0","51927","","683","","","75","1","","","1","1","training","adjacent","ED","5","4","Q.jpg","R.jpg","1","0","0","",""
"","feedback","","html-keyboard-response","14","219473","0.0-1.0-15.0-0.0","0","0","51927","","null","","","null","1","","","","","","","","","","","","","","","",""
"","time_out","","html-keyboard-response","15","221482","0.0-1.0-17.0-0.0","0","0","51927","","null","","","null","1","","","","","","","","","","","","","","","",""
"","ITI","","html-keyboard-response","16","222489","0.0-1.0-18.0","0","0","51927","","null","","","null","1","","","","","","","","","","","","","","","NaN",""
"","S1","","html-keyboard-response","17","222647","0.0-1.0-20.0","0","0","51927","","null","","","null","2","","","","","","","","","","","","","","","",""
"","ISI","","html-keyboard-response","18","224655","0.0-1.0-21.0","0","0","51927","","null","","","null","2","NaN","","","","","","","","","","","","","","",""
"","S2","","html-keyboard-response","19","224815","0.0-1.0-22.0","0","0","51927","","null","","","null","2","","NaN","","","","","","","","","","","","","",""
"","response","","html-keyboard-response","20","225235","0.0-1.0-23.0-0.0","0","0","51927","","418","","","68","2","","","1","2","training","adjacent","CB","3","2","P.jpg","N.jpg","0","0","1","",""
"","feedback","","html-keyboard-response","21","226245","0.0-1.0-24.0-0.0","0","0","51927","","null","","","null","2","","","","","","","","","","","","","","","",""
"","ITI","","html-keyboard-response","22","227254","0.0-1.0-27.0","0","0","51927","","null","","","null","2","","","","","","","","","","","","","","","NaN",""
"","S1","","html-keyboard-response","23","227412","0.0-1.0-29.0","0","0","51927","","null","","","null","3","","","","","","","","","","","","","","","",""
"","ISI","","html-keyboard-response","24","229417","0.0-1.0-30.0","0","0","51927","","null","","","null","3","NaN","","","","","","","","","","","","","","",""
"","S2","","html-keyboard-response","25","229576","0.0-1.0-31.0","0","0","51927","","null","","","null","3","","NaN","","","","","","","","","","","","","",""
"","response","","html-keyboard-response","26","230124","0.0-1.0-32.0-0.0","0","0","51927","","544","","","68","3","","","1","3","training","adjacent","ED","5","4","Q.jpg","R.jpg","0","0","1","",""
"","feedback","","html-keyboard-response","27","231129","0.0-1.0-33.0-0.0","0","0","51927","","null","","","null","3","","","","","","","","","","","","","","","",""
"","ITI","","html-keyboard-response","28","232134","0.0-1.0-36.0","0","0","51927","","null","","","null","3","","","","","","","","","","","","","","","NaN",""
"","S1","","html-keyboard-response","29","232292","0.0-1.0-38.0","0","0","51927","","null","","","null","4","","","","","","","","","","","","","","","",""
"","ISI","","html-keyboard-response","30","234301","0.0-1.0-39.0","0","0","51927","","null","","","null","4","NaN","","","","","","","","","","","","","","",""
"","S2","","html-keyboard-response","31","234459","0.0-1.0-40.0","0","0","51927","","null","","","null","4","","NaN","","","","","","","","","","","","","",""
"","response","","html-keyboard-response","32","234993","0.0-1.0-41.0-0.0","0","0","51927","","529","","","75","4","","","1","4","training","adjacent","BC","2","3","N.jpg","P.jpg","1","1","1","",""
"","feedback","","html-keyboard-response","33","236003","0.0-1.0-42.0-0.0","0","0","51927","","null","","","null","4","","","","","","","","","","","","","","","",""
"","ITI","","html-keyboard-response","34","237011","0.0-1.0-45.0","0","0","51927","","null","","","null","4","","","","","","","","","","","","","","","NaN",""
"","S1","","html-keyboard-response","35","237167","0.0-1.0-47.0","0","0","51927","","null","","","null","5","","","","","","","","","","","","","","","",""
"","ISI","","html-keyboard-response","36","239176","0.0-1.0-48.0","0","0","51927","","null","","","null","5","NaN","","","","","","","","","","","","","","",""
"","S2","","html-keyboard-response","37","239335","0.0-1.0-49.0","0","0","51927","","null","","","null","5","","NaN","","","","","","","","","","","","","",""
"","response","","html-keyboard-response","38","239732","0.0-1.0-50.0-0.0","0","0","51927","","393","","","68","5","","","1","5","training","adjacent","CD","3","4","P.jpg","R.jpg","0","1","0","",""
"","feedback","","html-keyboard-response","39","240740","0.0-1.0-51.0-0.0","0","0","51927","","null","","","null","5","","","","","","","","","","","","","","","",""
"","time_out","","html-keyboard-response","40","242750","0.0-1.0-53.0-0.0","0","0","51927","","null","","","null","5","","","","","","","","","","","","","","","",""
"","ITI","","html-keyboard-response","41","243755","0.0-1.0-54.0","0","0","51927","","null","","","null","5","","","","","","","","","","","","","","","NaN",""
"","S1","","html-keyboard-response","42","243915","0.0-1.0-56.0","0","0","51927","","null","","","null","6","","","","","","","","","","","","","","","",""
"","ISI","","html-keyboard-response","43","245923","0.0-1.0-57.0","0","0","51927","","null","","","null","6","NaN","","","","","","","","","","","","","","",""
"","S2","","html-keyboard-response","44","246082","0.0-1.0-58.0","0","0","51927","","null","","","null","6","","NaN","","","","","","","","","","","","","",""
"","response","","html-keyboard-response","45","246336","0.0-1.0-59.0-0.0","0","0","51927","","250","","","68","6","","","1","6","training","adjacent","CD","3","4","P.jpg","R.jpg","0","1","0","",""
"","feedback","","html-keyboard-response","46","247342","0.0-1.0-60.0-0.0","0","0","51927","","null","","","null","6","","","","","","","","","","","","","","","",""
"","time_out","","html-keyboard-response","47","249348","0.0-1.0-62.0-0.0","0","0","51927","","null","","","null","6","","","","","","","","","","","","","","","",""
"","ITI","","html-keyboard-response","48","250355","0.0-1.0-63.0","0","0","51927","","null","","","null","6","","","","","","","","","","","","","","","NaN",""
"","S1","","html-keyboard-response","49","250513","0.0-1.0-65.0","0","0","51927","","null","","","null","7","","","","","","","","","","","","","","","",""
"","ISI","","html-keyboard-response","50","252522","0.0-1.0-66.0","0","0","51927","","null","","","null","7","NaN","","","","","","","","","","","","","","",""
"","S2","","html-keyboard-response","51","252681","0.0-1.0-67.0","0","0","51927","","null","","","null","7","","NaN","","","","","","","","","","","","","",""
"","response","","html-keyboard-response","52","253081","0.0-1.0-68.0-0.0","0","0","51927","","397","","","68","7","","","1","7","training","adjacent","FG","6","7","L.jpg","M.jpg","0","1","0","",""
"","feedback","","html-keyboard-response","53","254090","0.0-1.0-69.0-0.0","0","0","51927","","null","","","null","7","","","","","","","","","","","","","","","",""
"","time_out","","html-keyboard-response","54","256099","0.0-1.0-71.0-0.0","0","0","51927","","null","","","null","7","","","","","","","","","","","","","","","",""
"","ITI","","html-keyboard-response","55","257106","0.0-1.0-72.0","0","0","51927","","null","","","null","7","","","","","","","","","","","","","","","NaN",""
"","S1","","html-keyboard-response","56","257265","0.0-1.0-74.0","0","0","51927","","null","","","null","8","","","","","","","","","","","","","","","",""
"","ISI","","html-keyboard-response","57","259273","0.0-1.0-75.0","0","0","51927","","null","","","null","8","NaN","","","","","","","","","","","","","","",""
"","S2","","html-keyboard-response","58","259430","0.0-1.0-76.0","0","0","51927","","null","","","null","8","","NaN","","","","","","","","","","","","","",""
"","response","","html-keyboard-response","59","259900","0.0-1.0-77.0-0.0","0","0","51927","","466","","","75","8","","","1","8","training","adjacent","DE","4","5","R.jpg","Q.jpg","1","1","1","",""
"","feedback","","html-keyboard-response","60","260910","0.0-1.0-78.0-0.0","0","0","51927","","null","","","null","8","","","","","","","","","","","","","","","",""
"","ITI","","html-keyboard-response","61","261918","0.0-1.0-81.0","0","0","51927","","null","","","null","8","","","","","","","","","","","","","","","NaN",""
"","S1","","html-keyboard-response","62","262077","0.0-1.0-83.0","0","0","51927","","null","","","null","9","","","","","","","","","","","","","","","",""
"","ISI","","html-keyboard-response","63","264086","0.0-1.0-84.0","0","0","51927","","null","","","null","9","NaN","","","","","","","","","","","","","","",""
"","S2","","html-keyboard-response","64","264244","0.0-1.0-85.0","0","0","51927","","null","","","null","9","","NaN","","","","","","","","","","","","","",""
"","response","","html-keyboard-response","65","264495","0.0-1.0-86.0-0.0","0","0","51927","","247","","","75","9","","","1","9","training","adjacent","FE","6","5","L.jpg","Q.jpg","1","0","0","",""
"","feedback","","html-keyboard-response","66","265504","0.0-1.0-87.0-0.0","0","0","51927","","null","","","null","9","","","","","","","","","","","","","","","",""
"","time_out","","html-keyboard-response","67","267512","0.0-1.0-89.0-0.0","0","0","51927","","null","","","null","9","","","","","","","","","","","","","","","",""
"","ITI","","html-keyboard-response","68","268519","0.0-1.0-90.0","0","0","51927","","null","","","null","9","","","","","","","","","","","","","","","NaN",""
"","S1","","html-keyboard-response","69","268678","0.0-1.0-92.0","0","0","51927","","null","","","null","10","","","","","","","","","","","","","","","",""
"","ISI","","html-keyboard-response","70","270687","0.0-1.0-93.0","0","0","51927","","null","","","null","10","NaN","","","","","","","","","","","","","","",""
"","S2","","html-keyboard-response","71","270842","0.0-1.0-94.0","0","0","51927","","null","","","null","10","","NaN","","","","","","","","","","","","","",""
"","response","","html-keyboard-response","72","271128","0.0-1.0-95.0-0.0","0","0","51927","","281","","","68","10","","","1","10","training","adjacent","CB","3","2","P.jpg","N.jpg","0","0","1","",""
"","feedback","","html-keyboard-response","73","272132","0.0-1.0-96.0-0.0","0","0","51927","","null","","","null","10","","","","","","","","","","","","","","","",""
"","ITI","","html-keyboard-response","74","273137","0.0-1.0-99.0","0","0","51927","","null","","","null","10","","","","","","","","","","","","","","","NaN",""
"","S1","","html-keyboard-response","75","273294","0.0-1.0-101.0","0","0","51927","","null","","","null","11","","","","","","","","","","","","","","","",""
"","ISI","","html-keyboard-response","76","275303","0.0-1.0-102.0","0","0","51927","","null","","","null","11","NaN","","","","","","","","","","","","","","",""
"","S2","","html-keyboard-response","77","275461","0.0-1.0-103.0","0","0","51927","","null","","","null","11","","NaN","","","","","","","","","","","","","",""
"","response","","html-keyboard-response","78","276067","0.0-1.0-104.0-0.0","0","0","51927","","602","","","68","11","","","1","11","training","adjacent","DC","4","3","R.jpg","P.jpg","0","0","1","",""
"","feedback","","html-keyboard-response","79","277072","0.0-1.0-105.0-0.0","0","0","51927","","null","","","null","11","","","","","","","","","","","","","","","",""
"","ITI","","html-keyboard-response","80","278077","0.0-1.0-108.0","0","0","51927","","null","","","null","11","","","","","","","","","","","","","","","NaN",""
"","S1","","html-keyboard-response","81","278236","0.0-1.0-110.0","0","0","51927","","null","","","null","12","","","","","","","","","","","","","","","",""
"","ISI","","html-keyboard-response","82","280244","0.0-1.0-111.0","0","0","51927","","null","","","null","12","NaN","","","","","","","","","","","","","","",""
"","S2","","html-keyboard-response","83","280402","0.0-1.0-112.0","0","0","51927","","null","","","null","12","","NaN","","","","","","","","","","","","","",""
"","response","","html-keyboard-response","84","280932","0.0-1.0-113.0-0.0","0","0","51927","","527","","","75","12","","","1","12","training","adjacent","FG","6","7","L.jpg","M.jpg","1","1","1","",""
"","feedback","","html-keyboard-response","85","281937","0.0-1.0-114.0-0.0","0","0","51927","","null","","","null","12","","","","","","","","","","","","","","","",""
"","ITI","","html-keyboard-response","86","282941","0.0-1.0-117.0","0","0","51927","","null","","","null","12","","","","","","","","","","","","","","","NaN",""
"","S1","","html-keyboard-response","87","283100","0.0-1.0-119.0","0","0","51927","","null","","","null","13","","","","","","","","","","","","","","","",""
"","ISI","","html-keyboard-response","88","285109","0.0-1.0-120.0","0","0","51927","","null","","","null","13","NaN","","","","","","","","","","","","","","",""
"","S2","","html-keyboard-response","89","285267","0.0-1.0-121.0","0","0","51927","","null","","","null","13","","NaN","","","","","","","","","","","","","",""
"","response","","html-keyboard-response","90","285777","0.0-1.0-122.0-0.0","0","0","51927","","507","","","68","13","","","1","13","training","adjacent","CD","3","4","P.jpg","R.jpg","0","1","0","",""
"","feedback","","html-keyboard-response","91","286786","0.0-1.0-123.0-0.0","0","0","51927","","null","","","null","13","","","","","","","","","","","","","","","",""
"","time_out","","html-keyboard-response","92","288793","0.0-1.0-125.0-0.0","0","0","51927","","null","","","null","13","","","","","","","","","","","","","","","",""
"","ITI","","html-keyboard-response","93","289801","0.0-1.0-126.0","0","0","51927","","null","","","null","13","","","","","","","","","","","","","","","NaN",""
"","S1","","html-keyboard-response","94","289960","0.0-1.0-128.0","0","0","51927","","null","","","null","14","","","","","","","","","","","","","","","",""
"","ISI","","html-keyboard-response","95","291968","0.0-1.0-129.0","0","0","51927","","null","","","null","14","NaN","","","","","","","","","","","","","","",""
"","S2","","html-keyboard-response","96","292125","0.0-1.0-130.0","0","0","51927","","null","","","null","14","","NaN","","","","","","","","","","","","","",""
"","response","","html-keyboard-response","97","292644","0.0-1.0-131.0-0.0","0","0","51927","","515","","","75","14","","","1","14","training","adjacent","FE","6","5","L.jpg","Q.jpg","1","0","0","",""
"","feedback","","html-keyboard-response","98","293653","0.0-1.0-132.0-0.0","0","0","51927","","null","","","null","14","","","","","","","","","","","","","","","",""
"","time_out","","html-keyboard-response","99","295661","0.0-1.0-134.0-0.0","0","0","51927","","null","","","null","14","","","","","","","","","","","","","","","",""
"","ITI","","html-keyboard-response","100","296668","0.0-1.0-135.0","0","0","51927","","null","","","null","14","","","","","","","","","","","","","","","NaN",""
"","S1","","html-keyboard-response","101","296827","0.0-1.0-137.0","0","0","51927","","null","","","null","15","","","","","","","","","","","","","","","",""
"","ISI","","html-keyboard-response","102","298836","0.0-1.0-138.0","0","0","51927","","null","","","null","15","NaN","","","","","","","","","","","","","","",""
"","S2","","html-keyboard-response","103","298993","0.0-1.0-139.0","0","0","51927","","null","","","null","15","","NaN","","","","","","","","","","","","","",""
"","response","","html-keyboard-response","104","299447","0.0-1.0-140.0-0.0","0","0","51927","","450","","","68","15","","","1","15","training","adjacent","FE","6","5","L.jpg","Q.jpg","0","0","1","",""
"","feedback","","html-keyboard-response","105","300455","0.0-1.0-141.0-0.0","0","0","51927","","null","","","null","15","","","","","","","","","","","","","","","",""
"","ITI","","html-keyboard-response","106","301462","0.0-1.0-144.0","0","0","51927","","null","","","null","15","","","","","","","","","","","","","","","NaN",""
"","S1","","html-keyboard-response","107","301621","0.0-1.0-146.0","0","0","51927","","null","","","null","16","","","","","","","","","","","","","","","",""
"","ISI","","html-keyboard-response","108","303630","0.0-1.0-147.0","0","0","51927","","null","","","null","16","NaN","","","","","","","","","","","","","","",""
"","S2","","html-keyboard-response","109","303789","0.0-1.0-148.0","0","0","51927","","null","","","null","16","","NaN","","","","","","","","","","","","","",""
"","response","","html-keyboard-response","110","304137","0.0-1.0-149.0-0.0","0","0","51927","","344","","","75","16","","","1","16","training","adjacent","ED","5","4","Q.jpg","R.jpg","1","0","0","",""
"","feedback","","html-keyboard-response","111","305140","0.0-1.0-150.0-0.0","0","0","51927","","null","","","null","16","","","","","","","","","","","","","","","",""
"","time_out","","html-keyboard-response","112","307149","0.0-1.0-152.0-0.0","0","0","51927","","null","","","null","16","","","","","","","","","","","","","","","",""
"","ITI","","html-keyboard-response","113","308155","0.0-1.0-153.0","0","0","51927","","null","","","null","16","","","","","","","","","","","","","","","NaN",""
"","S1","","html-keyboard-response","114","308314","0.0-1.0-155.0","0","0","51927","","null","","","null","17","","","","","","","","","","","","","","","",""
"","ISI","","html-keyboard-response","115","310323","0.0-1.0-156.0","0","0","51927","","null","","","null","17","NaN","","","","","","","","","","","","","","",""
"","S2","","html-keyboard-response","116","310482","0.0-1.0-157.0","0","0","51927","","null","","","null","17","","NaN","","","","","","","","","","","","","",""
"","response","","html-keyboard-response","117","310798","0.0-1.0-158.0-0.0","0","0","51927","","312","","","68","17","","","1","17","training","adjacent","FE","6","5","L.jpg","Q.jpg","0","0","1","",""
"","feedback","","html-keyboard-response","118","311807","0.0-1.0-159.0-0.0","0","0","51927","","null","","","null","17","","","","","","","","","","","","","","","",""
"","ITI","","html-keyboard-response","119","312815","0.0-1.0-162.0","0","0","51927","","null","","","null","17","","","","","","","","","","","","","","","NaN",""
"","S1","","html-keyboard-response","120","312971","0.0-1.0-164.0","0","0","51927","","null","","","null","18","","","","","","","","","","","","","","","",""
"","ISI","","html-keyboard-response","121","314975","0.0-1.0-165.0","0","0","51927","","null","","","null","18","NaN","","","","","","","","","","","","","","",""
"","S2","","html-keyboard-response","122","315134","0.0-1.0-166.0","0","0","51927","","null","","","null","18","","NaN","","","","","","","","","","","","","",""
"","response","","html-keyboard-response","123","315903","0.0-1.0-167.0-0.0","0","0","51927","","765","","","68","18","","","1","18","training","adjacent","BC","2","3","N.jpg","P.jpg","0","1","0","",""
"","feedback","","html-keyboard-response","124","316912","0.0-1.0-168.0-0.0","0","0","51927","","null","","","null","18","","","","","","","","","","","","","","","",""
"","time_out","","html-keyboard-response","125","318920","0.0-1.0-170.0-0.0","0","0","51927","","null","","","null","18","","","","","","","","","","","","","","","",""
"","ITI","","html-keyboard-response","126","319926","0.0-1.0-171.0","0","0","51927","","null","","","null","18","","","","","","","","","","","","","","","NaN",""
"","S1","","html-keyboard-response","127","320085","0.0-1.0-173.0","0","0","51927","","null","","","null","19","","","","","","","","","","","","","","","",""
"","ISI","","html-keyboard-response","128","322091","0.0-1.0-174.0","0","0","51927","","null","","","null","19","NaN","","","","","","","","","","","","","","",""
"","S2","","html-keyboard-response","129","322244","0.0-1.0-175.0","0","0","51927","","null","","","null","19","","NaN","","","","","","","","","","","","","",""
"","response","","html-keyboard-response","130","322503","0.0-1.0-176.0-0.0","0","0","51927","","255","","","75","19","","","1","19","training","adjacent","BA","2","1","N.jpg","O.jpg","1","0","0","",""
"","feedback","","html-keyboard-response","131","323512","0.0-1.0-177.0-0.0","0","0","51927","","null","","","null","19","","","","","","","","","","","","","","","",""
"","time_out","","html-keyboard-response","132","325521","0.0-1.0-179.0-0.0","0","0","51927","","null","","","null","19","","","","","","","","","","","","","","","",""
"","ITI","","html-keyboard-response","133","326527","0.0-1.0-180.0","0","0","51927","","null","","","null","19","","","","","","","","","","","","","","","NaN",""
"","S1","","html-keyboard-response","134","326686","0.0-1.0-182.0","0","0","51927","","null","","","null","20","","","","","","","","","","","","","","","",""
"","ISI","","html-keyboard-response","135","328694","0.0-1.0-183.0","0","0","51927","","null","","","null","20","NaN","","","","","","","","","","","","","","",""
"","S2","","html-keyboard-response","136","328852","0.0-1.0-184.0","0","0","51927","","null","","","null","20","","NaN","","","","","","","","","","","","","",""
"","response","","html-keyboard-response","137","329468","0.0-1.0-185.0-0.0","0","0","51927","","611","","","68","20","","","1","20","training","adjacent","AB","1","2","O.jpg","N.jpg","0","1","0","",""
"","feedback","","html-keyboard-response","138","330472","0.0-1.0-186.0-0.0","0","0","51927","","null","","","null","20","","","","","","","","","","","","","","","",""
"","time_out","","html-keyboard-response","139","332481","0.0-1.0-188.0-0.0","0","0","51927","","null","","","null","20","","","","","","","","","","","","","","","",""
"","ITI","","html-keyboard-response","140","333488","0.0-1.0-189.0","0","0","51927","","null","","","null","20","","","","","","","","","","","","","","","NaN",""
"","S1","","html-keyboard-response","141","333641","0.0-1.0-191.0","0","0","51927","","null","","","null","21","","","","","","","","","","","","","","","",""
"","ISI","","html-keyboard-response","142","335649","0.0-1.0-192.0","0","0","51927","","null","","","null","21","NaN","","","","","","","","","","","","","","",""
"","S2","","html-keyboard-response","143","335806","0.0-1.0-193.0","0","0","51927","","null","","","null","21","","NaN","","","","","","","","","","","","","",""
"","response","","html-keyboard-response","144","336275","0.0-1.0-194.0-0.0","0","0","51927","","465","","","68","21","","","1","21","training","adjacent","DE","4","5","R.jpg","Q.jpg","0","1","0","",""
"","feedback","","html-keyboard-response","145","337284","0.0-1.0-195.0-0.0","0","0","51927","","null","","","null","21","","","","","","","","","","","","","","","",""
"","time_out","","html-keyboard-response","146","339287","0.0-1.0-197.0-0.0","0","0","51927","","null","","","null","21","","","","","","","","","","","","","","","",""
"","ITI","","html-keyboard-response","147","340293","0.0-1.0-198.0","0","0","51927","","null","","","null","21","","","","","","","","","","","","","","","NaN",""
"","S1","","html-keyboard-response","148","340449","0.0-1.0-200.0","0","0","51927","","null","","","null","22","","","","","","","","","","","","","","","",""
"","ISI","","html-keyboard-response","149","342457","0.0-1.0-201.0","0","0","51927","","null","","","null","22","NaN","","","","","","","","","","","","","","",""
"","S2","","html-keyboard-response","150","342616","0.0-1.0-202.0","0","0","51927","","null","","","null","22","","NaN","","","","","","","","","","","","","",""
"","response","","html-keyboard-response","151","342876","0.0-1.0-203.0-0.0","0","0","51927","","257","","","75","22","","","1","22","training","adjacent","ED","5","4","Q.jpg","R.jpg","1","0","0","",""
"","feedback","","html-keyboard-response","152","343885","0.0-1.0-204.0-0.0","0","0","51927","","null","","","null","22","","","","","","","","","","","","","","","",""
"","time_out","","html-keyboard-response","153","345894","0.0-1.0-206.0-0.0","0","0","51927","","null","","","null","22","","","","","","","","","","","","","","","",""
"","ITI","","html-keyboard-response","154","346900","0.0-1.0-207.0","0","0","51927","","null","","","null","22","","","","","","","","","","","","","","","NaN",""
"","S1","","html-keyboard-response","155","347057","0.0-1.0-209.0","0","0","51927","","null","","","null","23","","","","","","","","","","","","","","","",""
"","ISI","","html-keyboard-response","156","349062","0.0-1.0-210.0","0","0","51927","","null","","","null","23","NaN","","","","","","","","","","","","","","",""
"","S2","","html-keyboard-response","157","349218","0.0-1.0-211.0","0","0","51927","","null","","","null","23","","NaN","","","","","","","","","","","","","",""
"","response","","html-keyboard-response","158","349398","0.0-1.0-212.0-0.0","0","0","51927","","177","","","75","23","","","1","23","training","adjacent","FG","6","7","L.jpg","M.jpg","1","1","1","",""
"","feedback","","html-keyboard-response","159","350408","0.0-1.0-213.0-0.0","0","0","51927","","null","","","null","23","","","","","","","","","","","","","","","",""
"","ITI","","html-keyboard-response","160","351417","0.0-1.0-216.0","0","0","51927","","null","","","null","23","","","","","","","","","","","","","","","NaN",""
"","S1","","html-keyboard-response","161","351575","0.0-1.0-218.0","0","0","51927","","null","","","null","24","","","","","","","","","","","","","","","",""
"","ISI","","html-keyboard-response","162","353583","0.0-1.0-219.0","0","0","51927","","null","","","null","24","NaN","","","","","","","","","","","","","","",""
"","S2","","html-keyboard-response","163","353741","0.0-1.0-220.0","0","0","51927","","null","","","null","24","","NaN","","","","","","","","","","","","","",""
"","response","","html-keyboard-response","164","353943","0.0-1.0-221.0-0.0","0","0","51927","","198","","","68","24","","","1","24","training","adjacent","GF","7","6","M.jpg","L.jpg","0","0","1","",""
"","feedback","","html-keyboard-response","165","354947","0.0-1.0-222.0-0.0","0","0","51927","","null","","","null","24","","","","","","","","","","","","","","","",""
"","ITI","","html-keyboard-response","166","355952","0.0-1.0-225.0","0","0","51927","","null","","","null","24","","","","","","","","","","","","","","","NaN",""
"","S1","","html-keyboard-response","167","356112","0.0-1.0-227.0","0","0","51927","","null","","","null","25","","","","","","","","","","","","","","","",""
"","ISI","","html-keyboard-response","168","358120","0.0-1.0-228.0","0","0","51927","","null","","","null","25","NaN","","","","","","","","","","","","","","",""
"","S2","","html-keyboard-response","169","358278","0.0-1.0-229.0","0","0","51927","","null","","","null","25","","NaN","","","","","","","","","","","","","",""
"","response","","html-keyboard-response","170","358534","0.0-1.0-230.0-0.0","0","0","51927","","252","","","68","25","","","1","25","training","adjacent","DC","4","3","R.jpg","P.jpg","0","0","1","",""
"","feedback","","html-keyboard-response","171","359538","0.0-1.0-231.0-0.0","0","0","51927","","null","","","null","25","","","","","","","","","","","","","","","",""
"","ITI","","html-keyboard-response","172","360546","0.0-1.0-234.0","0","0","51927","","null","","","null","25","","","","","","","","","","","","","","","NaN",""
"","S1","","html-keyboard-response","173","360704","0.0-1.0-236.0","0","0","51927","","null","","","null","26","","","","","","","","","","","","","","","",""
"","ISI","","html-keyboard-response","174","362712","0.0-1.0-237.0","0","0","51927","","null","","","null","26","NaN","","","","","","","","","","","","","","",""
"","S2","","html-keyboard-response","175","362872","0.0-1.0-238.0","0","0","51927","","null","","","null","26","","NaN","","","","","","","","","","","","","",""
"","response","","html-keyboard-response","176","363057","0.0-1.0-239.0-0.0","0","0","51927","","182","","","75","26","","","1","26","training","adjacent","AB","1","2","O.jpg","N.jpg","1","1","1","",""
"","feedback","","html-keyboard-response","177","364066","0.0-1.0-240.0-0.0","0","0","51927","","null","","","null","26","","","","","","","","","","","","","","","",""
"","ITI","","html-keyboard-response","178","365075","0.0-1.0-243.0","0","0","51927","","null","","","null","26","","","","","","","","","","","","","","","NaN",""
"","S1","","html-keyboard-response","179","365234","0.0-1.0-245.0","0","0","51927","","null","","","null","27","","","","","","","","","","","","","","","",""
"","ISI","","html-keyboard-response","180","367243","0.0-1.0-246.0","0","0","51927","","null","","","null","27","NaN","","","","","","","","","","","","","","",""
"","S2","","html-keyboard-response","181","367399","0.0-1.0-247.0","0","0","51927","","null","","","null","27","","NaN","","","","","","","","","","","","","",""
"","response","","html-keyboard-response","182","367592","0.0-1.0-248.0-0.0","0","0","51927","","189","","","75","27","","","1","27","training","adjacent","BA","2","1","N.jpg","O.jpg","1","0","0","",""
"","feedback","","html-keyboard-response","183","368601","0.0-1.0-249.0-0.0","0","0","51927","","null","","","null","27","","","","","","","","","","","","","","","",""
"","time_out","","html-keyboard-response","184","370610","0.0-1.0-251.0-0.0","0","0","51927","","null","","","null","27","","","","","","","","","","","","","","","",""
"","ITI","","html-keyboard-response","185","371616","0.0-1.0-252.0","0","0","51927","","null","","","null","27","","","","","","","","","","","","","","","NaN",""
"","S1","","html-keyboard-response","186","371775","0.0-1.0-254.0","0","0","51927","","null","","","null","28","","","","","","","","","","","","","","","",""
"","ISI","","html-keyboard-response","187","373781","0.0-1.0-255.0","0","0","51927","","606","","","68","28","d","","","","","","","","","","","","","","",""
"","S2","","html-keyboard-response","188","373936","0.0-1.0-256.0","0","0","51927","","null","","","null","28","","NaN","","","","","","","","","","","","","",""
"","response","","html-keyboard-response","189","374894","0.0-1.0-257.0-0.0","0","0","51927","","953","","","68","28","","","1","28","training","adjacent","EF","5","6","Q.jpg","L.jpg","0","1","0","",""
"","feedback","","html-keyboard-response","190","375898","0.0-1.0-258.0-0.0","0","0","51927","","null","","","null","28","","","","","","","","","","","","","","","",""
"","time_out","","html-keyboard-response","191","377908","0.0-1.0-260.0-0.0","0","0","51927","","null","","","null","28","","","","","","","","","","","","","","","",""
"","ITI","","html-keyboard-response","192","378915","0.0-1.0-261.0","0","0","51927","","null","","","null","28","","","","","","","","","","","","","","","NaN",""
"","S1","","html-keyboard-response","193","379072","0.0-1.0-263.0","0","0","51927","","null","","","null","29","","","","","","","","","","","","","","","",""
"","ISI","","html-keyboard-response","194","381081","0.0-1.0-264.0","0","0","51927","","null","","","null","29","NaN","","","","","","","","","","","","","","",""
"","S2","","html-keyboard-response","195","381239","0.0-1.0-265.0","0","0","51927","","null","","","null","29","","NaN","","","","","","","","","","","","","",""
"","response","","html-keyboard-response","196","381745","0.0-1.0-266.0-0.0","0","0","51927","","502","","","75","29","","","1","29","training","adjacent","CB","3","2","P.jpg","N.jpg","1","0","0","",""
"","feedback","","html-keyboard-response","197","382754","0.0-1.0-267.0-0.0","0","0","51927","","null","","","null","29","","","","","","","","","","","","","","","",""
"","time_out","","html-keyboard-response","198","384762","0.0-1.0-269.0-0.0","0","0","51927","","null","","","null","29","","","","","","","","","","","","","","","",""
"","ITI","","html-keyboard-response","199","385769","0.0-1.0-270.0","0","0","51927","","null","","","null","29","","","","","","","","","","","","","","","NaN",""
"","S1","","html-keyboard-response","200","385927","0.0-1.0-272.0","0","0","51927","","null","","","null","30","","","","","","","","","","","","","","","",""
"","ISI","","html-keyboard-response","201","387930","0.0-1.0-273.0","0","0","51927","","null","","","null","30","NaN","","","","","","","","","","","","","","",""
"","S2","","html-keyboard-response","202","388088","0.0-1.0-274.0","0","0","51927","","null","","","null","30","","NaN","","","","","","","","","","","","","",""
"","response","","html-keyboard-response","203","388460","0.0-1.0-275.0-0.0","0","0","51927","","369","","","68","30","","","1","30","training","adjacent","EF","5","6","Q.jpg","L.jpg","0","1","0","",""
"","feedback","","html-keyboard-response","204","389464","0.0-1.0-276.0-0.0","0","0","51927","","null","","","null","30","","","","","","","","","","","","","","","",""
"","time_out","","html-keyboard-response","205","391473","0.0-1.0-278.0-0.0","0","0","51927","","null","","","null","30","","","","","","","","","","","","","","","",""
"","ITI","","html-keyboard-response","206","392479","0.0-1.0-279.0","0","0","51927","","null","","","null","30","","","","","","","","","","","","","","","NaN",""
"","S1","","html-keyboard-response","207","392638","0.0-1.0-281.0","0","0","51927","","null","","","null","31","","","","","","","","","","","","","","","",""
"","ISI","","html-keyboard-response","208","394647","0.0-1.0-282.0","0","0","51927","","null","","","null","31","NaN","","","","","","","","","","","","","","",""
"","S2","","html-keyboard-response","209","394805","0.0-1.0-283.0","0","0","51927","","null","","","null","31","","NaN","","","","","","","","","","","","","",""
"","response","","html-keyboard-response","210","395352","0.0-1.0-284.0-0.0","0","0","51927","","543","","","75","31","","","1","31","training","adjacent","EF","5","6","Q.jpg","L.jpg","1","1","1","",""
"","feedback","","html-keyboard-response","211","396356","0.0-1.0-285.0-0.0","0","0","51927","","null","","","null","31","","","","","","","","","","","","","","","",""
"","ITI","","html-keyboard-response","212","397365","0.0-1.0-288.0","0","0","51927","","null","","","null","31","","","","","","","","","","","","","","","NaN",""
"","S1","","html-keyboard-response","213","397524","0.0-1.0-290.0","0","0","51927","","null","","","null","32","","","","","","","","","","","","","","","",""
"","ISI","","html-keyboard-response","214","399532","0.0-1.0-291.0","0","0","51927","","null","","","null","32","NaN","","","","","","","","","","","","","","",""
"","S2","","html-keyboard-response","215","399690","0.0-1.0-292.0","0","0","51927","","null","","","null","32","","NaN","","","","","","","","","","","","","",""
"","response","","html-keyboard-response","216","400240","0.0-1.0-293.0-0.0","0","0","51927","","547","","","75","32","","","1","32","training","adjacent","AB","1","2","O.jpg","N.jpg","1","1","1","",""
"","feedback","","html-keyboard-response","217","401249","0.0-1.0-294.0-0.0","0","0","51927","","null","","","null","32","","","","","","","","","","","","","","","",""
"","ITI","","html-keyboard-response","218","402256","0.0-1.0-297.0","0","0","51927","","null","","","null","32","","","","","","","","","","","","","","","NaN",""
"","S1","","html-keyboard-response","219","402413","0.0-1.0-299.0","0","0","51927","","null","","","null","33","","","","","","","","","","","","","","","",""
"","ISI","","html-keyboard-response","220","404421","0.0-1.0-300.0","0","0","51927","","null","","","null","33","NaN","","","","","","","","","","","","","","",""
"","S2","","html-keyboard-response","221","404580","0.0-1.0-301.0","0","0","51927","","null","","","null","33","","NaN","","","","","","","","","","","","","",""
"","response","","html-keyboard-response","222","404870","0.0-1.0-302.0-0.0","0","0","51927","","286","","","68","33","","","1","33","training","adjacent","DE","4","5","R.jpg","Q.jpg","0","1","0","",""
"","feedback","","html-keyboard-response","223","405874","0.0-1.0-303.0-0.0","0","0","51927","","null","","","null","33","","","","","","","","","","","","","","","",""
"","time_out","","html-keyboard-response","224","407883","0.0-1.0-305.0-0.0","0","0","51927","","null","","","null","33","","","","","","","","","","","","","","","",""
"","ITI","","html-keyboard-response","225","408889","0.0-1.0-306.0","0","0","51927","","null","","","null","33","","","","","","","","","","","","","","","NaN",""
"","S1","","html-keyboard-response","226","409048","0.0-1.0-308.0","0","0","51927","","null","","","null","34","","","","","","","","","","","","","","","",""
"","ISI","","html-keyboard-response","227","411056","0.0-1.0-309.0","0","0","51927","","null","","","null","34","NaN","","","","","","","","","","","","","","",""
"","S2","","html-keyboard-response","228","411214","0.0-1.0-310.0","0","0","51927","","null","","","null","34","","NaN","","","","","","","","","","","","","",""
"","response","","html-keyboard-response","229","411842","0.0-1.0-311.0-0.0","0","0","51927","","624","","","75","34","","","1","34","training","adjacent","BA","2","1","N.jpg","O.jpg","1","0","0","",""
"","feedback","","html-keyboard-response","230","412851","0.0-1.0-312.0-0.0","0","0","51927","","null","","","null","34","","","","","","","","","","","","","","","",""
"","time_out","","html-keyboard-response","231","414860","0.0-1.0-314.0-0.0","0","0","51927","","null","","","null","34","","","","","","","","","","","","","","","",""
"","ITI","","html-keyboard-response","232","415866","0.0-1.0-315.0","0","0","51927","","null","","","null","34","","","","","","","","","","","","","","","NaN",""
"","S1","","html-keyboard-response","233","416025","0.0-1.0-317.0","0","0","51927","","null","","","null","35","","","","","","","","","","","","","","","",""
"","ISI","","html-keyboard-response","234","418032","0.0-1.0-318.0","0","0","51927","","null","","","null","35","NaN","","","","","","","","","","","","","","",""
"","S2","","html-keyboard-response","235","418188","0.0-1.0-319.0","0","0","51927","","null","","","null","35","","NaN","","","","","","","","","","","","","",""
"","response","","html-keyboard-response","236","418410","0.0-1.0-320.0-0.0","0","0","51927","","218","","","68","35","","","1","35","training","adjacent","BC","2","3","N.jpg","P.jpg","0","1","0","",""
"","feedback","","html-keyboard-response","237","419419","0.0-1.0-321.0-0.0","0","0","51927","","null","","","null","35","","","","","","","","","","","","","","","",""
"","time_out","","html-keyboard-response","238","421423","0.0-1.0-323.0-0.0","0","0","51927","","null","","","null","35","","","","","","","","","","","","","","","",""
"","ITI","","html-keyboard-response","239","422430","0.0-1.0-324.0","0","0","51927","","null","","","null","35","","","","","","","","","","","","","","","NaN",""
"","S1","","html-keyboard-response","240","422587","0.0-1.0-326.0","0","0","51927","","null","","","null","36","","","","","","","","","","","","","","","",""
"","ISI","","html-keyboard-response","241","424595","0.0-1.0-327.0","0","0","51927","","null","","","null","36","NaN","","","","","","","","","","","","","","",""
"","S2","","html-keyboard-response","242","424754","0.0-1.0-328.0","0","0","51927","","null","","","null","36","","NaN","","","","","","","","","","","","","",""
"","response","","html-keyboard-response","243","425247","0.0-1.0-329.0-0.0","0","0","51927","","489","","","68","36","","","1","36","training","adjacent","CB","3","2","P.jpg","N.jpg","0","0","1","",""
"","feedback","","html-keyboard-response","244","426254","0.0-1.0-330.0-0.0","0","0","51927","","null","","","null","36","","","","","","","","","","","","","","","",""
"","ITI","","html-keyboard-response","245","427261","0.0-1.0-333.0","0","0","51927","","null","","","null","36","","","","","","","","","","","","","","","NaN",""
"","S1","","html-keyboard-response","246","427420","0.0-1.0-335.0","0","0","51927","","null","","","null","37","","","","","","","","","","","","","","","",""
"","ISI","","html-keyboard-response","247","429423","0.0-1.0-336.0","0","0","51927","","null","","","null","37","NaN","","","","","","","","","","","","","","",""
"","S2","","html-keyboard-response","248","429582","0.0-1.0-337.0","0","0","51927","","null","","","null","37","","NaN","","","","","","","","","","","","","",""
"","response","","html-keyboard-response","249","430297","0.0-1.0-338.0-0.0","0","0","51927","","710","","","75","37","","","1","37","training","adjacent","DC","4","3","R.jpg","P.jpg","1","0","0","",""
"","feedback","","html-keyboard-response","250","431305","0.0-1.0-339.0-0.0","0","0","51927","","null","","","null","37","","","","","","","","","","","","","","","",""
"","time_out","","html-keyboard-response","251","433314","0.0-1.0-341.0-0.0","0","0","51927","","null","","","null","37","","","","","","","","","","","","","","","",""
"","ITI","","html-keyboard-response","252","434321","0.0-1.0-342.0","0","0","51927","","null","","","null","37","","","","","","","","","","","","","","","NaN",""
"","S1","","html-keyboard-response","253","434479","0.0-1.0-344.0","0","0","51927","","null","","","null","38","","","","","","","","","","","","","","","",""
"","ISI","","html-keyboard-response","254","436488","0.0-1.0-345.0","0","0","51927","","null","","","null","38","NaN","","","","","","","","","","","","","","",""
"","S2","","html-keyboard-response","255","436646","0.0-1.0-346.0","0","0","51927","","null","","","null","38","","NaN","","","","","","","","","","","","","",""
"","response","","html-keyboard-response","256","437207","0.0-1.0-347.0-0.0","0","0","51927","","557","","","68","38","","","1","38","training","adjacent","DE","4","5","R.jpg","Q.jpg","0","1","0","",""
"","feedback","","html-keyboard-response","257","438212","0.0-1.0-348.0-0.0","0","0","51927","","null","","","null","38","","","","","","","","","","","","","","","",""
"","time_out","","html-keyboard-response","258","440222","0.0-1.0-350.0-0.0","0","0","51927","","null","","","null","38","","","","","","","","","","","","","","","",""
"","ITI","","html-keyboard-response","259","441228","0.0-1.0-351.0","0","0","51927","","null","","","null","38","","","","","","","","","","","","","","","NaN",""
"","S1","","html-keyboard-response","260","441387","0.0-1.0-353.0","0","0","51927","","null","","","null","39","","","","","","","","","","","","","","","",""
"","ISI","","html-keyboard-response","261","443396","0.0-1.0-354.0","0","0","51927","","null","","","null","39","NaN","","","","","","","","","","","","","","",""
"","S2","","html-keyboard-response","262","443555","0.0-1.0-355.0","0","0","51927","","null","","","null","39","","NaN","","","","","","","","","","","","","",""
"","response","","html-keyboard-response","263","443760","0.0-1.0-356.0-0.0","0","0","51927","","201","","","75","39","","","1","39","training","adjacent","GF","7","6","M.jpg","L.jpg","1","0","0","",""
"","feedback","","html-keyboard-response","264","444769","0.0-1.0-357.0-0.0","0","0","51927","","null","","","null","39","","","","","","","","","","","","","","","",""
"","time_out","","html-keyboard-response","265","446778","0.0-1.0-359.0-0.0","0","0","51927","","null","","","null","39","","","","","","","","","","","","","","","",""
"","ITI","","html-keyboard-response","266","447786","0.0-1.0-360.0","0","0","51927","","null","","","null","39","","","","","","","","","","","","","","","NaN",""
"","S1","","html-keyboard-response","267","447945","0.0-1.0-362.0","0","0","51927","","null","","","null","40","","","","","","","","","","","","","","","",""
"","ISI","","html-keyboard-response","268","449951","0.0-1.0-363.0","0","0","51927","","null","","","null","40","NaN","","","","","","","","","","","","","","",""
"","S2","","html-keyboard-response","269","450109","0.0-1.0-364.0","0","0","51927","","null","","","null","40","","NaN","","","","","","","","","","","","","",""
"","response","","html-keyboard-response","270","450725","0.0-1.0-365.0-0.0","0","0","51927","","612","","","75","40","","","1","40","training","adjacent","GF","7","6","M.jpg","L.jpg","1","0","0","",""
"","feedback","","html-keyboard-response","271","451733","0.0-1.0-366.0-0.0","0","0","51927","","null","","","null","40","","","","","","","","","","","","","","","",""
"","time_out","","html-keyboard-response","272","453739","0.0-1.0-368.0-0.0","0","0","51927","","null","","","null","40","","","","","","","","","","","","","","","",""
"","ITI","","html-keyboard-response","273","454746","0.0-1.0-369.0","0","0","51927","","null","","","null","40","","","","","","","","","","","","","","","NaN",""
"","S1","","html-keyboard-response","274","454903","0.0-1.0-371.0","0","0","51927","","null","","","null","41","","","","","","","","","","","","","","","",""
"","ISI","","html-keyboard-response","275","456912","0.0-1.0-372.0","0","0","51927","","null","","","null","41","NaN","","","","","","","","","","","","","","",""
"","S2","","html-keyboard-response","276","457070","0.0-1.0-373.0","0","0","51927","","null","","","null","41","","NaN","","","","","","","","","","","","","",""
"","response","","html-keyboard-response","277","457595","0.0-1.0-374.0-0.0","0","0","51927","","522","","","68","41","","","1","41","training","adjacent","BC","2","3","N.jpg","P.jpg","0","1","0","",""
"","feedback","","html-keyboard-response","278","458604","0.0-1.0-375.0-0.0","0","0","51927","","null","","","null","41","","","","","","","","","","","","","","","",""
"","time_out","","html-keyboard-response","279","460613","0.0-1.0-377.0-0.0","0","0","51927","","null","","","null","41","","","","","","","","","","","","","","","",""
"","ITI","","html-keyboard-response","280","461619","0.0-1.0-378.0","0","0","51927","","null","","","null","41","","","","","","","","","","","","","","","NaN",""
"","S1","","html-keyboard-response","281","461775","0.0-1.0-380.0","0","0","51927","","null","","","null","42","","","","","","","","","","","","","","","",""
"","ISI","","html-keyboard-response","282","463784","0.0-1.0-381.0","0","0","51927","","null","","","null","42","NaN","","","","","","","","","","","","","","",""
"","S2","","html-keyboard-response","283","463943","0.0-1.0-382.0","0","0","51927","","null","","","null","42","","NaN","","","","","","","","","","","","","",""
"","response","","html-keyboard-response","284","464235","0.0-1.0-383.0-0.0","0","0","51927","","288","","","75","42","","","1","42","training","adjacent","CD","3","4","P.jpg","R.jpg","1","1","1","",""
"","feedback","","html-keyboard-response","285","465244","0.0-1.0-384.0-0.0","0","0","51927","","null","","","null","42","","","","","","","","","","","","","","","",""
"","ITI","","html-keyboard-response","286","466252","0.0-1.0-387.0","0","0","51927","","null","","","null","42","","","","","","","","","","","","","","","NaN",""
"","S1","","html-keyboard-response","287","466409","0.0-1.0-389.0","0","0","51927","","null","","","null","43","","","","","","","","","","","","","","","",""
"","ISI","","html-keyboard-response","288","468413","0.0-1.0-390.0","0","0","51927","","null","","","null","43","NaN","","","","","","","","","","","","","","",""
"","S2","","html-keyboard-response","289","468568","0.0-1.0-391.0","0","0","51927","","null","","","null","43","","NaN","","","","","","","","","","","","","",""
"","response","","html-keyboard-response","290","469195","0.0-1.0-392.0-0.0","0","0","51927","","623","","","68","43","","","1","43","training","adjacent","EF","5","6","Q.jpg","L.jpg","0","1","0","",""
"","feedback","","html-keyboard-response","291","470203","0.0-1.0-393.0-0.0","0","0","51927","","null","","","null","43","","","","","","","","","","","","","","","",""
"","time_out","","html-keyboard-response","292","472212","0.0-1.0-395.0-0.0","0","0","51927","","null","","","null","43","","","","","","","","","","","","","","","",""
"","ITI","","html-keyboard-response","293","473219","0.0-1.0-396.0","0","0","51927","","null","","","null","43","","","","","","","","","","","","","","","NaN",""
"","S1","","html-keyboard-response","294","473372","0.0-1.0-398.0","0","0","51927","","null","","","null","44","","","","","","","","","","","","","","","",""
"","ISI","","html-keyboard-response","295","475380","0.0-1.0-399.0","0","0","51927","","null","","","null","44","NaN","","","","","","","","","","","","","","",""
"","S2","","html-keyboard-response","296","475539","0.0-1.0-400.0","0","0","51927","","null","","","null","44","","NaN","","","","","","","","","","","","","",""
"","response","","html-keyboard-response","297","476186","0.0-1.0-401.0-0.0","0","0","51927","","642","","","75","44","","","1","44","training","adjacent","GF","7","6","M.jpg","L.jpg","1","0","0","",""
"","feedback","","html-keyboard-response","298","477195","0.0-1.0-402.0-0.0","0","0","51927","","null","","","null","44","","","","","","","","","","","","","","","",""
"","time_out","","html-keyboard-response","299","479204","0.0-1.0-404.0-0.0","0","0","51927","","null","","","null","44","","","","","","","","","","","","","","","",""
"","ITI","","html-keyboard-response","300","480210","0.0-1.0-405.0","0","0","51927","","null","","","null","44","","","","","","","","","","","","","","","NaN",""
"","S1","","html-keyboard-response","301","480369","0.0-1.0-407.0","0","0","51927","","null","","","null","45","","","","","","","","","","","","","","","",""
"","ISI","","html-keyboard-response","302","482378","0.0-1.0-408.0","0","0","51927","","null","","","null","45","NaN","","","","","","","","","","","","","","",""
"","S2","","html-keyboard-response","303","482537","0.0-1.0-409.0","0","0","51927","","null","","","null","45","","NaN","","","","","","","","","","","","","",""
"","response","","html-keyboard-response","304","483615","0.0-1.0-410.0-0.0","0","0","51927","","1074","","","68","45","","","1","45","training","adjacent","BA","2","1","N.jpg","O.jpg","0","0","1","",""
"","feedback","","html-keyboard-response","305","484624","0.0-1.0-411.0-0.0","0","0","51927","","null","","","null","45","","","","","","","","","","","","","","","",""
"","ITI","","html-keyboard-response","306","485630","0.0-1.0-414.0","0","0","51927","","null","","","null","45","","","","","","","","","","","","","","","NaN",""
"","S1","","html-keyboard-response","307","485789","0.0-1.0-416.0","0","0","51927","","null","","","null","46","","","","","","","","","","","","","","","",""
"","ISI","","html-keyboard-response","308","487797","0.0-1.0-417.0","0","0","51927","","null","","","null","46","NaN","","","","","","","","","","","","","","",""
"","S2","","html-keyboard-response","309","487953","0.0-1.0-418.0","0","0","51927","","null","","","null","46","","NaN","","","","","","","","","","","","","",""
"","response","","html-keyboard-response","310","488461","0.0-1.0-419.0-0.0","0","0","51927","","505","","","75","46","","","1","46","training","adjacent","AB","1","2","O.jpg","N.jpg","1","1","1","",""
"","feedback","","html-keyboard-response","311","489466","0.0-1.0-420.0-0.0","0","0","51927","","null","","","null","46","","","","","","","","","","","","","","","",""
"","ITI","","html-keyboard-response","312","490475","0.0-1.0-423.0","0","0","51927","","null","","","null","46","","","","","","","","","","","","","","","NaN",""
"","S1","","html-keyboard-response","313","490634","0.0-1.0-425.0","0","0","51927","","null","","","null","47","","","","","","","","","","","","","","","",""
"","ISI","","html-keyboard-response","314","492643","0.0-1.0-426.0","0","0","51927","","null","","","null","47","NaN","","","","","","","","","","","","","","",""
"","S2","","html-keyboard-response","315","492800","0.0-1.0-427.0","0","0","51927","","null","","","null","47","","NaN","","","","","","","","","","","","","",""
"","response","","html-keyboard-response","316","493480","0.0-1.0-428.0-0.0","0","0","51927","","675","","","68","47","","","1","47","training","adjacent","FG","6","7","L.jpg","M.jpg","0","1","0","",""
"","feedback","","html-keyboard-response","317","494489","0.0-1.0-429.0-0.0","0","0","51927","","null","","","null","47","","","","","","","","","","","","","","","",""
"","time_out","","html-keyboard-response","318","496492","0.0-1.0-431.0-0.0","0","0","51927","","null","","","null","47","","","","","","","","","","","","","","","",""
"","ITI","","html-keyboard-response","319","497499","0.0-1.0-432.0","0","0","51927","","null","","","null","47","","","","","","","","","","","","","","","NaN",""
"","block_over","","html-keyboard-response","320","511954","0.0-1.0-433.0-0.0","0","0","51927","","14449","","","32","47","","","","","","","","","","","","","","","",""
"","S1","","html-keyboard-response","321","512112","0.0-1.0-434.0","0","0","51927","","null","","","null","48","","","","","","","","","","","","","","","",""
"","ISI","","html-keyboard-response","322","514121","0.0-1.0-435.0","0","0","51927","","null","","","null","48","NaN","","","","","","","","","","","","","","",""
"","S2","","html-keyboard-response","323","514277","0.0-1.0-436.0","0","0","51927","","null","","","null","48","","NaN","","","","","","","","","","","","","",""
"","response","","html-keyboard-response","324","515214","0.0-1.0-437.0-0.0","0","0","51927","","933","","","68","48","","","2","48","training","adjacent","FE","6","5","L.jpg","Q.jpg","0","0","1","",""
"","feedback","","html-keyboard-response","325","516224","0.0-1.0-438.0-0.0","0","0","51927","","null","","","null","48","","","","","","","","","","","","","","","",""
"","ITI","","html-keyboard-response","326","517231","0.0-1.0-441.0","0","0","51927","","null","","","null","48","","","","","","","","","","","","","","","NaN",""
"","S1","","html-keyboard-response","327","517390","0.0-1.0-443.0","0","0","51927","","null","","","null","49","","","","","","","","","","","","","","","",""
"","ISI","","html-keyboard-response","328","519398","0.0-1.0-444.0","0","0","51927","","null","","","null","49","NaN","","","","","","","","","","","","","","",""
"","S2","","html-keyboard-response","329","519556","0.0-1.0-445.0","0","0","51927","","null","","","null","49","","NaN","","","","","","","","","","","","","",""
"","response","","html-keyboard-response","330","520133","0.0-1.0-446.0-0.0","0","0","51927","","573","","","75","49","","","2","49","training","adjacent","BC","2","3","N.jpg","P.jpg","1","1","1","",""
"","feedback","","html-keyboard-response","331","521138","0.0-1.0-447.0-0.0","0","0","51927","","null","","","null","49","","","","","","","","","","","","","","","",""
"","ITI","","html-keyboard-response","332","522143","0.0-1.0-450.0","0","0","51927","","null","","","null","49","","","","","","","","","","","","","","","NaN",""
"","S1","","html-keyboard-response","333","522300","0.0-1.0-452.0","0","0","51927","","null","","","null","50","","","","","","","","","","","","","","","",""
"","ISI","","html-keyboard-response","334","524309","0.0-1.0-453.0","0","0","51927","","null","","","null","50","NaN","","","","","","","","","","","","","","",""
"","S2","","html-keyboard-response","335","524468","0.0-1.0-454.0","0","0","51927","","null","","","null","50","","NaN","","","","","","","","","","","","","",""
"","response","","html-keyboard-response","336","524871","0.0-1.0-455.0-0.0","0","0","51927","","398","","","68","50","","","2","50","training","adjacent","BA","2","1","N.jpg","O.jpg","0","0","1","",""
"","feedback","","html-keyboard-response","337","525875","0.0-1.0-456.0-0.0","0","0","51927","","null","","","null","50","","","","","","","","","","","","","","","",""
"","ITI","","html-keyboard-response","338","526881","0.0-1.0-459.0","0","0","51927","","null","","","null","50","","","","","","","","","","","","","","","NaN",""
"","S1","","html-keyboard-response","339","527037","0.0-1.0-461.0","0","0","51927","","null","","","null","51","","","","","","","","","","","","","","","",""
"","ISI","","html-keyboard-response","340","529046","0.0-1.0-462.0","0","0","51927","","null","","","null","51","NaN","","","","","","","","","","","","","","",""
"","S2","","html-keyboard-response","341","529204","0.0-1.0-463.0","0","0","51927","","null","","","null","51","","NaN","","","","","","","","","","","","","",""
"","response","","html-keyboard-response","342","529568","0.0-1.0-464.0-0.0","0","0","51927","","359","","","75","51","","","2","51","training","adjacent","DE","4","5","R.jpg","Q.jpg","1","1","1","",""
"","feedback","","html-keyboard-response","343","530572","0.0-1.0-465.0-0.0","0","0","51927","","null","","","null","51","","","","","","","","","","","","","","","",""
"","ITI","","html-keyboard-response","344","531577","0.0-1.0-468.0","0","0","51927","","null","","","null","51","","","","","","","","","","","","","","","NaN",""
"","S1","","html-keyboard-response","345","531732","0.0-1.0-470.0","0","0","51927","","null","","","null","52","","","","","","","","","","","","","","","",""
"","ISI","","html-keyboard-response","346","533741","0.0-1.0-471.0","0","0","51927","","null","","","null","52","NaN","","","","","","","","","","","","","","",""
"","S2","","html-keyboard-response","347","533900","0.0-1.0-472.0","0","0","51927","","null","","","null","52","","NaN","","","","","","","","","","","","","",""
"","response","","html-keyboard-response","348","534371","0.0-1.0-473.0-0.0","0","0","51927","","467","","","68","52","","","2","52","training","adjacent","BC","2","3","N.jpg","P.jpg","0","1","0","",""
"","feedback","","html-keyboard-response","349","535378","0.0-1.0-474.0-0.0","0","0","51927","","null","","","null","52","","","","","","","","","","","","","","","",""
"","time_out","","html-keyboard-response","350","537387","0.0-1.0-476.0-0.0","0","0","51927","","null","","","null","52","","","","","","","","","","","","","","","",""
"","ITI","","html-keyboard-response","351","538394","0.0-1.0-477.0","0","0","51927","","null","","","null","52","","","","","","","","","","","","","","","NaN",""
"","S1","","html-keyboard-response","352","538551","0.0-1.0-479.0","0","0","51927","","null","","","null","53","","","","","","","","","","","","","","","",""
"","ISI","","html-keyboard-response","353","540559","0.0-1.0-480.0","0","0","51927","","null","","","null","53","NaN","","","","","","","","","","","","","","",""
"","S2","","html-keyboard-response","354","540717","0.0-1.0-481.0","0","0","51927","","null","","","null","53","","NaN","","","","","","","","","","","","","",""
"","response","","html-keyboard-response","355","541119","0.0-1.0-482.0-0.0","0","0","51927","","397","","","75","53","","","2","53","training","adjacent","CB","3","2","P.jpg","N.jpg","1","0","0","",""
"","feedback","","html-keyboard-response","356","542128","0.0-1.0-483.0-0.0","0","0","51927","","null","","","null","53","","","","","","","","","","","","","","","",""
"","time_out","","html-keyboard-response","357","544133","0.0-1.0-485.0-0.0","0","0","51927","","null","","","null","53","","","","","","","","","","","","","","","",""
"","ITI","","html-keyboard-response","358","545141","0.0-1.0-486.0","0","0","51927","","null","","","null","53","","","","","","","","","","","","","","","NaN",""
"","S1","","html-keyboard-response","359","545301","0.0-1.0-488.0","0","0","51927","","null","","","null","54","","","","","","","","","","","","","","","",""
"","ISI","","html-keyboard-response","360","547309","0.0-1.0-489.0","0","0","51927","","null","","","null","54","NaN","","","","","","","","","","","","","","",""
"","S2","","html-keyboard-response","361","547468","0.0-1.0-490.0","0","0","51927","","null","","","null","54","","NaN","","","","","","","","","","","","","",""
"","response","","html-keyboard-response","362","548206","0.0-1.0-491.0-0.0","0","0","51927","","734","","","68","54","","","2","54","training","adjacent","DC","4","3","R.jpg","P.jpg","0","0","1","",""
"","feedback","","html-keyboard-response","363","549210","0.0-1.0-492.0-0.0","0","0","51927","","null","","","null","54","","","","","","","","","","","","","","","",""
"","ITI","","html-keyboard-response","364","550215","0.0-1.0-495.0","0","0","51927","","null","","","null","54","","","","","","","","","","","","","","","NaN",""
"","S1","","html-keyboard-response","365","550371","0.0-1.0-497.0","0","0","51927","","null","","","null","55","","","","","","","","","","","","","","","",""
"","ISI","","html-keyboard-response","366","552379","0.0-1.0-498.0","0","0","51927","","null","","","null","55","NaN","","","","","","","","","","","","","","",""
"","S2","","html-keyboard-response","367","552537","0.0-1.0-499.0","0","0","51927","","null","","","null","55","","NaN","","","","","","","","","","","","","",""
"","response","","html-keyboard-response","368","552988","0.0-1.0-500.0-0.0","0","0","51927","","448","","","68","55","","","2","55","training","adjacent","FE","6","5","L.jpg","Q.jpg","0","0","1","",""
"","feedback","","html-keyboard-response","369","553993","0.0-1.0-501.0-0.0","0","0","51927","","null","","","null","55","","","","","","","","","","","","","","","",""
"","ITI","","html-keyboard-response","370","555000","0.0-1.0-504.0","0","0","51927","","null","","","null","55","","","","","","","","","","","","","","","NaN",""
"","S1","","html-keyboard-response","371","555159","0.0-1.0-506.0","0","0","51927","","null","","","null","56","","","","","","","","","","","","","","","",""
"","ISI","","html-keyboard-response","372","557167","0.0-1.0-507.0","0","0","51927","","null","","","null","56","NaN","","","","","","","","","","","","","","",""
"","S2","","html-keyboard-response","373","557327","0.0-1.0-508.0","0","0","51927","","null","","","null","56","","NaN","","","","","","","","","","","","","",""
"","response","","html-keyboard-response","374","557628","0.0-1.0-509.0-0.0","0","0","51927","","298","","","75","56","","","2","56","training","adjacent","ED","5","4","Q.jpg","R.jpg","1","0","0","",""
"","feedback","","html-keyboard-response","375","558638","0.0-1.0-510.0-0.0","0","0","51927","","null","","","null","56","","","","","","","","","","","","","","","",""
"","time_out","","html-keyboard-response","376","560644","0.0-1.0-512.0-0.0","0","0","51927","","null","","","null","56","","","","","","","","","","","","","","","",""
"","ITI","","html-keyboard-response","377","561650","0.0-1.0-513.0","0","0","51927","","null","","","null","56","","","","","","","","","","","","","","","NaN",""
"","S1","","html-keyboard-response","378","561804","0.0-1.0-515.0","0","0","51927","","null","","","null","57","","","","","","","","","","","","","","","",""
"","ISI","","html-keyboard-response","379","563812","0.0-1.0-516.0","0","0","51927","","null","","","null","57","NaN","","","","","","","","","","","","","","",""
"","S2","","html-keyboard-response","380","563970","0.0-1.0-517.0","0","0","51927","","null","","","null","57","","NaN","","","","","","","","","","","","","",""
"","response","","html-keyboard-response","381","564477","0.0-1.0-518.0-0.0","0","0","51927","","504","","","68","57","","","2","57","training","adjacent","ED","5","4","Q.jpg","R.jpg","0","0","1","",""
"","feedback","","html-keyboard-response","382","565486","0.0-1.0-519.0-0.0","0","0","51927","","null","","","null","57","","","","","","","","","","","","","","","",""
"","ITI","","html-keyboard-response","383","566495","0.0-1.0-522.0","0","0","51927","","null","","","null","57","","","","","","","","","","","","","","","NaN",""
"","S1","","html-keyboard-response","384","566651","0.0-1.0-524.0","0","0","51927","","null","","","null","58","","","","","","","","","","","","","","","",""
"","ISI","","html-keyboard-response","385","568658","0.0-1.0-525.0","0","0","51927","","null","","","null","58","NaN","","","","","","","","","","","","","","",""
"","S2","","html-keyboard-response","386","568816","0.0-1.0-526.0","0","0","51927","","null","","","null","58","","NaN","","","","","","","","","","","","","",""
"","response","","html-keyboard-response","387","569191","0.0-1.0-527.0-0.0","0","0","51927","","371","","","75","58","","","2","58","training","adjacent","CB","3","2","P.jpg","N.jpg","1","0","0","",""
"","feedback","","html-keyboard-response","388","570195","0.0-1.0-528.0-0.0","0","0","51927","","null","","","null","58","","","","","","","","","","","","","","","",""
"","time_out","","html-keyboard-response","389","572205","0.0-1.0-530.0-0.0","0","0","51927","","null","","","null","58","","","","","","","","","","","","","","","",""
"","ITI","","html-keyboard-response","390","573210","0.0-1.0-531.0","0","0","51927","","null","","","null","58","","","","","","","","","","","","","","","NaN",""
"","S1","","html-keyboard-response","391","573368","0.0-1.0-533.0","0","0","51927","","null","","","null","59","","","","","","","","","","","","","","","",""
"","ISI","","html-keyboard-response","392","575377","0.0-1.0-534.0","0","0","51927","","null","","","null","59","NaN","","","","","","","","","","","","","","",""
"","S2","","html-keyboard-response","393","575535","0.0-1.0-535.0","0","0","51927","","null","","","null","59","","NaN","","","","","","","","","","","","","",""
"","response","","html-keyboard-response","394","575898","0.0-1.0-536.0-0.0","0","0","51927","","359","","","68","59","","","2","59","training","adjacent","ED","5","4","Q.jpg","R.jpg","0","0","1","",""
"","feedback","","html-keyboard-response","395","576907","0.0-1.0-537.0-0.0","0","0","51927","","null","","","null","59","","","","","","","","","","","","","","","",""
"","ITI","","html-keyboard-response","396","577914","0.0-1.0-540.0","0","0","51927","","null","","","null","59","","","","","","","","","","","","","","","NaN",""
"","S1","","html-keyboard-response","397","578073","0.0-1.0-542.0","0","0","51927","","null","","","null","60","","","","","","","","","","","","","","","",""
"","ISI","","html-keyboard-response","398","580078","0.0-1.0-543.0","0","0","51927","","null","","","null","60","NaN","","","","","","","","","","","","","","",""
"","S2","","html-keyboard-response","399","580235","0.0-1.0-544.0","0","0","51927","","null","","","null","60","","NaN","","","","","","","","","","","","","",""
"","response","","html-keyboard-response","400","580808","0.0-1.0-545.0-0.0","0","0","51927","","569","","","68","60","","","2","60","training","adjacent","BC","2","3","N.jpg","P.jpg","0","1","0","",""
"","feedback","","html-keyboard-response","401","581812","0.0-1.0-546.0-0.0","0","0","51927","","null","","","null","60","","","","","","","","","","","","","","","",""
"","time_out","","html-keyboard-response","402","583820","0.0-1.0-548.0-0.0","0","0","51927","","null","","","null","60","","","","","","","","","","","","","","","",""
"","ITI","","html-keyboard-response","403","584827","0.0-1.0-549.0","0","0","51927","","null","","","null","60","","","","","","","","","","","","","","","NaN",""
"","S1","","html-keyboard-response","404","584985","0.0-1.0-551.0","0","0","51927","","null","","","null","61","","","","","","","","","","","","","","","",""
"","ISI","","html-keyboard-response","405","586991","0.0-1.0-552.0","0","0","51927","","null","","","null","61","NaN","","","","","","","","","","","","","","",""
"","S2","","html-keyboard-response","406","587151","0.0-1.0-553.0","0","0","51927","","null","","","null","61","","NaN","","","","","","","","","","","","","",""
"","response","","html-keyboard-response","407","587343","0.0-1.0-554.0-0.0","0","0","51927","","189","","","75","61","","","2","61","training","adjacent","GF","7","6","M.jpg","L.jpg","1","0","0","",""
"","feedback","","html-keyboard-response","408","588353","0.0-1.0-555.0-0.0","0","0","51927","","null","","","null","61","","","","","","","","","","","","","","","",""
"","time_out","","html-keyboard-response","409","590362","0.0-1.0-557.0-0.0","0","0","51927","","null","","","null","61","","","","","","","","","","","","","","","",""
"","ITI","","html-keyboard-response","410","591368","0.0-1.0-558.0","0","0","51927","","null","","","null","61","","","","","","","","","","","","","","","NaN",""
"","S1","","html-keyboard-response","411","591527","0.0-1.0-560.0","0","0","51927","","null","","","null","62","","","","","","","","","","","","","","","",""
"","ISI","","html-keyboard-response","412","593532","0.0-1.0-561.0","0","0","51927","","null","","","null","62","NaN","","","","","","","","","","","","","","",""
"","S2","","html-keyboard-response","413","593691","0.0-1.0-562.0","0","0","51927","","null","","","null","62","","NaN","","","","","","","","","","","","","",""
"","response","","html-keyboard-response","414","594192","0.0-1.0-563.0-0.0","0","0","51927","","497","","","68","62","","","2","62","training","adjacent","FE","6","5","L.jpg","Q.jpg","0","0","1","",""
"","feedback","","html-keyboard-response","415","595201","0.0-1.0-564.0-0.0","0","0","51927","","null","","","null","62","","","","","","","","","","","","","","","",""
"","ITI","","html-keyboard-response","416","596208","0.0-1.0-567.0","0","0","51927","","null","","","null","62","","","","","","","","","","","","","","","NaN",""
"","S1","","html-keyboard-response","417","596361","0.0-1.0-569.0","0","0","51927","","null","","","null","63","","","","","","","","","","","","","","","",""
"","ISI","","html-keyboard-response","418","598370","0.0-1.0-570.0","0","0","51927","","null","","","null","63","NaN","","","","","","","","","","","","","","",""
"","S2","","html-keyboard-response","419","598525","0.0-1.0-571.0","0","0","51927","","null","","","null","63","","NaN","","","","","","","","","","","","","",""
"","response","","html-keyboard-response","420","598851","0.0-1.0-572.0-0.0","0","0","51927","","322","","","75","63","","","2","63","training","adjacent","CD","3","4","P.jpg","R.jpg","1","1","1","",""
"","feedback","","html-keyboard-response","421","599861","0.0-1.0-573.0-0.0","0","0","51927","","null","","","null","63","","","","","","","","","","","","","","","",""
"","ITI","","html-keyboard-response","422","600870","0.0-1.0-576.0","0","0","51927","","null","","","null","63","","","","","","","","","","","","","","","NaN",""
"","S1","","html-keyboard-response","423","601027","0.0-1.0-578.0","0","0","51927","","null","","","null","64","","","","","","","","","","","","","","","",""
"","ISI","","html-keyboard-response","424","603035","0.0-1.0-579.0","0","0","51927","","null","","","null","64","NaN","","","","","","","","","","","","","","",""
"","S2","","html-keyboard-response","425","603194","0.0-1.0-580.0","0","0","51927","","null","","","null","64","","NaN","","","","","","","","","","","","","",""
"","response","","html-keyboard-response","426","603910","0.0-1.0-581.0-0.0","0","0","51927","","712","","","68","64","","","2","64","training","adjacent","GF","7","6","M.jpg","L.jpg","0","0","1","",""
"","feedback","","html-keyboard-response","427","604920","0.0-1.0-582.0-0.0","0","0","51927","","null","","","null","64","","","","","","","","","","","","","","","",""
"","ITI","","html-keyboard-response","428","605928","0.0-1.0-585.0","0","0","51927","","null","","","null","64","","","","","","","","","","","","","","","NaN",""
"","S1","","html-keyboard-response","429","606086","0.0-1.0-587.0","0","0","51927","","null","","","null","65","","","","","","","","","","","","","","","",""
"","ISI","","html-keyboard-response","430","608094","0.0-1.0-588.0","0","0","51927","","null","","","null","65","NaN","","","","","","","","","","","","","","",""
"","S2","","html-keyboard-response","431","608250","0.0-1.0-589.0","0","0","51927","","null","","","null","65","","NaN","","","","","","","","","","","","","",""
"","response","","html-keyboard-response","432","609121","0.0-1.0-590.0-0.0","0","0","51927","","869","","","68","65","","","2","65","training","adjacent","BA","2","1","N.jpg","O.jpg","0","0","1","",""
"","feedback","","html-keyboard-response","433","610127","0.0-1.0-591.0-0.0","0","0","51927","","null","","","null","65","","","","","","","","","","","","","","","",""
"","ITI","","html-keyboard-response","434","611134","0.0-1.0-594.0","0","0","51927","","null","","","null","65","","","","","","","","","","","","","","","NaN",""
"","S1","","html-keyboard-response","435","611292","0.0-1.0-596.0","0","0","51927","","null","","","null","66","","","","","","","","","","","","","","","",""
"","ISI","","html-keyboard-response","436","613300","0.0-1.0-597.0","0","0","51927","","null","","","null","66","NaN","","","","","","","","","","","","","","",""
"","S2","","html-keyboard-response","437","613459","0.0-1.0-598.0","0","0","51927","","null","","","null","66","","NaN","","","","","","","","","","","","","",""
"","response","","html-keyboard-response","438","614092","0.0-1.0-599.0-0.0","0","0","51927","","629","","","75","66","","","2","66","training","adjacent","EF","5","6","Q.jpg","L.jpg","1","1","1","",""
"","feedback","","html-keyboard-response","439","615101","0.0-1.0-600.0-0.0","0","0","51927","","null","","","null","66","","","","","","","","","","","","","","","",""
"","ITI","","html-keyboard-response","440","616110","0.0-1.0-603.0","0","0","51927","","null","","","null","66","","","","","","","","","","","","","","","NaN",""
"","S1","","html-keyboard-response","441","616266","0.0-1.0-605.0","0","0","51927","","null","","","null","67","","","","","","","","","","","","","","","",""
"","ISI","","html-keyboard-response","442","618274","0.0-1.0-606.0","0","0","51927","","null","","","null","67","NaN","","","","","","","","","","","","","","",""
"","S2","","html-keyboard-response","443","618429","0.0-1.0-607.0","0","0","51927","","null","","","null","67","","NaN","","","","","","","","","","","","","",""
"","response","","html-keyboard-response","444","619164","0.0-1.0-608.0-0.0","0","0","51927","","731","","","68","67","","","2","67","training","adjacent","EF","5","6","Q.jpg","L.jpg","0","1","0","",""
"","feedback","","html-keyboard-response","445","620169","0.0-1.0-609.0-0.0","0","0","51927","","null","","","null","67","","","","","","","","","","","","","","","",""
"","time_out","","html-keyboard-response","446","622178","0.0-1.0-611.0-0.0","0","0","51927","","null","","","null","67","","","","","","","","","","","","","","","",""
"","ITI","","html-keyboard-response","447","623187","0.0-1.0-612.0","0","0","51927","","null","","","null","67","","","","","","","","","","","","","","","NaN",""
"","S1","","html-keyboard-response","448","623344","0.0-1.0-614.0","0","0","51927","","null","","","null","68","","","","","","","","","","","","","","","",""
"","ISI","","html-keyboard-response","449","625352","0.0-1.0-615.0","0","0","51927","","null","","","null","68","NaN","","","","","","","","","","","","","","",""
"","S2","","html-keyboard-response","450","625511","0.0-1.0-616.0","0","0","51927","","null","","","null","68","","NaN","","","","","","","","","","","","","",""
"","response","","html-keyboard-response","451","626026","0.0-1.0-617.0-0.0","0","0","51927","","510","","","75","68","","","2","68","training","adjacent","CD","3","4","P.jpg","R.jpg","1","1","1","",""
"","feedback","","html-keyboard-response","452","627030","0.0-1.0-618.0-0.0","0","0","51927","","null","","","null","68","","","","","","","","","","","","","","","",""
"","ITI","","html-keyboard-response","453","628035","0.0-1.0-621.0","0","0","51927","","null","","","null","68","","","","","","","","","","","","","","","NaN",""
"","S1","","html-keyboard-response","454","628191","0.0-1.0-623.0","0","0","51927","","null","","","null","69","","","","","","","","","","","","","","","",""
"","ISI","","html-keyboard-response","455","630199","0.0-1.0-624.0","0","0","51927","","null","","","null","69","NaN","","","","","","","","","","","","","","",""
"","S2","","html-keyboard-response","456","630354","0.0-1.0-625.0","0","0","51927","","null","","","null","69","","NaN","","","","","","","","","","","","","",""
"","response","","html-keyboard-response","457","631042","0.0-1.0-626.0-0.0","0","0","51927","","684","","","68","69","","","2","69","training","adjacent","GF","7","6","M.jpg","L.jpg","0","0","1","",""
"","feedback","","html-keyboard-response","458","632045","0.0-1.0-627.0-0.0","0","0","51927","","null","","","null","69","","","","","","","","","","","","","","","",""
"","ITI","","html-keyboard-response","459","633054","0.0-1.0-630.0","0","0","51927","","null","","","null","69","","","","","","","","","","","","","","","NaN",""
"","S1","","html-keyboard-response","460","633210","0.0-1.0-632.0","0","0","51927","","null","","","null","70","","","","","","","","","","","","","","","",""
"","ISI","","html-keyboard-response","461","635219","0.0-1.0-633.0","0","0","51927","","null","","","null","70","NaN","","","","","","","","","","","","","","",""
"","S2","","html-keyboard-response","462","635377","0.0-1.0-634.0","0","0","51927","","null","","","null","70","","NaN","","","","","","","","","","","","","",""
"","response","","html-keyboard-response","463","635825","0.0-1.0-635.0-0.0","0","0","51927","","442","","","75","70","","","2","70","training","adjacent","BC","2","3","N.jpg","P.jpg","1","1","1","",""
"","feedback","","html-keyboard-response","464","636829","0.0-1.0-636.0-0.0","0","0","51927","","null","","","null","70","","","","","","","","","","","","","","","",""
"","ITI","","html-keyboard-response","465","637834","0.0-1.0-639.0","0","0","51927","","null","","","null","70","","","","","","","","","","","","","","","NaN",""
"","S1","","html-keyboard-response","466","637989","0.0-1.0-641.0","0","0","51927","","null","","","null","71","","","","","","","","","","","","","","","",""
"","ISI","","html-keyboard-response","467","639998","0.0-1.0-642.0","0","0","51927","","null","","","null","71","NaN","","","","","","","","","","","","","","",""
"","S2","","html-keyboard-response","468","640156","0.0-1.0-643.0","0","0","51927","","null","","","null","71","","NaN","","","","","","","","","","","","","",""
"","response","","html-keyboard-response","469","640690","0.0-1.0-644.0-0.0","0","0","51927","","531","","","68","71","","","2","71","training","adjacent","FG","6","7","L.jpg","M.jpg","0","1","0","",""
"","feedback","","html-keyboard-response","470","641700","0.0-1.0-645.0-0.0","0","0","51927","","null","","","null","71","","","","","","","","","","","","","","","",""
"","time_out","","html-keyboard-response","471","643708","0.0-1.0-647.0-0.0","0","0","51927","","null","","","null","71","","","","","","","","","","","","","","","",""
"","ITI","","html-keyboard-response","472","644715","0.0-1.0-648.0","0","0","51927","","null","","","null","71","","","","","","","","","","","","","","","NaN",""
"","S1","","html-keyboard-response","473","644874","0.0-1.0-650.0","0","0","51927","","null","","","null","72","","","","","","","","","","","","","","","",""
"","ISI","","html-keyboard-response","474","646883","0.0-1.0-651.0","0","0","51927","","null","","","null","72","NaN","","","","","","","","","","","","","","",""
"","S2","","html-keyboard-response","475","647041","0.0-1.0-652.0","0","0","51927","","null","","","null","72","","NaN","","","","","","","","","","","","","",""
"","response","","html-keyboard-response","476","647470","0.0-1.0-653.0-0.0","0","0","51927","","425","","","75","72","","","2","72","training","adjacent","DE","4","5","R.jpg","Q.jpg","1","1","1","",""
"","feedback","","html-keyboard-response","477","648479","0.0-1.0-654.0-0.0","0","0","51927","","null","","","null","72","","","","","","","","","","","","","","","",""
"","ITI","","html-keyboard-response","478","649488","0.0-1.0-657.0","0","0","51927","","null","","","null","72","","","","","","","","","","","","","","","NaN",""
"","S1","","html-keyboard-response","479","649647","0.0-1.0-659.0","0","0","51927","","null","","","null","73","","","","","","","","","","","","","","","",""
"","ISI","","html-keyboard-response","480","651655","0.0-1.0-660.0","0","0","51927","","null","","","null","73","NaN","","","","","","","","","","","","","","",""
"","S2","","html-keyboard-response","481","651812","0.0-1.0-661.0","0","0","51927","","null","","","null","73","","NaN","","","","","","","","","","","","","",""
"","response","","html-keyboard-response","482","652238","0.0-1.0-662.0-0.0","0","0","51927","","422","","","68","73","","","2","73","training","adjacent","DC","4","3","R.jpg","P.jpg","0","0","1","",""
"","feedback","","html-keyboard-response","483","653242","0.0-1.0-663.0-0.0","0","0","51927","","null","","","null","73","","","","","","","","","","","","","","","",""
"","ITI","","html-keyboard-response","484","654247","0.0-1.0-666.0","0","0","51927","","null","","","null","73","","","","","","","","","","","","","","","NaN",""
"","S1","","html-keyboard-response","485","654406","0.0-1.0-668.0","0","0","51927","","null","","","null","74","","","","","","","","","","","","","","","",""
"","ISI","","html-keyboard-response","486","656414","0.0-1.0-669.0","0","0","51927","","null","","","null","74","NaN","","","","","","","","","","","","","","",""
"","S2","","html-keyboard-response","487","656573","0.0-1.0-670.0","0","0","51927","","null","","","null","74","","NaN","","","","","","","","","","","","","",""
"","response","","html-keyboard-response","488","657116","0.0-1.0-671.0-0.0","0","0","51927","","540","","","68","74","","","2","74","training","adjacent","EF","5","6","Q.jpg","L.jpg","0","1","0","",""
"","feedback","","html-keyboard-response","489","658126","0.0-1.0-672.0-0.0","0","0","51927","","null","","","null","74","","","","","","","","","","","","","","","",""
"","time_out","","html-keyboard-response","490","660131","0.0-1.0-674.0-0.0","0","0","51927","","null","","","null","74","","","","","","","","","","","","","","","",""
"","ITI","","html-keyboard-response","491","661137","0.0-1.0-675.0","0","0","51927","","null","","","null","74","","","","","","","","","","","","","","","NaN",""
"","S1","","html-keyboard-response","492","661297","0.0-1.0-677.0","0","0","51927","","null","","","null","75","","","","","","","","","","","","","","","",""
"","ISI","","html-keyboard-response","493","663306","0.0-1.0-678.0","0","0","51927","","null","","","null","75","NaN","","","","","","","","","","","","","","",""
"","S2","","html-keyboard-response","494","663464","0.0-1.0-679.0","0","0","51927","","null","","","null","75","","NaN","","","","","","","","","","","","","",""
"","response","","html-keyboard-response","495","664072","0.0-1.0-680.0-0.0","0","0","51927","","603","","","75","75","","","2","75","training","adjacent","AB","1","2","O.jpg","N.jpg","1","1","1","",""
"","feedback","","html-keyboard-response","496","665082","0.0-1.0-681.0-0.0","0","0","51927","","null","","","null","75","","","","","","","","","","","","","","","",""
"","ITI","","html-keyboard-response","497","666091","0.0-1.0-684.0","0","0","51927","","null","","","null","75","","","","","","","","","","","","","","","NaN",""
"","S1","","html-keyboard-response","498","666249","0.0-1.0-686.0","0","0","51927","","null","","","null","76","","","","","","","","","","","","","","","",""
"","ISI","","html-keyboard-response","499","668258","0.0-1.0-687.0","0","0","51927","","null","","","null","76","NaN","","","","","","","","","","","","","","",""
"","S2","","html-keyboard-response","500","668417","0.0-1.0-688.0","0","0","51927","","null","","","null","76","","NaN","","","","","","","","","","","","","",""
"","response","","html-keyboard-response","501","668989","0.0-1.0-689.0-0.0","0","0","51927","","569","","","68","76","","","2","76","training","adjacent","FG","6","7","L.jpg","M.jpg","0","1","0","",""
"","feedback","","html-keyboard-response","502","669999","0.0-1.0-690.0-0.0","0","0","51927","","null","","","null","76","","","","","","","","","","","","","","","",""
"","time_out","","html-keyboard-response","503","672008","0.0-1.0-692.0-0.0","0","0","51927","","null","","","null","76","","","","","","","","","","","","","","","",""
"","ITI","","html-keyboard-response","504","673015","0.0-1.0-693.0","0","0","51927","","null","","","null","76","","","","","","","","","","","","","","","NaN",""
"","S1","","html-keyboard-response","505","673171","0.0-1.0-695.0","0","0","51927","","null","","","null","77","","","","","","","","","","","","","","","",""
"","ISI","","html-keyboard-response","506","675181","0.0-1.0-696.0","0","0","51927","","null","","","null","77","NaN","","","","","","","","","","","","","","",""
"","S2","","html-keyboard-response","507","675340","0.0-1.0-697.0","0","0","51927","","null","","","null","77","","NaN","","","","","","","","","","","","","",""
"","response","","html-keyboard-response","508","676080","0.0-1.0-698.0-0.0","0","0","51927","","736","","","75","77","","","2","77","training","adjacent","FG","6","7","L.jpg","M.jpg","1","1","1","",""
"","feedback","","html-keyboard-response","509","677090","0.0-1.0-699.0-0.0","0","0","51927","","null","","","null","77","","","","","","","","","","","","","","","",""
"","ITI","","html-keyboard-response","510","678095","0.0-1.0-702.0","0","0","51927","","null","","","null","77","","","","","","","","","","","","","","","NaN",""
"","S1","","html-keyboard-response","511","678253","0.0-1.0-704.0","0","0","51927","","null","","","null","78","","","","","","","","","","","","","","","",""
"","ISI","","html-keyboard-response","512","680258","0.0-1.0-705.0","0","0","51927","","null","","","null","78","NaN","","","","","","","","","","","","","","",""
"","S2","","html-keyboard-response","513","680415","0.0-1.0-706.0","0","0","51927","","null","","","null","78","","NaN","","","","","","","","","","","","","",""
"","response","","html-keyboard-response","514","680739","0.0-1.0-707.0-0.0","0","0","51927","","319","","","68","78","","","2","78","training","adjacent","FE","6","5","L.jpg","Q.jpg","0","0","1","",""
"","feedback","","html-keyboard-response","515","681743","0.0-1.0-708.0-0.0","0","0","51927","","null","","","null","78","","","","","","","","","","","","","","","",""
"","ITI","","html-keyboard-response","516","682747","0.0-1.0-711.0","0","0","51927","","null","","","null","78","","","","","","","","","","","","","","","NaN",""
"","S1","","html-keyboard-response","517","682907","0.0-1.0-713.0","0","0","51927","","null","","","null","79","","","","","","","","","","","","","","","",""
"","ISI","","html-keyboard-response","518","684915","0.0-1.0-714.0","0","0","51927","","null","","","null","79","NaN","","","","","","","","","","","","","","",""
"","S2","","html-keyboard-response","519","685074","0.0-1.0-715.0","0","0","51927","","null","","","null","79","","NaN","","","","","","","","","","","","","",""
"","response","","html-keyboard-response","520","685422","0.0-1.0-716.0-0.0","0","0","51927","","344","","","75","79","","","2","79","training","adjacent","CD","3","4","P.jpg","R.jpg","1","1","1","",""
"","feedback","","html-keyboard-response","521","686430","0.0-1.0-717.0-0.0","0","0","51927","","null","","","null","79","","","","","","","","","","","","","","","",""
"","ITI","","html-keyboard-response","522","687439","0.0-1.0-720.0","0","0","51927","","null","","","null","79","","","","","","","","","","","","","","","NaN",""
"","S1","","html-keyboard-response","523","687598","0.0-1.0-722.0","0","0","51927","","null","","","null","80","","","","","","","","","","","","","","","",""
"","ISI","","html-keyboard-response","524","689606","0.0-1.0-723.0","0","0","51927","","null","","","null","80","NaN","","","","","","","","","","","","","","",""
"","S2","","html-keyboard-response","525","689764","0.0-1.0-724.0","0","0","51927","","null","","","null","80","","NaN","","","","","","","","","","","","","",""
"","response","","html-keyboard-response","526","690467","0.0-1.0-725.0-0.0","0","0","51927","","697","","","68","80","","","2","80","training","adjacent","EF","5","6","Q.jpg","L.jpg","0","1","0","",""
"","feedback","","html-keyboard-response","527","691471","0.0-1.0-726.0-0.0","0","0","51927","","null","","","null","80","","","","","","","","","","","","","","","",""
"","time_out","","html-keyboard-response","528","693480","0.0-1.0-728.0-0.0","0","0","51927","","null","","","null","80","","","","","","","","","","","","","","","",""
"","ITI","","html-keyboard-response","529","694487","0.0-1.0-729.0","0","0","51927","","null","","","null","80","","","","","","","","","","","","","","","NaN",""
"","S1","","html-keyboard-response","530","694646","0.0-1.0-731.0","0","0","51927","","null","","","null","81","","","","","","","","","","","","","","","",""
"","ISI","","html-keyboard-response","531","696655","0.0-1.0-732.0","0","0","51927","","null","","","null","81","NaN","","","","","","","","","","","","","","",""
"","S2","","html-keyboard-response","532","696814","0.0-1.0-733.0","0","0","51927","","null","","","null","81","","NaN","","","","","","","","","","","","","",""
"","response","","html-keyboard-response","533","697379","0.0-1.0-734.0-0.0","0","0","51927","","561","","","75","81","","","2","81","training","adjacent","CD","3","4","P.jpg","R.jpg","1","1","1","",""
"","feedback","","html-keyboard-response","534","698386","0.0-1.0-735.0-0.0","0","0","51927","","null","","","null","81","","","","","","","","","","","","","","","",""
"","ITI","","html-keyboard-response","535","699394","0.0-1.0-738.0","0","0","51927","","null","","","null","81","","","","","","","","","","","","","","","NaN",""
"","S1","","html-keyboard-response","536","699553","0.0-1.0-740.0","0","0","51927","","null","","","null","82","","","","","","","","","","","","","","","",""
"","ISI","","html-keyboard-response","537","701556","0.0-1.0-741.0","0","0","51927","","null","","","null","82","NaN","","","","","","","","","","","","","","",""
"","S2","","html-keyboard-response","538","701713","0.0-1.0-742.0","0","0","51927","","null","","","null","82","","NaN","","","","","","","","","","","","","",""
"","response","","html-keyboard-response","539","702079","0.0-1.0-743.0-0.0","0","0","51927","","362","","","68","82","","","2","82","training","adjacent","CB","3","2","P.jpg","N.jpg","0","0","1","",""
"","feedback","","html-keyboard-response","540","703088","0.0-1.0-744.0-0.0","0","0","51927","","null","","","null","82","","","","","","","","","","","","","","","",""
"","ITI","","html-keyboard-response","541","704098","0.0-1.0-747.0","0","0","51927","","null","","","null","82","","","","","","","","","","","","","","","NaN",""
"","S1","","html-keyboard-response","542","704256","0.0-1.0-749.0","0","0","51927","","null","","","null","83","","","","","","","","","","","","","","","",""
"","ISI","","html-keyboard-response","543","706266","0.0-1.0-750.0","0","0","51927","","null","","","null","83","NaN","","","","","","","","","","","","","","",""
"","S2","","html-keyboard-response","544","706423","0.0-1.0-751.0","0","0","51927","","null","","","null","83","","NaN","","","","","","","","","","","","","",""
"","response","","html-keyboard-response","545","706880","0.0-1.0-752.0-0.0","0","0","51927","","452","","","75","83","","","2","83","training","adjacent","AB","1","2","O.jpg","N.jpg","1","1","1","",""
"","feedback","","html-keyboard-response","546","707889","0.0-1.0-753.0-0.0","0","0","51927","","null","","","null","83","","","","","","","","","","","","","","","",""
"","ITI","","html-keyboard-response","547","708894","0.0-1.0-756.0","0","0","51927","","null","","","null","83","","","","","","","","","","","","","","","NaN",""
"","S1","","html-keyboard-response","548","709053","0.0-1.0-758.0","0","0","51927","","null","","","null","84","","","","","","","","","","","","","","","",""
"","ISI","","html-keyboard-response","549","711057","0.0-1.0-759.0","0","0","51927","","null","","","null","84","NaN","","","","","","","","","","","","","","",""
"","S2","","html-keyboard-response","550","711215","0.0-1.0-760.0","0","0","51927","","null","","","null","84","","NaN","","","","","","","","","","","","","",""
"","response","","html-keyboard-response","551","711554","0.0-1.0-761.0-0.0","0","0","51927","","335","","","75","84","","","2","84","training","adjacent","AB","1","2","O.jpg","N.jpg","1","1","1","",""
"","feedback","","html-keyboard-response","552","712564","0.0-1.0-762.0-0.0","0","0","51927","","null","","","null","84","","","","","","","","","","","","","","","",""
"","ITI","","html-keyboard-response","553","713572","0.0-1.0-765.0","0","0","51927","","null","","","null","84","","","","","","","","","","","","","","","NaN",""
"","S1","","html-keyboard-response","554","713730","0.0-1.0-767.0","0","0","51927","","null","","","null","85","","","","","","","","","","","","","","","",""
"","ISI","","html-keyboard-response","555","715739","0.0-1.0-768.0","0","0","51927","","null","","","null","85","NaN","","","","","","","","","","","","","","",""
"","S2","","html-keyboard-response","556","715898","0.0-1.0-769.0","0","0","51927","","null","","","null","85","","NaN","","","","","","","","","","","","","",""
"","response","","html-keyboard-response","557","716405","0.0-1.0-770.0-0.0","0","0","51927","","503","","","68","85","","","2","85","training","adjacent","GF","7","6","M.jpg","L.jpg","0","0","1","",""
"","feedback","","html-keyboard-response","558","717409","0.0-1.0-771.0-0.0","0","0","51927","","null","","","null","85","","","","","","","","","","","","","","","",""
"","ITI","","html-keyboard-response","559","718414","0.0-1.0-774.0","0","0","51927","","null","","","null","85","","","","","","","","","","","","","","","NaN",""
"","S1","","html-keyboard-response","560","718573","0.0-1.0-776.0","0","0","51927","","null","","","null","86","","","","","","","","","","","","","","","",""
"","ISI","","html-keyboard-response","561","720581","0.0-1.0-777.0","0","0","51927","","null","","","null","86","NaN","","","","","","","","","","","","","","",""
"","S2","","html-keyboard-response","562","720740","0.0-1.0-778.0","0","0","51927","","null","","","null","86","","NaN","","","","","","","","","","","","","",""
"","response","","html-keyboard-response","563","721192","0.0-1.0-779.0-0.0","0","0","51927","","447","","","75","86","","","2","86","training","adjacent","DE","4","5","R.jpg","Q.jpg","1","1","1","",""
"","feedback","","html-keyboard-response","564","722202","0.0-1.0-780.0-0.0","0","0","51927","","null","","","null","86","","","","","","","","","","","","","","","",""
"","ITI","","html-keyboard-response","565","723210","0.0-1.0-783.0","0","0","51927","","null","","","null","86","","","","","","","","","","","","","","","NaN",""
"","S1","","html-keyboard-response","566","723368","0.0-1.0-785.0","0","0","51927","","null","","","null","87","","","","","","","","","","","","","","","",""
"","ISI","","html-keyboard-response","567","725376","0.0-1.0-786.0","0","0","51927","","null","","","null","87","NaN","","","","","","","","","","","","","","",""
"","S2","","html-keyboard-response","568","725536","0.0-1.0-787.0","0","0","51927","","null","","","null","87","","NaN","","","","","","","","","","","","","",""
"","response","","html-keyboard-response","569","725842","0.0-1.0-788.0-0.0","0","0","51927","","301","","","68","87","","","2","87","training","adjacent","DC","4","3","R.jpg","P.jpg","0","0","1","",""
"","feedback","","html-keyboard-response","570","726846","0.0-1.0-789.0-0.0","0","0","51927","","null","","","null","87","","","","","","","","","","","","","","","",""
"","ITI","","html-keyboard-response","571","727855","0.0-1.0-792.0","0","0","51927","","null","","","null","87","","","","","","","","","","","","","","","NaN",""
"","S1","","html-keyboard-response","572","728014","0.0-1.0-794.0","0","0","51927","","null","","","null","88","","","","","","","","","","","","","","","",""
"","ISI","","html-keyboard-response","573","730022","0.0-1.0-795.0","0","0","51927","","null","","","null","88","NaN","","","","","","","","","","","","","","",""
"","S2","","html-keyboard-response","574","730181","0.0-1.0-796.0","0","0","51927","","null","","","null","88","","NaN","","","","","","","","","","","","","",""
"","response","","html-keyboard-response","575","730821","0.0-1.0-797.0-0.0","0","0","51927","","635","","","75","88","","","2","88","training","adjacent","BA","2","1","N.jpg","O.jpg","1","0","0","",""
"","feedback","","html-keyboard-response","576","731826","0.0-1.0-798.0-0.0","0","0","51927","","null","","","null","88","","","","","","","","","","","","","","","",""
"","time_out","","html-keyboard-response","577","733834","0.0-1.0-800.0-0.0","0","0","51927","","null","","","null","88","","","","","","","","","","","","","","","",""
"","ITI","","html-keyboard-response","578","734841","0.0-1.0-801.0","0","0","51927","","null","","","null","88","","","","","","","","","","","","","","","NaN",""
"","S1","","html-keyboard-response","579","735000","0.0-1.0-803.0","0","0","51927","","null","","","null","89","","","","","","","","","","","","","","","",""
"","ISI","","html-keyboard-response","580","737009","0.0-1.0-804.0","0","0","51927","","null","","","null","89","NaN","","","","","","","","","","","","","","",""
"","S2","","html-keyboard-response","581","737164","0.0-1.0-805.0","0","0","51927","","null","","","null","89","","NaN","","","","","","","","","","","","","",""
"","response","","html-keyboard-response","582","737591","0.0-1.0-806.0-0.0","0","0","51927","","423","","","75","89","","","2","89","training","adjacent","AB","1","2","O.jpg","N.jpg","1","1","1","",""
