"success","ttype","start_time","trial_type","trial_index","time_elapsed","internal_node_id","warning","missed_checkup","PID","view_history","rt","responses","repeat_instructions","key_press","index","keypress_isi","keypress_S2","block","trial_num","phase","group_type","pair_type","S1_stim","S2_stim","S1_img","S2_img","S1_chosen","S1_higher","accuracy","keypress_iti","total_bonus_tally"
"true","full_screen","d08012022hr1500","fullscreen","0","12234","0.0-0.0","0","0","54729","","","","","","","","","","","","","","","","","","","","","",""
"","instructions","","instructions","1","62642","0.0-1.0-0.0-0.0","0","0","54729","[{""page_index"":0,""viewing_time"":8110},{""page_index"":1,""viewing_time"":19490},{""page_index"":2,""viewing_time"":19360},{""page_index"":3,""viewing_time"":3446}]","50407","","","","","","","","","","","","","","","","","","","",""
"","comprehension_check","","survey-multi-choice","2","83231","0.0-1.0-0.0-1.0","0","0","54729","","20585","{""Q0"":""True"",""Q1"":""K"",""Q2"":""While the images are shown"",""Q3"":""Green mark"",""Q4"":""either D or K""}","1","","","","","","","","","","","","","","","","","",""
"","missed_instruction_checkup","","html-keyboard-response","3","85438","0.0-1.0-0.0-2.0-0.0","0","1","54729","","2204","","","32","","","","","","","","","","","","","","","","",""
"","instructions","","instructions","4","105428","0.0-1.0-0.1-0.1","0","0","54729","[{""page_index"":0,""viewing_time"":3466},{""page_index"":1,""viewing_time"":8229},{""page_index"":2,""viewing_time"":6864},{""page_index"":3,""viewing_time"":1430}]","19989","","","","","","","","","","","","","","","","","","","",""
"","comprehension_check","","survey-multi-choice","5","124691","0.0-1.0-0.1-1.1","0","0","54729","","19259","{""Q0"":""False"",""Q1"":""K"",""Q2"":""While the images are shown"",""Q3"":""Green mark"",""Q4"":""either D or K""}","1","","","","","","","","","","","","","","","","","",""
"","missed_instruction_checkup","","html-keyboard-response","6","127077","0.0-1.0-0.1-2.1-0.1","0","1","54729","","2384","","","32","","","","","","","","","","","","","","","","",""
"","instructions","","instructions","7","151380","0.0-1.0-0.2-0.2","0","0","54729","[{""page_index"":0,""viewing_time"":5358},{""page_index"":1,""viewing_time"":13080},{""page_index"":2,""viewing_time"":4306},{""page_index"":3,""viewing_time"":1558}]","24302","","","","","","","","","","","","","","","","","","","",""
"","comprehension_check","","survey-multi-choice","8","172209","0.0-1.0-0.2-1.2","0","0","54729","","20826","{""Q0"":""True"",""Q1"":""K"",""Q2"":""When you see the prompt 'MAKE A CHOICE' after the second image was presented"",""Q3"":""Green mark"",""Q4"":""either D or K""}","0","","","","","","","","","","","","","","","","","",""
"","start_exp","","html-keyboard-response","9","173853","0.0-1.0-1.0","0","0","54729","","1642","","","32","","","","","","","","","","","","","","","","",""
"","S1","","html-keyboard-response","10","174105","0.0-1.0-2.0","0","0","54729","","null","","","null","0","","","","","","","","","","","","","","","",""
"","ISI","","html-keyboard-response","11","176107","0.0-1.0-3.0","0","0","54729","","null","","","null","0","NaN","","","","","","","","","","","","","","",""
"","S2","","html-keyboard-response","12","176359","0.0-1.0-4.0","0","0","54729","","null","","","null","0","","NaN","","","","","","","","","","","","","",""
"","response","","html-keyboard-response","13","178341","0.0-1.0-5.0","0","0","54729","","1981","","","68","0","","","1","0","training","adjacent","EF","5","6","Q.jpg","O.jpg","0","1","0","",""
"","feedback","","html-keyboard-response","14","179344","0.0-1.0-6.0-0.0","0","0","54729","","null","","","null","0","","","","","","","","","","","","","","","",""
"","time_out","","html-keyboard-response","15","181345","0.0-1.0-8.0-0.0","0","0","54729","","null","","","null","0","","","","","","","","","","","","","","","",""
"","ITI","","html-keyboard-response","16","182348","0.0-1.0-9.0","0","0","54729","","null","","","null","0","","","","","","","","","","","","","","","NaN",""
"","S1","","html-keyboard-response","17","182600","0.0-1.0-11.0","0","0","54729","","null","","","null","1","","","","","","","","","","","","","","","",""
"","ISI","","html-keyboard-response","18","184601","0.0-1.0-12.0","0","0","54729","","null","","","null","1","NaN","","","","","","","","","","","","","","",""
"","S2","","html-keyboard-response","19","184853","0.0-1.0-13.0","0","0","54729","","null","","","null","1","","NaN","","","","","","","","","","","","","",""
"","response","","html-keyboard-response","20","186534","0.0-1.0-14.0","0","0","54729","","1680","","","75","1","","","1","1","training","adjacent","FG","6","7","O.jpg","L.jpg","1","1","1","",""
"","feedback","","html-keyboard-response","21","187536","0.0-1.0-15.0-0.0","0","0","54729","","null","","","null","1","","","","","","","","","","","","","","","",""
"","ITI","","html-keyboard-response","22","188537","0.0-1.0-18.0","0","0","54729","","null","","","null","1","","","","","","","","","","","","","","","NaN",""
"","S1","","html-keyboard-response","23","188789","0.0-1.0-20.0","0","0","54729","","null","","","null","2","","","","","","","","","","","","","","","",""
"","ISI","","html-keyboard-response","24","190790","0.0-1.0-21.0","0","0","54729","","null","","","null","2","NaN","","","","","","","","","","","","","","",""
"","S2","","html-keyboard-response","25","191042","0.0-1.0-22.0","0","0","54729","","null","","","null","2","","NaN","","","","","","","","","","","","","",""
"","response","","html-keyboard-response","26","191581","0.0-1.0-23.0","0","0","54729","","538","","","68","2","","","1","2","training","adjacent","CB","3","2","R.jpg","M.jpg","0","0","1","",""
"","feedback","","html-keyboard-response","27","192583","0.0-1.0-24.0-0.0","0","0","54729","","null","","","null","2","","","","","","","","","","","","","","","",""
"","ITI","","html-keyboard-response","28","193585","0.0-1.0-27.0","0","0","54729","","null","","","null","2","","","","","","","","","","","","","","","NaN",""
"","S1","","html-keyboard-response","29","193837","0.0-1.0-29.0","0","0","54729","","null","","","null","3","","","","","","","","","","","","","","","",""
"","ISI","","html-keyboard-response","30","195840","0.0-1.0-30.0","0","0","54729","","null","","","null","3","NaN","","","","","","","","","","","","","","",""
"","S2","","html-keyboard-response","31","196092","0.0-1.0-31.0","0","0","54729","","null","","","null","3","","NaN","","","","","","","","","","","","","",""
"","response","","html-keyboard-response","32","196525","0.0-1.0-32.0","0","0","54729","","432","","","75","3","","","1","3","training","adjacent","EF","5","6","Q.jpg","O.jpg","1","1","1","",""
"","feedback","","html-keyboard-response","33","197527","0.0-1.0-33.0-0.0","0","0","54729","","null","","","null","3","","","","","","","","","","","","","","","",""
"","ITI","","html-keyboard-response","34","198529","0.0-1.0-36.0","0","0","54729","","null","","","null","3","","","","","","","","","","","","","","","NaN",""
"","S1","","html-keyboard-response","35","198781","0.0-1.0-38.0","0","0","54729","","null","","","null","4","","","","","","","","","","","","","","","",""
"","ISI","","html-keyboard-response","36","200782","0.0-1.0-39.0","0","0","54729","","null","","","null","4","NaN","","","","","","","","","","","","","","",""
"","S2","","html-keyboard-response","37","201035","0.0-1.0-40.0","0","0","54729","","null","","","null","4","","NaN","","","","","","","","","","","","","",""
"","response","","html-keyboard-response","38","202382","0.0-1.0-41.0","0","0","54729","","1346","","","68","4","","","1","4","training","adjacent","FE","6","5","O.jpg","Q.jpg","0","0","1","",""
"","feedback","","html-keyboard-response","39","203384","0.0-1.0-42.0-0.0","0","0","54729","","null","","","null","4","","","","","","","","","","","","","","","",""
"","ITI","","html-keyboard-response","40","204386","0.0-1.0-45.0","0","0","54729","","null","","","null","4","","","","","","","","","","","","","","","NaN",""
"","S1","","html-keyboard-response","41","204639","0.0-1.0-47.0","0","0","54729","","null","","","null","5","","","","","","","","","","","","","","","",""
"","ISI","","html-keyboard-response","42","206642","0.0-1.0-48.0","0","0","54729","","null","","","null","5","NaN","","","","","","","","","","","","","","",""
"","S2","","html-keyboard-response","43","206894","0.0-1.0-49.0","0","0","54729","","null","","","null","5","","NaN","","","","","","","","","","","","","",""
"","response","","html-keyboard-response","44","207701","0.0-1.0-50.0","0","0","54729","","806","","","75","5","","","1","5","training","adjacent","AB","1","2","N.jpg","M.jpg","1","1","1","",""
"","feedback","","html-keyboard-response","45","208703","0.0-1.0-51.0-0.0","0","0","54729","","null","","","null","5","","","","","","","","","","","","","","","",""
"","ITI","","html-keyboard-response","46","209710","0.0-1.0-54.0","0","0","54729","","null","","","null","5","","","","","","","","","","","","","","","NaN",""
"","S1","","html-keyboard-response","47","209961","0.0-1.0-56.0","0","0","54729","","null","","","null","6","","","","","","","","","","","","","","","",""
"","ISI","","html-keyboard-response","48","211964","0.0-1.0-57.0","0","0","54729","","null","","","null","6","NaN","","","","","","","","","","","","","","",""
"","S2","","html-keyboard-response","49","212216","0.0-1.0-58.0","0","0","54729","","null","","","null","6","","NaN","","","","","","","","","","","","","",""
"","response","","html-keyboard-response","50","213430","0.0-1.0-59.0","0","0","54729","","1212","","","68","6","","","1","6","training","adjacent","GF","7","6","L.jpg","O.jpg","0","0","1","",""
"","feedback","","html-keyboard-response","51","214432","0.0-1.0-60.0-0.0","0","0","54729","","null","","","null","6","","","","","","","","","","","","","","","",""
"","ITI","","html-keyboard-response","52","215434","0.0-1.0-63.0","0","0","54729","","null","","","null","6","","","","","","","","","","","","","","","NaN",""
"","S1","","html-keyboard-response","53","215686","0.0-1.0-65.0","0","0","54729","","null","","","null","7","","","","","","","","","","","","","","","",""
"","ISI","","html-keyboard-response","54","217689","0.0-1.0-66.0","0","0","54729","","null","","","null","7","NaN","","","","","","","","","","","","","","",""
"","S2","","html-keyboard-response","55","217941","0.0-1.0-67.0","0","0","54729","","null","","","null","7","","NaN","","","","","","","","","","","","","",""
"","response","","html-keyboard-response","56","219261","0.0-1.0-68.0","0","0","54729","","1318","","","68","7","","","1","7","training","adjacent","DE","4","5","P.jpg","Q.jpg","0","1","0","",""
"","feedback","","html-keyboard-response","57","220263","0.0-1.0-69.0-0.0","0","0","54729","","null","","","null","7","","","","","","","","","","","","","","","",""
"","time_out","","html-keyboard-response","58","222264","0.0-1.0-71.0-0.0","0","0","54729","","null","","","null","7","","","","","","","","","","","","","","","",""
"","ITI","","html-keyboard-response","59","223267","0.0-1.0-72.0","0","0","54729","","null","","","null","7","","","","","","","","","","","","","","","NaN",""
"","S1","","html-keyboard-response","60","223518","0.0-1.0-74.0","0","0","54729","","null","","","null","8","","","","","","","","","","","","","","","",""
"","ISI","","html-keyboard-response","61","225520","0.0-1.0-75.0","0","0","54729","","null","","","null","8","NaN","","","","","","","","","","","","","","",""
"","S2","","html-keyboard-response","62","225772","0.0-1.0-76.0","0","0","54729","","null","","","null","8","","NaN","","","","","","","","","","","","","",""
"","response","","html-keyboard-response","63","226718","0.0-1.0-77.0","0","0","54729","","944","","","75","8","","","1","8","training","adjacent","BC","2","3","M.jpg","R.jpg","1","1","1","",""
"","feedback","","html-keyboard-response","64","227732","0.0-1.0-78.0-0.0","0","0","54729","","null","","","null","8","","","","","","","","","","","","","","","",""
"","ITI","","html-keyboard-response","65","228745","0.0-1.0-81.0","0","0","54729","","null","","","null","8","","","","","","","","","","","","","","","NaN",""
"","S1","","html-keyboard-response","66","228997","0.0-1.0-83.0","0","0","54729","","null","","","null","9","","","","","","","","","","","","","","","",""
"","ISI","","html-keyboard-response","67","230999","0.0-1.0-84.0","0","0","54729","","null","","","null","9","NaN","","","","","","","","","","","","","","",""
"","S2","","html-keyboard-response","68","231251","0.0-1.0-85.0","0","0","54729","","null","","","null","9","","NaN","","","","","","","","","","","","","",""
"","response","","html-keyboard-response","69","232717","0.0-1.0-86.0","0","0","54729","","1464","","","68","9","","","1","9","training","adjacent","FE","6","5","O.jpg","Q.jpg","0","0","1","",""
"","feedback","","html-keyboard-response","70","233718","0.0-1.0-87.0-0.0","0","0","54729","","null","","","null","9","","","","","","","","","","","","","","","",""
"","ITI","","html-keyboard-response","71","234735","0.0-1.0-90.0","0","0","54729","","null","","","null","9","","","","","","","","","","","","","","","NaN",""
"","S1","","html-keyboard-response","72","234988","0.0-1.0-92.0","0","0","54729","","null","","","null","10","","","","","","","","","","","","","","","",""
"","ISI","","html-keyboard-response","73","236990","0.0-1.0-93.0","0","0","54729","","null","","","null","10","NaN","","","","","","","","","","","","","","",""
"","S2","","html-keyboard-response","74","237242","0.0-1.0-94.0","0","0","54729","","null","","","null","10","","NaN","","","","","","","","","","","","","",""
"","response","","html-keyboard-response","75","238726","0.0-1.0-95.0","0","0","54729","","1483","","","68","10","","","1","10","training","adjacent","CB","3","2","R.jpg","M.jpg","0","0","1","",""
"","feedback","","html-keyboard-response","76","239728","0.0-1.0-96.0-0.0","0","0","54729","","null","","","null","10","","","","","","","","","","","","","","","",""
"","ITI","","html-keyboard-response","77","240729","0.0-1.0-99.0","0","0","54729","","null","","","null","10","","","","","","","","","","","","","","","NaN",""
"","S1","","html-keyboard-response","78","240981","0.0-1.0-101.0","0","0","54729","","null","","","null","11","","","","","","","","","","","","","","","",""
"","ISI","","html-keyboard-response","79","242983","0.0-1.0-102.0","0","0","54729","","null","","","null","11","NaN","","","","","","","","","","","","","","",""
"","S2","","html-keyboard-response","80","243236","0.0-1.0-103.0","0","0","54729","","null","","","null","11","","NaN","","","","","","","","","","","","","",""
"","response","","html-keyboard-response","81","243669","0.0-1.0-104.0","0","0","54729","","432","","","75","11","","","1","11","training","adjacent","EF","5","6","Q.jpg","O.jpg","1","1","1","",""
"","feedback","","html-keyboard-response","82","244672","0.0-1.0-105.0-0.0","0","0","54729","","null","","","null","11","","","","","","","","","","","","","","","",""
"","ITI","","html-keyboard-response","83","245675","0.0-1.0-108.0","0","0","54729","","null","","","null","11","","","","","","","","","","","","","","","NaN",""
"","S1","","html-keyboard-response","84","245926","0.0-1.0-110.0","0","0","54729","","null","","","null","12","","","","","","","","","","","","","","","",""
"","ISI","","html-keyboard-response","85","247928","0.0-1.0-111.0","0","0","54729","","null","","","null","12","NaN","","","","","","","","","","","","","","",""
"","S2","","html-keyboard-response","86","248180","0.0-1.0-112.0","0","0","54729","","null","","","null","12","","NaN","","","","","","","","","","","","","",""
"","response","","html-keyboard-response","87","249150","0.0-1.0-113.0","0","0","54729","","968","","","75","12","","","1","12","training","adjacent","DE","4","5","P.jpg","Q.jpg","1","1","1","",""
"","feedback","","html-keyboard-response","88","250152","0.0-1.0-114.0-0.0","0","0","54729","","null","","","null","12","","","","","","","","","","","","","","","",""
"","ITI","","html-keyboard-response","89","251154","0.0-1.0-117.0","0","0","54729","","null","","","null","12","","","","","","","","","","","","","","","NaN",""
"","S1","","html-keyboard-response","90","251406","0.0-1.0-119.0","0","0","54729","","null","","","null","13","","","","","","","","","","","","","","","",""
"","ISI","","html-keyboard-response","91","253408","0.0-1.0-120.0","0","0","54729","","null","","","null","13","NaN","","","","","","","","","","","","","","",""
"","S2","","html-keyboard-response","92","253660","0.0-1.0-121.0","0","0","54729","","null","","","null","13","","NaN","","","","","","","","","","","","","",""
"","response","","html-keyboard-response","93","255285","0.0-1.0-122.0","0","0","54729","","1623","","","68","13","","","1","13","training","adjacent","AB","1","2","N.jpg","M.jpg","0","1","0","",""
"","feedback","","html-keyboard-response","94","256286","0.0-1.0-123.0-0.0","0","0","54729","","null","","","null","13","","","","","","","","","","","","","","","",""
"","time_out","","html-keyboard-response","95","258288","0.0-1.0-125.0-0.0","0","0","54729","","null","","","null","13","","","","","","","","","","","","","","","",""
"","ITI","","html-keyboard-response","96","259290","0.0-1.0-126.0","0","0","54729","","null","","","null","13","","","","","","","","","","","","","","","NaN",""
"","S1","","html-keyboard-response","97","259542","0.0-1.0-128.0","0","0","54729","","null","","","null","14","","","","","","","","","","","","","","","",""
"","ISI","","html-keyboard-response","98","261544","0.0-1.0-129.0","0","0","54729","","null","","","null","14","NaN","","","","","","","","","","","","","","",""
"","S2","","html-keyboard-response","99","261796","0.0-1.0-130.0","0","0","54729","","null","","","null","14","","NaN","","","","","","","","","","","","","",""
"","response","","html-keyboard-response","100","262454","0.0-1.0-131.0","0","0","54729","","656","","","75","14","","","1","14","training","adjacent","BC","2","3","M.jpg","R.jpg","1","1","1","",""
"","feedback","","html-keyboard-response","101","263470","0.0-1.0-132.0-0.0","0","0","54729","","null","","","null","14","","","","","","","","","","","","","","","",""
"","ITI","","html-keyboard-response","102","264472","0.0-1.0-135.0","0","0","54729","","null","","","null","14","","","","","","","","","","","","","","","NaN",""
"","S1","","html-keyboard-response","103","264725","0.0-1.0-137.0","0","0","54729","","null","","","null","15","","","","","","","","","","","","","","","",""
"","ISI","","html-keyboard-response","104","266727","0.0-1.0-138.0","0","0","54729","","null","","","null","15","NaN","","","","","","","","","","","","","","",""
"","S2","","html-keyboard-response","105","266980","0.0-1.0-139.0","0","0","54729","","null","","","null","15","","NaN","","","","","","","","","","","","","",""
"","response","","html-keyboard-response","106","267941","0.0-1.0-140.0","0","0","54729","","959","","","68","15","","","1","15","training","adjacent","FG","6","7","O.jpg","L.jpg","0","1","0","",""
"","feedback","","html-keyboard-response","107","268949","0.0-1.0-141.0-0.0","0","0","54729","","null","","","null","15","","","","","","","","","","","","","","","",""
"","time_out","","html-keyboard-response","108","270952","0.0-1.0-143.0-0.0","0","0","54729","","null","","","null","15","","","","","","","","","","","","","","","",""
"","ITI","","html-keyboard-response","109","271954","0.0-1.0-144.0","0","0","54729","","null","","","null","15","","","","","","","","","","","","","","","NaN",""
"","S1","","html-keyboard-response","110","272207","0.0-1.0-146.0","0","0","54729","","null","","","null","16","","","","","","","","","","","","","","","",""
"","ISI","","html-keyboard-response","111","274209","0.0-1.0-147.0","0","0","54729","","null","","","null","16","NaN","","","","","","","","","","","","","","",""
"","S2","","html-keyboard-response","112","274461","0.0-1.0-148.0","0","0","54729","","null","","","null","16","","NaN","","","","","","","","","","","","","",""
"","response","","html-keyboard-response","113","275446","0.0-1.0-149.0","0","0","54729","","983","","","68","16","","","1","16","training","adjacent","BA","2","1","M.jpg","N.jpg","0","0","1","",""
"","feedback","","html-keyboard-response","114","276448","0.0-1.0-150.0-0.0","0","0","54729","","null","","","null","16","","","","","","","","","","","","","","","",""
"","ITI","","html-keyboard-response","115","277452","0.0-1.0-153.0","0","0","54729","","null","","","null","16","","","","","","","","","","","","","","","NaN",""
"","S1","","html-keyboard-response","116","277711","0.0-1.0-155.0","0","0","54729","","null","","","null","17","","","","","","","","","","","","","","","",""
"","ISI","","html-keyboard-response","117","279713","0.0-1.0-156.0","0","0","54729","","null","","","null","17","NaN","","","","","","","","","","","","","","",""
"","S2","","html-keyboard-response","118","279966","0.0-1.0-157.0","0","0","54729","","null","","","null","17","","NaN","","","","","","","","","","","","","",""
"","response","","html-keyboard-response","119","281461","0.0-1.0-158.0","0","0","54729","","1494","","","75","17","","","1","17","training","adjacent","BC","2","3","M.jpg","R.jpg","1","1","1","",""
"","feedback","","html-keyboard-response","120","282462","0.0-1.0-159.0-0.0","0","0","54729","","null","","","null","17","","","","","","","","","","","","","","","",""
"","ITI","","html-keyboard-response","121","283465","0.0-1.0-162.0","0","0","54729","","null","","","null","17","","","","","","","","","","","","","","","NaN",""
"","S1","","html-keyboard-response","122","283717","0.0-1.0-164.0","0","0","54729","","null","","","null","18","","","","","","","","","","","","","","","",""
"","ISI","","html-keyboard-response","123","285720","0.0-1.0-165.0","0","0","54729","","null","","","null","18","NaN","","","","","","","","","","","","","","",""
"","S2","","html-keyboard-response","124","285973","0.0-1.0-166.0","0","0","54729","","null","","","null","18","","NaN","","","","","","","","","","","","","",""
"","response","","html-keyboard-response","125","287774","0.0-1.0-167.0","0","0","54729","","1799","","","75","18","","","1","18","training","adjacent","GF","7","6","L.jpg","O.jpg","1","0","0","",""
"","feedback","","html-keyboard-response","126","288776","0.0-1.0-168.0-0.0","0","0","54729","","null","","","null","18","","","","","","","","","","","","","","","",""
"","time_out","","html-keyboard-response","127","290778","0.0-1.0-170.0-0.0","0","0","54729","","null","","","null","18","","","","","","","","","","","","","","","",""
"","ITI","","html-keyboard-response","128","291780","0.0-1.0-171.0","0","0","54729","","null","","","null","18","","","","","","","","","","","","","","","NaN",""
"","S1","","html-keyboard-response","129","292032","0.0-1.0-173.0","0","0","54729","","null","","","null","19","","","","","","","","","","","","","","","",""
"","ISI","","html-keyboard-response","130","294041","0.0-1.0-174.0","0","0","54729","","null","","","null","19","NaN","","","","","","","","","","","","","","",""
"","S2","","html-keyboard-response","131","294294","0.0-1.0-175.0","0","0","54729","","null","","","null","19","","NaN","","","","","","","","","","","","","",""
"","response","","html-keyboard-response","132","295829","0.0-1.0-176.0","0","0","54729","","1534","","","68","19","","","1","19","training","adjacent","CD","3","4","R.jpg","P.jpg","0","1","0","",""
"","feedback","","html-keyboard-response","133","296831","0.0-1.0-177.0-0.0","0","0","54729","","null","","","null","19","","","","","","","","","","","","","","","",""
"","time_out","","html-keyboard-response","134","298833","0.0-1.0-179.0-0.0","0","0","54729","","null","","","null","19","","","","","","","","","","","","","","","",""
"","ITI","","html-keyboard-response","135","299834","0.0-1.0-180.0","0","0","54729","","null","","","null","19","","","","","","","","","","","","","","","NaN",""
"","S1","","html-keyboard-response","136","300086","0.0-1.0-182.0","0","0","54729","","null","","","null","20","","","","","","","","","","","","","","","",""
"","ISI","","html-keyboard-response","137","302087","0.0-1.0-183.0","0","0","54729","","null","","","null","20","NaN","","","","","","","","","","","","","","",""
"","S2","","html-keyboard-response","138","302339","0.0-1.0-184.0","0","0","54729","","null","","","null","20","","NaN","","","","","","","","","","","","","",""
"","response","","html-keyboard-response","139","302966","0.0-1.0-185.0","0","0","54729","","626","","","75","20","","","1","20","training","adjacent","CB","3","2","R.jpg","M.jpg","1","0","0","",""
"","feedback","","html-keyboard-response","140","303967","0.0-1.0-186.0-0.0","0","0","54729","","null","","","null","20","","","","","","","","","","","","","","","",""
"","time_out","","html-keyboard-response","141","305969","0.0-1.0-188.0-0.0","0","0","54729","","null","","","null","20","","","","","","","","","","","","","","","",""
"","ITI","","html-keyboard-response","142","306972","0.0-1.0-189.0","0","0","54729","","null","","","null","20","","","","","","","","","","","","","","","NaN",""
"","S1","","html-keyboard-response","143","307225","0.0-1.0-191.0","0","0","54729","","null","","","null","21","","","","","","","","","","","","","","","",""
"","ISI","","html-keyboard-response","144","309226","0.0-1.0-192.0","0","0","54729","","null","","","null","21","NaN","","","","","","","","","","","","","","",""
"","S2","","html-keyboard-response","145","309478","0.0-1.0-193.0","0","0","54729","","null","","","null","21","","NaN","","","","","","","","","","","","","",""
"","response","","html-keyboard-response","146","309821","0.0-1.0-194.0","0","0","54729","","342","","","75","21","","","1","21","training","adjacent","ED","5","4","Q.jpg","P.jpg","1","0","0","",""
"","feedback","","html-keyboard-response","147","310823","0.0-1.0-195.0-0.0","0","0","54729","","null","","","null","21","","","","","","","","","","","","","","","",""
"","time_out","","html-keyboard-response","148","312825","0.0-1.0-197.0-0.0","0","0","54729","","null","","","null","21","","","","","","","","","","","","","","","",""
"","ITI","","html-keyboard-response","149","313828","0.0-1.0-198.0","0","0","54729","","null","","","null","21","","","","","","","","","","","","","","","NaN",""
"","S1","","html-keyboard-response","150","314081","0.0-1.0-200.0","0","0","54729","","null","","","null","22","","","","","","","","","","","","","","","",""
"","ISI","","html-keyboard-response","151","316082","0.0-1.0-201.0","0","0","54729","","null","","","null","22","NaN","","","","","","","","","","","","","","",""
"","S2","","html-keyboard-response","152","316334","0.0-1.0-202.0","0","0","54729","","null","","","null","22","","NaN","","","","","","","","","","","","","",""
"","response","","html-keyboard-response","153","317182","0.0-1.0-203.0","0","0","54729","","847","","","68","22","","","1","22","training","adjacent","DE","4","5","P.jpg","Q.jpg","0","1","0","",""
"","feedback","","html-keyboard-response","154","318184","0.0-1.0-204.0-0.0","0","0","54729","","null","","","null","22","","","","","","","","","","","","","","","",""
"","time_out","","html-keyboard-response","155","320187","0.0-1.0-206.0-0.0","0","0","54729","","null","","","null","22","","","","","","","","","","","","","","","",""
"","ITI","","html-keyboard-response","156","321189","0.0-1.0-207.0","0","0","54729","","null","","","null","22","","","","","","","","","","","","","","","NaN",""
"","S1","","html-keyboard-response","157","321441","0.0-1.0-209.0","0","0","54729","","null","","","null","23","","","","","","","","","","","","","","","",""
"","ISI","","html-keyboard-response","158","323443","0.0-1.0-210.0","0","0","54729","","null","","","null","23","NaN","","","","","","","","","","","","","","",""
"","S2","","html-keyboard-response","159","323696","0.0-1.0-211.0","0","0","54729","","null","","","null","23","","NaN","","","","","","","","","","","","","",""
"","response","","html-keyboard-response","160","324421","0.0-1.0-212.0","0","0","54729","","724","","","75","23","","","1","23","training","adjacent","BA","2","1","M.jpg","N.jpg","1","0","0","",""
"","feedback","","html-keyboard-response","161","325423","0.0-1.0-213.0-0.0","0","0","54729","","null","","","null","23","","","","","","","","","","","","","","","",""
"","time_out","","html-keyboard-response","162","327425","0.0-1.0-215.0-0.0","0","0","54729","","null","","","null","23","","","","","","","","","","","","","","","",""
"","ITI","","html-keyboard-response","163","328427","0.0-1.0-216.0","0","0","54729","","null","","","null","23","","","","","","","","","","","","","","","NaN",""
"","S1","","html-keyboard-response","164","328679","0.0-1.0-218.0","0","0","54729","","null","","","null","24","","","","","","","","","","","","","","","",""
"","ISI","","html-keyboard-response","165","330680","0.0-1.0-219.0","0","0","54729","","null","","","null","24","NaN","","","","","","","","","","","","","","",""
"","S2","","html-keyboard-response","166","330932","0.0-1.0-220.0","0","0","54729","","null","","","null","24","","NaN","","","","","","","","","","","","","",""
"","response","","html-keyboard-response","167","331294","0.0-1.0-221.0","0","0","54729","","360","","","68","24","","","1","24","training","adjacent","CD","3","4","R.jpg","P.jpg","0","1","0","",""
"","feedback","","html-keyboard-response","168","332297","0.0-1.0-222.0-0.0","0","0","54729","","null","","","null","24","","","","","","","","","","","","","","","",""
"","time_out","","html-keyboard-response","169","334299","0.0-1.0-224.0-0.0","0","0","54729","","null","","","null","24","","","","","","","","","","","","","","","",""
"","ITI","","html-keyboard-response","170","335301","0.0-1.0-225.0","0","0","54729","","null","","","null","24","","","","","","","","","","","","","","","NaN",""
"","S1","","html-keyboard-response","171","335554","0.0-1.0-227.0","0","0","54729","","null","","","null","25","","","","","","","","","","","","","","","",""
"","ISI","","html-keyboard-response","172","337556","0.0-1.0-228.0","0","0","54729","","null","","","null","25","NaN","","","","","","","","","","","","","","",""
"","S2","","html-keyboard-response","173","337808","0.0-1.0-229.0","0","0","54729","","null","","","null","25","","NaN","","","","","","","","","","","","","",""
"","response","","html-keyboard-response","174","338725","0.0-1.0-230.0","0","0","54729","","916","","","68","25","","","1","25","training","adjacent","DC","4","3","P.jpg","R.jpg","0","0","1","",""
"","feedback","","html-keyboard-response","175","339727","0.0-1.0-231.0-0.0","0","0","54729","","null","","","null","25","","","","","","","","","","","","","","","",""
"","ITI","","html-keyboard-response","176","340730","0.0-1.0-234.0","0","0","54729","","null","","","null","25","","","","","","","","","","","","","","","NaN",""
"","S1","","html-keyboard-response","177","340982","0.0-1.0-236.0","0","0","54729","","null","","","null","26","","","","","","","","","","","","","","","",""
"","ISI","","html-keyboard-response","178","342984","0.0-1.0-237.0","0","0","54729","","null","","","null","26","NaN","","","","","","","","","","","","","","",""
"","S2","","html-keyboard-response","179","343236","0.0-1.0-238.0","0","0","54729","","null","","","null","26","","NaN","","","","","","","","","","","","","",""
"","response","","html-keyboard-response","180","343910","0.0-1.0-239.0","0","0","54729","","672","","","68","26","","","1","26","training","adjacent","FG","6","7","O.jpg","L.jpg","0","1","0","",""
"","feedback","","html-keyboard-response","181","344912","0.0-1.0-240.0-0.0","0","0","54729","","null","","","null","26","","","","","","","","","","","","","","","",""
"","time_out","","html-keyboard-response","182","346914","0.0-1.0-242.0-0.0","0","0","54729","","null","","","null","26","","","","","","","","","","","","","","","",""
"","ITI","","html-keyboard-response","183","347916","0.0-1.0-243.0","0","0","54729","","null","","","null","26","","","","","","","","","","","","","","","NaN",""
"","S1","","html-keyboard-response","184","348168","0.0-1.0-245.0","0","0","54729","","null","","","null","27","","","","","","","","","","","","","","","",""
"","ISI","","html-keyboard-response","185","350170","0.0-1.0-246.0","0","0","54729","","null","","","null","27","NaN","","","","","","","","","","","","","","",""
"","S2","","html-keyboard-response","186","350422","0.0-1.0-247.0","0","0","54729","","null","","","null","27","","NaN","","","","","","","","","","","","","",""
"","response","","html-keyboard-response","187","351525","0.0-1.0-248.0","0","0","54729","","1102","","","68","27","","","1","27","training","adjacent","FE","6","5","O.jpg","Q.jpg","0","0","1","",""
"","feedback","","html-keyboard-response","188","352528","0.0-1.0-249.0-0.0","0","0","54729","","null","","","null","27","","","","","","","","","","","","","","","",""
"","ITI","","html-keyboard-response","189","353529","0.0-1.0-252.0","0","0","54729","","null","","","null","27","","","","","","","","","","","","","","","NaN",""
"","S1","","html-keyboard-response","190","353781","0.0-1.0-254.0","0","0","54729","","null","","","null","28","","","","","","","","","","","","","","","",""
"","ISI","","html-keyboard-response","191","355782","0.0-1.0-255.0","0","0","54729","","null","","","null","28","NaN","","","","","","","","","","","","","","",""
"","S2","","html-keyboard-response","192","356034","0.0-1.0-256.0","0","0","54729","","null","","","null","28","","NaN","","","","","","","","","","","","","",""
"","response","","html-keyboard-response","193","356486","0.0-1.0-257.0","0","0","54729","","450","","","75","28","","","1","28","training","adjacent","EF","5","6","Q.jpg","O.jpg","1","1","1","",""
"","feedback","","html-keyboard-response","194","357489","0.0-1.0-258.0-0.0","0","0","54729","","null","","","null","28","","","","","","","","","","","","","","","",""
"","ITI","","html-keyboard-response","195","358490","0.0-1.0-261.0","0","0","54729","","null","","","null","28","","","","","","","","","","","","","","","NaN",""
"","S1","","html-keyboard-response","196","358742","0.0-1.0-263.0","0","0","54729","","null","","","null","29","","","","","","","","","","","","","","","",""
"","ISI","","html-keyboard-response","197","360744","0.0-1.0-264.0","0","0","54729","","null","","","null","29","NaN","","","","","","","","","","","","","","",""
"","S2","","html-keyboard-response","198","360996","0.0-1.0-265.0","0","0","54729","","null","","","null","29","","NaN","","","","","","","","","","","","","",""
"","response","","html-keyboard-response","199","362445","0.0-1.0-266.0","0","0","54729","","1447","","","68","29","","","1","29","training","adjacent","FE","6","5","O.jpg","Q.jpg","0","0","1","",""
"","feedback","","html-keyboard-response","200","363447","0.0-1.0-267.0-0.0","0","0","54729","","null","","","null","29","","","","","","","","","","","","","","","",""
"","ITI","","html-keyboard-response","201","364449","0.0-1.0-270.0","0","0","54729","","null","","","null","29","","","","","","","","","","","","","","","NaN",""
"","S1","","html-keyboard-response","202","364701","0.0-1.0-272.0","0","0","54729","","null","","","null","30","","","","","","","","","","","","","","","",""
"","ISI","","html-keyboard-response","203","366703","0.0-1.0-273.0","0","0","54729","","null","","","null","30","NaN","","","","","","","","","","","","","","",""
"","S2","","html-keyboard-response","204","366956","0.0-1.0-274.0","0","0","54729","","null","","","null","30","","NaN","","","","","","","","","","","","","",""
"","response","","html-keyboard-response","205","368110","0.0-1.0-275.0","0","0","54729","","1153","","","75","30","","","1","30","training","adjacent","CD","3","4","R.jpg","P.jpg","1","1","1","",""
"","feedback","","html-keyboard-response","206","369113","0.0-1.0-276.0-0.0","0","0","54729","","null","","","null","30","","","","","","","","","","","","","","","",""
"","ITI","","html-keyboard-response","207","370114","0.0-1.0-279.0","0","0","54729","","null","","","null","30","","","","","","","","","","","","","","","NaN",""
"","S1","","html-keyboard-response","208","370367","0.0-1.0-281.0","0","0","54729","","null","","","null","31","","","","","","","","","","","","","","","",""
"","ISI","","html-keyboard-response","209","372370","0.0-1.0-282.0","0","0","54729","","null","","","null","31","NaN","","","","","","","","","","","","","","",""
"","S2","","html-keyboard-response","210","372623","0.0-1.0-283.0","0","0","54729","","null","","","null","31","","NaN","","","","","","","","","","","","","",""
"","response","","html-keyboard-response","211","374253","0.0-1.0-284.0","0","0","54729","","1629","","","68","31","","","1","31","training","adjacent","DC","4","3","P.jpg","R.jpg","0","0","1","",""
"","feedback","","html-keyboard-response","212","375257","0.0-1.0-285.0-0.0","0","0","54729","","null","","","null","31","","","","","","","","","","","","","","","",""
"","ITI","","html-keyboard-response","213","376259","0.0-1.0-288.0","0","0","54729","","null","","","null","31","","","","","","","","","","","","","","","NaN",""
"","S1","","html-keyboard-response","214","376511","0.0-1.0-290.0","0","0","54729","","null","","","null","32","","","","","","","","","","","","","","","",""
"","ISI","","html-keyboard-response","215","378512","0.0-1.0-291.0","0","0","54729","","null","","","null","32","NaN","","","","","","","","","","","","","","",""
"","S2","","html-keyboard-response","216","378764","0.0-1.0-292.0","0","0","54729","","null","","","null","32","","NaN","","","","","","","","","","","","","",""
"","response","","html-keyboard-response","217","380430","0.0-1.0-293.0","0","0","54729","","1665","","","68","32","","","1","32","training","adjacent","BA","2","1","M.jpg","N.jpg","0","0","1","",""
"","feedback","","html-keyboard-response","218","381432","0.0-1.0-294.0-0.0","0","0","54729","","null","","","null","32","","","","","","","","","","","","","","","",""
"","ITI","","html-keyboard-response","219","382434","0.0-1.0-297.0","0","0","54729","","null","","","null","32","","","","","","","","","","","","","","","NaN",""
"","S1","","html-keyboard-response","220","382686","0.0-1.0-299.0","0","0","54729","","null","","","null","33","","","","","","","","","","","","","","","",""
"","ISI","","html-keyboard-response","221","384689","0.0-1.0-300.0","0","0","54729","","null","","","null","33","NaN","","","","","","","","","","","","","","",""
"","S2","","html-keyboard-response","222","384941","0.0-1.0-301.0","0","0","54729","","null","","","null","33","","NaN","","","","","","","","","","","","","",""
"","response","","html-keyboard-response","223","386141","0.0-1.0-302.0","0","0","54729","","1199","","","68","33","","","1","33","training","adjacent","DC","4","3","P.jpg","R.jpg","0","0","1","",""
"","feedback","","html-keyboard-response","224","387142","0.0-1.0-303.0-0.0","0","0","54729","","null","","","null","33","","","","","","","","","","","","","","","",""
"","ITI","","html-keyboard-response","225","388144","0.0-1.0-306.0","0","0","54729","","null","","","null","33","","","","","","","","","","","","","","","NaN",""
"","S1","","html-keyboard-response","226","388397","0.0-1.0-308.0","0","0","54729","","null","","","null","34","","","","","","","","","","","","","","","",""
"","ISI","","html-keyboard-response","227","390399","0.0-1.0-309.0","0","0","54729","","null","","","null","34","NaN","","","","","","","","","","","","","","",""
"","S2","","html-keyboard-response","228","390651","0.0-1.0-310.0","0","0","54729","","null","","","null","34","","NaN","","","","","","","","","","","","","",""
"","response","","html-keyboard-response","229","391518","0.0-1.0-311.0","0","0","54729","","866","","","68","34","","","1","34","training","adjacent","GF","7","6","L.jpg","O.jpg","0","0","1","",""
"","feedback","","html-keyboard-response","230","392520","0.0-1.0-312.0-0.0","0","0","54729","","null","","","null","34","","","","","","","","","","","","","","","",""
"","ITI","","html-keyboard-response","231","393522","0.0-1.0-315.0","0","0","54729","","null","","","null","34","","","","","","","","","","","","","","","NaN",""
"","S1","","html-keyboard-response","232","393774","0.0-1.0-317.0","0","0","54729","","null","","","null","35","","","","","","","","","","","","","","","",""
"","ISI","","html-keyboard-response","233","395776","0.0-1.0-318.0","0","0","54729","","null","","","null","35","NaN","","","","","","","","","","","","","","",""
"","S2","","html-keyboard-response","234","396029","0.0-1.0-319.0","0","0","54729","","null","","","null","35","","NaN","","","","","","","","","","","","","",""
"","response","","html-keyboard-response","235","397637","0.0-1.0-320.0","0","0","54729","","1607","","","75","35","","","1","35","training","adjacent","FG","6","7","O.jpg","L.jpg","1","1","1","",""
"","feedback","","html-keyboard-response","236","398638","0.0-1.0-321.0-0.0","0","0","54729","","null","","","null","35","","","","","","","","","","","","","","","",""
"","ITI","","html-keyboard-response","237","399640","0.0-1.0-324.0","0","0","54729","","null","","","null","35","","","","","","","","","","","","","","","NaN",""
"","S1","","html-keyboard-response","238","399893","0.0-1.0-326.0","0","0","54729","","null","","","null","36","","","","","","","","","","","","","","","",""
"","ISI","","html-keyboard-response","239","401894","0.0-1.0-327.0","0","0","54729","","null","","","null","36","NaN","","","","","","","","","","","","","","",""
"","S2","","html-keyboard-response","240","402146","0.0-1.0-328.0","0","0","54729","","null","","","null","36","","NaN","","","","","","","","","","","","","",""
"","response","","html-keyboard-response","241","403486","0.0-1.0-329.0","0","0","54729","","1337","","","68","36","","","1","36","training","adjacent","CB","3","2","R.jpg","M.jpg","0","0","1","",""
"","feedback","","html-keyboard-response","242","404488","0.0-1.0-330.0-0.0","0","0","54729","","null","","","null","36","","","","","","","","","","","","","","","",""
"","ITI","","html-keyboard-response","243","405490","0.0-1.0-333.0","0","0","54729","","null","","","null","36","","","","","","","","","","","","","","","NaN",""
"","S1","","html-keyboard-response","244","405742","0.0-1.0-335.0","0","0","54729","","null","","","null","37","","","","","","","","","","","","","","","",""
"","ISI","","html-keyboard-response","245","407744","0.0-1.0-336.0","0","0","54729","","null","","","null","37","NaN","","","","","","","","","","","","","","",""
"","S2","","html-keyboard-response","246","407996","0.0-1.0-337.0","0","0","54729","","null","","","null","37","","NaN","","","","","","","","","","","","","",""
"","response","","html-keyboard-response","247","409629","0.0-1.0-338.0","0","0","54729","","1632","","","68","37","","","1","37","training","adjacent","CD","3","4","R.jpg","P.jpg","0","1","0","",""
"","feedback","","html-keyboard-response","248","410631","0.0-1.0-339.0-0.0","0","0","54729","","null","","","null","37","","","","","","","","","","","","","","","",""
"","time_out","","html-keyboard-response","249","412633","0.0-1.0-341.0-0.0","0","0","54729","","null","","","null","37","","","","","","","","","","","","","","","",""
"","ITI","","html-keyboard-response","250","413634","0.0-1.0-342.0","0","0","54729","","null","","","null","37","","","","","","","","","","","","","","","NaN",""
"","S1","","html-keyboard-response","251","413886","0.0-1.0-344.0","0","0","54729","","null","","","null","38","","","","","","","","","","","","","","","",""
"","ISI","","html-keyboard-response","252","415888","0.0-1.0-345.0","0","0","54729","","null","","","null","38","NaN","","","","","","","","","","","","","","",""
"","S2","","html-keyboard-response","253","416140","0.0-1.0-346.0","0","0","54729","","null","","","null","38","","NaN","","","","","","","","","","","","","",""
"","response","","html-keyboard-response","254","417582","0.0-1.0-347.0","0","0","54729","","1440","","","75","38","","","1","38","training","adjacent","AB","1","2","N.jpg","M.jpg","1","1","1","",""
"","feedback","","html-keyboard-response","255","418584","0.0-1.0-348.0-0.0","0","0","54729","","null","","","null","38","","","","","","","","","","","","","","","",""
"","ITI","","html-keyboard-response","256","419586","0.0-1.0-351.0","0","0","54729","","null","","","null","38","","","","","","","","","","","","","","","NaN",""
"","S1","","html-keyboard-response","257","419838","0.0-1.0-353.0","0","0","54729","","null","","","null","39","","","","","","","","","","","","","","","",""
"","ISI","","html-keyboard-response","258","421840","0.0-1.0-354.0","0","0","54729","","null","","","null","39","NaN","","","","","","","","","","","","","","",""
"","S2","","html-keyboard-response","259","422092","0.0-1.0-355.0","0","0","54729","","null","","","null","39","","NaN","","","","","","","","","","","","","",""
"","response","","html-keyboard-response","260","423181","0.0-1.0-356.0","0","0","54729","","1087","","","75","39","","","1","39","training","adjacent","AB","1","2","N.jpg","M.jpg","1","1","1","",""
"","feedback","","html-keyboard-response","261","424182","0.0-1.0-357.0-0.0","0","0","54729","","null","","","null","39","","","","","","","","","","","","","","","",""
"","ITI","","html-keyboard-response","262","425183","0.0-1.0-360.0","0","0","54729","","null","","","null","39","","","","","","","","","","","","","","","NaN",""
"","S1","","html-keyboard-response","263","425435","0.0-1.0-362.0","0","0","54729","","null","","","null","40","","","","","","","","","","","","","","","",""
"","ISI","","html-keyboard-response","264","427438","0.0-1.0-363.0","0","0","54729","","null","","","null","40","NaN","","","","","","","","","","","","","","",""
"","S2","","html-keyboard-response","265","427689","0.0-1.0-364.0","0","0","54729","","null","","","null","40","","NaN","","","","","","","","","","","","","",""
"","response","","html-keyboard-response","266","429286","0.0-1.0-365.0","0","0","54729","","1596","","","75","40","","","1","40","training","adjacent","DE","4","5","P.jpg","Q.jpg","1","1","1","",""
"","feedback","","html-keyboard-response","267","430288","0.0-1.0-366.0-0.0","0","0","54729","","null","","","null","40","","","","","","","","","","","","","","","",""
"","ITI","","html-keyboard-response","268","431291","0.0-1.0-369.0","0","0","54729","","null","","","null","40","","","","","","","","","","","","","","","NaN",""
"","S1","","html-keyboard-response","269","431543","0.0-1.0-371.0","0","0","54729","","null","","","null","41","","","","","","","","","","","","","","","",""
"","ISI","","html-keyboard-response","270","433544","0.0-1.0-372.0","0","0","54729","","null","","","null","41","NaN","","","","","","","","","","","","","","",""
"","S2","","html-keyboard-response","271","433796","0.0-1.0-373.0","0","0","54729","","null","","","null","41","","NaN","","","","","","","","","","","","","",""
"","response","","html-keyboard-response","272","434469","0.0-1.0-374.0","0","0","54729","","671","","","68","41","","","1","41","training","adjacent","DC","4","3","P.jpg","R.jpg","0","0","1","",""
"","feedback","","html-keyboard-response","273","435471","0.0-1.0-375.0-0.0","0","0","54729","","null","","","null","41","","","","","","","","","","","","","","","",""
"","ITI","","html-keyboard-response","274","436473","0.0-1.0-378.0","0","0","54729","","null","","","null","41","","","","","","","","","","","","","","","NaN",""
"","S1","","html-keyboard-response","275","436725","0.0-1.0-380.0","0","0","54729","","null","","","null","42","","","","","","","","","","","","","","","",""
"","ISI","","html-keyboard-response","276","438727","0.0-1.0-381.0","0","0","54729","","null","","","null","42","NaN","","","","","","","","","","","","","","",""
"","S2","","html-keyboard-response","277","438979","0.0-1.0-382.0","0","0","54729","","null","","","null","42","","NaN","","","","","","","","","","","","","",""
"","response","","html-keyboard-response","278","439398","0.0-1.0-383.0","0","0","54729","","418","","","75","42","","","1","42","training","adjacent","ED","5","4","Q.jpg","P.jpg","1","0","0","",""
"","feedback","","html-keyboard-response","279","440401","0.0-1.0-384.0-0.0","0","0","54729","","null","","","null","42","","","","","","","","","","","","","","","",""
"","time_out","","html-keyboard-response","280","442403","0.0-1.0-386.0-0.0","0","0","54729","","null","","","null","42","","","","","","","","","","","","","","","",""
"","ITI","","html-keyboard-response","281","443404","0.0-1.0-387.0","0","0","54729","","null","","","null","42","","","","","","","","","","","","","","","NaN",""
"","S1","","html-keyboard-response","282","443657","0.0-1.0-389.0","0","0","54729","","null","","","null","43","","","","","","","","","","","","","","","",""
"","ISI","","html-keyboard-response","283","445659","0.0-1.0-390.0","0","0","54729","","null","","","null","43","NaN","","","","","","","","","","","","","","",""
"","S2","","html-keyboard-response","284","445911","0.0-1.0-391.0","0","0","54729","","null","","","null","43","","NaN","","","","","","","","","","","","","",""
"","response","","html-keyboard-response","285","447133","0.0-1.0-392.0","0","0","54729","","1221","","","68","43","","","1","43","training","adjacent","ED","5","4","Q.jpg","P.jpg","0","0","1","",""
"","feedback","","html-keyboard-response","286","448135","0.0-1.0-393.0-0.0","0","0","54729","","null","","","null","43","","","","","","","","","","","","","","","",""
"","ITI","","html-keyboard-response","287","449145","0.0-1.0-396.0","0","0","54729","","null","","","null","43","","","","","","","","","","","","","","","NaN",""
"","S1","","html-keyboard-response","288","449397","0.0-1.0-398.0","0","0","54729","","null","","","null","44","","","","","","","","","","","","","","","",""
"","ISI","","html-keyboard-response","289","451399","0.0-1.0-399.0","0","0","54729","","null","","","null","44","NaN","","","","","","","","","","","","","","",""
"","S2","","html-keyboard-response","290","451652","0.0-1.0-400.0","0","0","54729","","null","","","null","44","","NaN","","","","","","","","","","","","","",""
"","response","","html-keyboard-response","291","452974","0.0-1.0-401.0","0","0","54729","","1321","","","75","44","","","1","44","training","adjacent","BA","2","1","M.jpg","N.jpg","1","0","0","",""
"","feedback","","html-keyboard-response","292","453976","0.0-1.0-402.0-0.0","0","0","54729","","null","","","null","44","","","","","","","","","","","","","","","",""
"","time_out","","html-keyboard-response","293","455979","0.0-1.0-404.0-0.0","0","0","54729","","null","","","null","44","","","","","","","","","","","","","","","",""
"","ITI","","html-keyboard-response","294","456982","0.0-1.0-405.0","0","0","54729","","null","","","null","44","","","","","","","","","","","","","","","NaN",""
"","S1","","html-keyboard-response","295","457233","0.0-1.0-407.0","0","0","54729","","null","","","null","45","","","","","","","","","","","","","","","",""
"","ISI","","html-keyboard-response","296","459236","0.0-1.0-408.0","0","0","54729","","null","","","null","45","NaN","","","","","","","","","","","","","","",""
"","S2","","html-keyboard-response","297","459488","0.0-1.0-409.0","0","0","54729","","null","","","null","45","","NaN","","","","","","","","","","","","","",""
"","response","","html-keyboard-response","298","460709","0.0-1.0-410.0","0","0","54729","","1220","","","75","45","","","1","45","training","adjacent","ED","5","4","Q.jpg","P.jpg","1","0","0","",""
"","feedback","","html-keyboard-response","299","461710","0.0-1.0-411.0-0.0","0","0","54729","","null","","","null","45","","","","","","","","","","","","","","","",""
"","time_out","","html-keyboard-response","300","463712","0.0-1.0-413.0-0.0","0","0","54729","","null","","","null","45","","","","","","","","","","","","","","","",""
"","ITI","","html-keyboard-response","301","464714","0.0-1.0-414.0","0","0","54729","","null","","","null","45","","","","","","","","","","","","","","","NaN",""
"","S1","","html-keyboard-response","302","464966","0.0-1.0-416.0","0","0","54729","","null","","","null","46","","","","","","","","","","","","","","","",""
"","ISI","","html-keyboard-response","303","466967","0.0-1.0-417.0","0","0","54729","","null","","","null","46","NaN","","","","","","","","","","","","","","",""
"","S2","","html-keyboard-response","304","467219","0.0-1.0-418.0","0","0","54729","","null","","","null","46","","NaN","","","","","","","","","","","","","",""
"","response","","html-keyboard-response","305","468414","0.0-1.0-419.0","0","0","54729","","1193","","","75","46","","","1","46","training","adjacent","GF","7","6","L.jpg","O.jpg","1","0","0","",""
"","feedback","","html-keyboard-response","306","469417","0.0-1.0-420.0-0.0","0","0","54729","","null","","","null","46","","","","","","","","","","","","","","","",""
"","time_out","","html-keyboard-response","307","471418","0.0-1.0-422.0-0.0","0","0","54729","","null","","","null","46","","","","","","","","","","","","","","","",""
"","ITI","","html-keyboard-response","308","472420","0.0-1.0-423.0","0","0","54729","","null","","","null","46","","","","","","","","","","","","","","","NaN",""
"","S1","","html-keyboard-response","309","472673","0.0-1.0-425.0","0","0","54729","","null","","","null","47","","","","","","","","","","","","","","","",""
"","ISI","","html-keyboard-response","310","474674","0.0-1.0-426.0","0","0","54729","","null","","","null","47","NaN","","","","","","","","","","","","","","",""
"","S2","","html-keyboard-response","311","474926","0.0-1.0-427.0","0","0","54729","","null","","","null","47","","NaN","","","","","","","","","","","","","",""
"","response","","html-keyboard-response","312","475749","0.0-1.0-428.0","0","0","54729","","822","","","75","47","","","1","47","training","adjacent","BC","2","3","M.jpg","R.jpg","1","1","1","",""
"","feedback","","html-keyboard-response","313","476751","0.0-1.0-429.0-0.0","0","0","54729","","null","","","null","47","","","","","","","","","","","","","","","",""
"","ITI","","html-keyboard-response","314","477754","0.0-1.0-432.0","0","0","54729","","null","","","null","47","","","","","","","","","","","","","","","NaN",""
"","block_over","","html-keyboard-response","315","483006","0.0-1.0-433.0-0.0","0","0","54729","","5250","","","32","47","","","","","","","","","","","","","","","",""
"","S1","","html-keyboard-response","316","483257","0.0-1.0-434.0","0","0","54729","","null","","","null","48","","","","","","","","","","","","","","","",""
"","ISI","","html-keyboard-response","317","485260","0.0-1.0-435.0","0","0","54729","","null","","","null","48","NaN","","","","","","","","","","","","","","",""
"","S2","","html-keyboard-response","318","485512","0.0-1.0-436.0","0","0","54729","","null","","","null","48","","NaN","","","","","","","","","","","","","",""
"","response","","html-keyboard-response","319","486629","0.0-1.0-437.0","0","0","54729","","1116","","","75","48","","","2","48","training","adjacent","FG","6","7","O.jpg","L.jpg","1","1","1","",""
"","feedback","","html-keyboard-response","320","487630","0.0-1.0-438.0-0.0","0","0","54729","","null","","","null","48","","","","","","","","","","","","","","","",""
"","ITI","","html-keyboard-response","321","488632","0.0-1.0-441.0","0","0","54729","","null","","","null","48","","","","","","","","","","","","","","","NaN",""
"","S1","","html-keyboard-response","322","488884","0.0-1.0-443.0","0","0","54729","","null","","","null","49","","","","","","","","","","","","","","","",""
"","ISI","","html-keyboard-response","323","490887","0.0-1.0-444.0","0","0","54729","","null","","","null","49","NaN","","","","","","","","","","","","","","",""
"","S2","","html-keyboard-response","324","491139","0.0-1.0-445.0","0","0","54729","","null","","","null","49","","NaN","","","","","","","","","","","","","",""
"","response","","html-keyboard-response","325","491773","0.0-1.0-446.0","0","0","54729","","632","","","75","49","","","2","49","training","adjacent","FG","6","7","O.jpg","L.jpg","1","1","1","",""
"","feedback","","html-keyboard-response","326","492774","0.0-1.0-447.0-0.0","0","0","54729","","null","","","null","49","","","","","","","","","","","","","","","",""
"","ITI","","html-keyboard-response","327","493776","0.0-1.0-450.0","0","0","54729","","null","","","null","49","","","","","","","","","","","","","","","NaN",""
"","S1","","html-keyboard-response","328","494029","0.0-1.0-452.0","0","0","54729","","null","","","null","50","","","","","","","","","","","","","","","",""
"","ISI","","html-keyboard-response","329","496031","0.0-1.0-453.0","0","0","54729","","null","","","null","50","NaN","","","","","","","","","","","","","","",""
"","S2","","html-keyboard-response","330","496283","0.0-1.0-454.0","0","0","54729","","null","","","null","50","","NaN","","","","","","","","","","","","","",""
"","response","","html-keyboard-response","331","497630","0.0-1.0-455.0","0","0","54729","","1346","","","75","50","","","2","50","training","adjacent","EF","5","6","Q.jpg","O.jpg","1","1","1","",""
"","feedback","","html-keyboard-response","332","498642","0.0-1.0-456.0-0.0","0","0","54729","","null","","","null","50","","","","","","","","","","","","","","","",""
"","ITI","","html-keyboard-response","333","499652","0.0-1.0-459.0","0","0","54729","","null","","","null","50","","","","","","","","","","","","","","","NaN",""
"","S1","","html-keyboard-response","334","499904","0.0-1.0-461.0","0","0","54729","","null","","","null","51","","","","","","","","","","","","","","","",""
"","ISI","","html-keyboard-response","335","501906","0.0-1.0-462.0","0","0","54729","","null","","","null","51","NaN","","","","","","","","","","","","","","",""
"","S2","","html-keyboard-response","336","502158","0.0-1.0-463.0","0","0","54729","","null","","","null","51","","NaN","","","","","","","","","","","","","",""
"","response","","html-keyboard-response","337","503789","0.0-1.0-464.0","0","0","54729","","1629","","","68","51","","","2","51","training","adjacent","FE","6","5","O.jpg","Q.jpg","0","0","1","",""
"","feedback","","html-keyboard-response","338","504790","0.0-1.0-465.0-0.0","0","0","54729","","null","","","null","51","","","","","","","","","","","","","","","",""
"","ITI","","html-keyboard-response","339","505792","0.0-1.0-468.0","0","0","54729","","null","","","null","51","","","","","","","","","","","","","","","NaN",""
"","S1","","html-keyboard-response","340","506044","0.0-1.0-470.0","0","0","54729","","null","","","null","52","","","","","","","","","","","","","","","",""
"","ISI","","html-keyboard-response","341","508046","0.0-1.0-471.0","0","0","54729","","null","","","null","52","NaN","","","","","","","","","","","","","","",""
"","S2","","html-keyboard-response","342","508297","0.0-1.0-472.0","0","0","54729","","null","","","null","52","","NaN","","","","","","","","","","","","","",""
"","response","","html-keyboard-response","343","509726","0.0-1.0-473.0","0","0","54729","","1427","","","68","52","","","2","52","training","adjacent","CD","3","4","R.jpg","P.jpg","0","1","0","",""
"","feedback","","html-keyboard-response","344","510728","0.0-1.0-474.0-0.0","0","0","54729","","null","","","null","52","","","","","","","","","","","","","","","",""
"","time_out","","html-keyboard-response","345","512730","0.0-1.0-476.0-0.0","0","0","54729","","null","","","null","52","","","","","","","","","","","","","","","",""
"","ITI","","html-keyboard-response","346","513732","0.0-1.0-477.0","0","0","54729","","null","","","null","52","","","","","","","","","","","","","","","NaN",""
"","S1","","html-keyboard-response","347","513985","0.0-1.0-479.0","0","0","54729","","null","","","null","53","","","","","","","","","","","","","","","",""
"","ISI","","html-keyboard-response","348","515987","0.0-1.0-480.0","0","0","54729","","null","","","null","53","NaN","","","","","","","","","","","","","","",""
"","S2","","html-keyboard-response","349","516239","0.0-1.0-481.0","0","0","54729","","null","","","null","53","","NaN","","","","","","","","","","","","","",""
"","response","","html-keyboard-response","350","516933","0.0-1.0-482.0","0","0","54729","","693","","","75","53","","","2","53","training","adjacent","FG","6","7","O.jpg","L.jpg","1","1","1","",""
"","feedback","","html-keyboard-response","351","517935","0.0-1.0-483.0-0.0","0","0","54729","","null","","","null","53","","","","","","","","","","","","","","","",""
"","ITI","","html-keyboard-response","352","518937","0.0-1.0-486.0","0","0","54729","","null","","","null","53","","","","","","","","","","","","","","","NaN",""
"","S1","","html-keyboard-response","353","519189","0.0-1.0-488.0","0","0","54729","","null","","","null","54","","","","","","","","","","","","","","","",""
"","ISI","","html-keyboard-response","354","521191","0.0-1.0-489.0","0","0","54729","","null","","","null","54","NaN","","","","","","","","","","","","","","",""
"","S2","","html-keyboard-response","355","521443","0.0-1.0-490.0","0","0","54729","","null","","","null","54","","NaN","","","","","","","","","","","","","",""
"","response","","html-keyboard-response","356","522414","0.0-1.0-491.0","0","0","54729","","970","","","75","54","","","2","54","training","adjacent","EF","5","6","Q.jpg","O.jpg","1","1","1","",""
"","feedback","","html-keyboard-response","357","523417","0.0-1.0-492.0-0.0","0","0","54729","","null","","","null","54","","","","","","","","","","","","","","","",""
"","ITI","","html-keyboard-response","358","524419","0.0-1.0-495.0","0","0","54729","","null","","","null","54","","","","","","","","","","","","","","","NaN",""
"","S1","","html-keyboard-response","359","524671","0.0-1.0-497.0","0","0","54729","","null","","","null","55","","","","","","","","","","","","","","","",""
"","ISI","","html-keyboard-response","360","526673","0.0-1.0-498.0","0","0","54729","","null","","","null","55","NaN","","","","","","","","","","","","","","",""
"","S2","","html-keyboard-response","361","526926","0.0-1.0-499.0","0","0","54729","","null","","","null","55","","NaN","","","","","","","","","","","","","",""
"","response","","html-keyboard-response","362","528205","0.0-1.0-500.0","0","0","54729","","1277","","","68","55","","","2","55","training","adjacent","DC","4","3","P.jpg","R.jpg","0","0","1","",""
"","feedback","","html-keyboard-response","363","529206","0.0-1.0-501.0-0.0","0","0","54729","","null","","","null","55","","","","","","","","","","","","","","","",""
"","ITI","","html-keyboard-response","364","530208","0.0-1.0-504.0","0","0","54729","","null","","","null","55","","","","","","","","","","","","","","","NaN",""
"","S1","","html-keyboard-response","365","530460","0.0-1.0-506.0","0","0","54729","","null","","","null","56","","","","","","","","","","","","","","","",""
"","ISI","","html-keyboard-response","366","532461","0.0-1.0-507.0","0","0","54729","","null","","","null","56","NaN","","","","","","","","","","","","","","",""
"","S2","","html-keyboard-response","367","532713","0.0-1.0-508.0","0","0","54729","","null","","","null","56","","NaN","","","","","","","","","","","","","",""
"","response","","html-keyboard-response","368","533854","0.0-1.0-509.0","0","0","54729","","1140","","","68","56","","","2","56","training","adjacent","CB","3","2","R.jpg","M.jpg","0","0","1","",""
"","feedback","","html-keyboard-response","369","534856","0.0-1.0-510.0-0.0","0","0","54729","","null","","","null","56","","","","","","","","","","","","","","","",""
"","ITI","","html-keyboard-response","370","535858","0.0-1.0-513.0","0","0","54729","","null","","","null","56","","","","","","","","","","","","","","","NaN",""
"","S1","","html-keyboard-response","371","536110","0.0-1.0-515.0","0","0","54729","","null","","","null","57","","","","","","","","","","","","","","","",""
"","ISI","","html-keyboard-response","372","538112","0.0-1.0-516.0","0","0","54729","","null","","","null","57","NaN","","","","","","","","","","","","","","",""
"","S2","","html-keyboard-response","373","538364","0.0-1.0-517.0","0","0","54729","","null","","","null","57","","NaN","","","","","","","","","","","","","",""
"","response","","html-keyboard-response","374","539189","0.0-1.0-518.0","0","0","54729","","824","","","75","57","","","2","57","training","adjacent","ED","5","4","Q.jpg","P.jpg","1","0","0","",""
"","feedback","","html-keyboard-response","375","540190","0.0-1.0-519.0-0.0","0","0","54729","","null","","","null","57","","","","","","","","","","","","","","","",""
"","time_out","","html-keyboard-response","376","542192","0.0-1.0-521.0-0.0","0","0","54729","","null","","","null","57","","","","","","","","","","","","","","","",""
"","ITI","","html-keyboard-response","377","543194","0.0-1.0-522.0","0","0","54729","","null","","","null","57","","","","","","","","","","","","","","","NaN",""
"","S1","","html-keyboard-response","378","543446","0.0-1.0-524.0","0","0","54729","","null","","","null","58","","","","","","","","","","","","","","","",""
"","ISI","","html-keyboard-response","379","545449","0.0-1.0-525.0","0","0","54729","","null","","","null","58","NaN","","","","","","","","","","","","","","",""
"","S2","","html-keyboard-response","380","545701","0.0-1.0-526.0","0","0","54729","","null","","","null","58","","NaN","","","","","","","","","","","","","",""
"","response","","html-keyboard-response","381","546278","0.0-1.0-527.0","0","0","54729","","576","","","75","58","","","2","58","training","adjacent","AB","1","2","N.jpg","M.jpg","1","1","1","",""
"","feedback","","html-keyboard-response","382","547280","0.0-1.0-528.0-0.0","0","0","54729","","null","","","null","58","","","","","","","","","","","","","","","",""
"","ITI","","html-keyboard-response","383","548282","0.0-1.0-531.0","0","0","54729","","null","","","null","58","","","","","","","","","","","","","","","NaN",""
"","S1","","html-keyboard-response","384","548534","0.0-1.0-533.0","0","0","54729","","null","","","null","59","","","","","","","","","","","","","","","",""
"","ISI","","html-keyboard-response","385","550537","0.0-1.0-534.0","0","0","54729","","133","","","32","59","space","","","","","","","","","","","","","","",""
"","S2","","html-keyboard-response","386","550790","0.0-1.0-535.0","0","0","54729","","null","","","null","59","","NaN","","","","","","","","","","","","","",""
"","response","","html-keyboard-response","387","551541","0.0-1.0-536.0","0","0","54729","","749","","","68","59","","","2","59","training","adjacent","ED","5","4","Q.jpg","P.jpg","0","0","1","",""
"","feedback","","html-keyboard-response","388","552543","0.0-1.0-537.0-0.0","0","0","54729","","null","","","null","59","","","","","","","","","","","","","","","",""
"","ITI","","html-keyboard-response","389","553545","0.0-1.0-540.0","0","0","54729","","45","","","32","59","","","","","","","","","","","","","","","space",""
"","S1","","html-keyboard-response","390","553798","0.0-1.0-542.0","0","0","54729","","null","","","null","60","","","","","","","","","","","","","","","",""
"","ISI","","html-keyboard-response","391","555800","0.0-1.0-543.0","0","0","54729","","null","","","null","60","NaN","","","","","","","","","","","","","","",""
"","S2","","html-keyboard-response","392","556052","0.0-1.0-544.0","0","0","54729","","null","","","null","60","","NaN","","","","","","","","","","","","","",""
"","response","","html-keyboard-response","393","556526","0.0-1.0-545.0","0","0","54729","","472","","","75","60","","","2","60","training","adjacent","ED","5","4","Q.jpg","P.jpg","1","0","0","",""
"","feedback","","html-keyboard-response","394","557528","0.0-1.0-546.0-0.0","0","0","54729","","null","","","null","60","","","","","","","","","","","","","","","",""
"","time_out","","html-keyboard-response","395","559530","0.0-1.0-548.0-0.0","0","0","54729","","null","","","null","60","","","","","","","","","","","","","","","",""
"","ITI","","html-keyboard-response","396","560532","0.0-1.0-549.0","0","0","54729","","null","","","null","60","","","","","","","","","","","","","","","NaN",""
"","S1","","html-keyboard-response","397","560785","0.0-1.0-551.0","0","0","54729","","null","","","null","61","","","","","","","","","","","","","","","",""
"","ISI","","html-keyboard-response","398","562787","0.0-1.0-552.0","0","0","54729","","null","","","null","61","NaN","","","","","","","","","","","","","","",""
"","S2","","html-keyboard-response","399","563039","0.0-1.0-553.0","0","0","54729","","null","","","null","61","","NaN","","","","","","","","","","","","","",""
"","response","","html-keyboard-response","400","563693","0.0-1.0-554.0","0","0","54729","","652","","","75","61","","","2","61","training","adjacent","BA","2","1","M.jpg","N.jpg","1","0","0","",""
"","feedback","","html-keyboard-response","401","564694","0.0-1.0-555.0-0.0","0","0","54729","","null","","","null","61","","","","","","","","","","","","","","","",""
"","time_out","","html-keyboard-response","402","566697","0.0-1.0-557.0-0.0","0","0","54729","","null","","","null","61","","","","","","","","","","","","","","","",""
"","ITI","","html-keyboard-response","403","567699","0.0-1.0-558.0","0","0","54729","","null","","","null","61","","","","","","","","","","","","","","","NaN",""
"","S1","","html-keyboard-response","404","567950","0.0-1.0-560.0","0","0","54729","","null","","","null","62","","","","","","","","","","","","","","","",""
"","ISI","","html-keyboard-response","405","569952","0.0-1.0-561.0","0","0","54729","","null","","","null","62","NaN","","","","","","","","","","","","","","",""
"","S2","","html-keyboard-response","406","570204","0.0-1.0-562.0","0","0","54729","","null","","","null","62","","NaN","","","","","","","","","","","","","",""
"","response","","html-keyboard-response","407","571110","0.0-1.0-563.0","0","0","54729","","904","","","75","62","","","2","62","training","adjacent","FE","6","5","O.jpg","Q.jpg","1","0","0","",""
"","feedback","","html-keyboard-response","408","572112","0.0-1.0-564.0-0.0","0","0","54729","","null","","","null","62","","","","","","","","","","","","","","","",""
"","time_out","","html-keyboard-response","409","574114","0.0-1.0-566.0-0.0","0","0","54729","","null","","","null","62","","","","","","","","","","","","","","","",""
"","ITI","","html-keyboard-response","410","575116","0.0-1.0-567.0","0","0","54729","","null","","","null","62","","","","","","","","","","","","","","","NaN",""
"","S1","","html-keyboard-response","411","575367","0.0-1.0-569.0","0","0","54729","","null","","","null","63","","","","","","","","","","","","","","","",""
"","ISI","","html-keyboard-response","412","577369","0.0-1.0-570.0","0","0","54729","","null","","","null","63","NaN","","","","","","","","","","","","","","",""
"","S2","","html-keyboard-response","413","577621","0.0-1.0-571.0","0","0","54729","","null","","","null","63","","NaN","","","","","","","","","","","","","",""
"","response","","html-keyboard-response","414","578765","0.0-1.0-572.0","0","0","54729","","1142","","","68","63","","","2","63","training","adjacent","CD","3","4","R.jpg","P.jpg","0","1","0","",""
"","feedback","","html-keyboard-response","415","579766","0.0-1.0-573.0-0.0","0","0","54729","","null","","","null","63","","","","","","","","","","","","","","","",""
"","time_out","","html-keyboard-response","416","581768","0.0-1.0-575.0-0.0","0","0","54729","","null","","","null","63","","","","","","","","","","","","","","","",""
"","ITI","","html-keyboard-response","417","582780","0.0-1.0-576.0","0","0","54729","","null","","","null","63","","","","","","","","","","","","","","","NaN",""
"","S1","","html-keyboard-response","418","583033","0.0-1.0-578.0","0","0","54729","","null","","","null","64","","","","","","","","","","","","","","","",""
"","ISI","","html-keyboard-response","419","585035","0.0-1.0-579.0","0","0","54729","","null","","","null","64","NaN","","","","","","","","","","","","","","",""
"","S2","","html-keyboard-response","420","585287","0.0-1.0-580.0","0","0","54729","","null","","","null","64","","NaN","","","","","","","","","","","","","",""
"","response","","html-keyboard-response","421","585742","0.0-1.0-581.0","0","0","54729","","453","","","75","64","","","2","64","training","adjacent","DE","4","5","P.jpg","Q.jpg","1","1","1","",""
"","feedback","","html-keyboard-response","422","586744","0.0-1.0-582.0-0.0","0","0","54729","","null","","","null","64","","","","","","","","","","","","","","","",""
"","ITI","","html-keyboard-response","423","587745","0.0-1.0-585.0","0","0","54729","","null","","","null","64","","","","","","","","","","","","","","","NaN",""
"","S1","","html-keyboard-response","424","587998","0.0-1.0-587.0","0","0","54729","","null","","","null","65","","","","","","","","","","","","","","","",""
"","ISI","","html-keyboard-response","425","589999","0.0-1.0-588.0","0","0","54729","","null","","","null","65","NaN","","","","","","","","","","","","","","",""
"","S2","","html-keyboard-response","426","590252","0.0-1.0-589.0","0","0","54729","","null","","","null","65","","NaN","","","","","","","","","","","","","",""
"","response","","html-keyboard-response","427","590909","0.0-1.0-590.0","0","0","54729","","655","","","75","65","","","2","65","training","adjacent","AB","1","2","N.jpg","M.jpg","1","1","1","",""
"","feedback","","html-keyboard-response","428","591912","0.0-1.0-591.0-0.0","0","0","54729","","null","","","null","65","","","","","","","","","","","","","","","",""
"","ITI","","html-keyboard-response","429","592914","0.0-1.0-594.0","0","0","54729","","null","","","null","65","","","","","","","","","","","","","","","NaN",""
"","S1","","html-keyboard-response","430","593166","0.0-1.0-596.0","0","0","54729","","null","","","null","66","","","","","","","","","","","","","","","",""
"","ISI","","html-keyboard-response","431","595168","0.0-1.0-597.0","0","0","54729","","null","","","null","66","NaN","","","","","","","","","","","","","","",""
"","S2","","html-keyboard-response","432","595421","0.0-1.0-598.0","0","0","54729","","null","","","null","66","","NaN","","","","","","","","","","","","","",""
"","response","","html-keyboard-response","433","596374","0.0-1.0-599.0","0","0","54729","","951","","","68","66","","","2","66","training","adjacent","EF","5","6","Q.jpg","O.jpg","0","1","0","",""
"","feedback","","html-keyboard-response","434","597376","0.0-1.0-600.0-0.0","0","0","54729","","null","","","null","66","","","","","","","","","","","","","","","",""
"","time_out","","html-keyboard-response","435","599378","0.0-1.0-602.0-0.0","0","0","54729","","null","","","null","66","","","","","","","","","","","","","","","",""
"","ITI","","html-keyboard-response","436","600381","0.0-1.0-603.0","0","0","54729","","null","","","null","66","","","","","","","","","","","","","","","NaN",""
"","S1","","html-keyboard-response","437","600632","0.0-1.0-605.0","0","0","54729","","null","","","null","67","","","","","","","","","","","","","","","",""
"","ISI","","html-keyboard-response","438","602635","0.0-1.0-606.0","0","0","54729","","null","","","null","67","NaN","","","","","","","","","","","","","","",""
"","S2","","html-keyboard-response","439","602887","0.0-1.0-607.0","0","0","54729","","null","","","null","67","","NaN","","","","","","","","","","","","","",""
"","response","","html-keyboard-response","440","603773","0.0-1.0-608.0","0","0","54729","","884","","","68","67","","","2","67","training","adjacent","CB","3","2","R.jpg","M.jpg","0","0","1","",""
"","feedback","","html-keyboard-response","441","604776","0.0-1.0-609.0-0.0","0","0","54729","","null","","","null","67","","","","","","","","","","","","","","","",""
"","ITI","","html-keyboard-response","442","605779","0.0-1.0-612.0","0","0","54729","","null","","","null","67","","","","","","","","","","","","","","","NaN",""
"","S1","","html-keyboard-response","443","606031","0.0-1.0-614.0","0","0","54729","","null","","","null","68","","","","","","","","","","","","","","","",""
"","ISI","","html-keyboard-response","444","608033","0.0-1.0-615.0","0","0","54729","","null","","","null","68","NaN","","","","","","","","","","","","","","",""
"","S2","","html-keyboard-response","445","608286","0.0-1.0-616.0","0","0","54729","","null","","","null","68","","NaN","","","","","","","","","","","","","",""
"","response","","html-keyboard-response","446","609158","0.0-1.0-617.0","0","0","54729","","871","","","75","68","","","2","68","training","adjacent","DC","4","3","P.jpg","R.jpg","1","0","0","",""
"","feedback","","html-keyboard-response","447","610160","0.0-1.0-618.0-0.0","0","0","54729","","null","","","null","68","","","","","","","","","","","","","","","",""
"","time_out","","html-keyboard-response","448","612162","0.0-1.0-620.0-0.0","0","0","54729","","null","","","null","68","","","","","","","","","","","","","","","",""
"","ITI","","html-keyboard-response","449","613165","0.0-1.0-621.0","0","0","54729","","null","","","null","68","","","","","","","","","","","","","","","NaN",""
"","S1","","html-keyboard-response","450","613418","0.0-1.0-623.0","0","0","54729","","null","","","null","69","","","","","","","","","","","","","","","",""
"","ISI","","html-keyboard-response","451","615420","0.0-1.0-624.0","0","0","54729","","null","","","null","69","NaN","","","","","","","","","","","","","","",""
"","S2","","html-keyboard-response","452","615672","0.0-1.0-625.0","0","0","54729","","null","","","null","69","","NaN","","","","","","","","","","","","","",""
"","response","","html-keyboard-response","453","616877","0.0-1.0-626.0","0","0","54729","","1203","","","75","69","","","2","69","training","adjacent","BA","2","1","M.jpg","N.jpg","1","0","0","",""
"","feedback","","html-keyboard-response","454","617878","0.0-1.0-627.0-0.0","0","0","54729","","null","","","null","69","","","","","","","","","","","","","","","",""
"","time_out","","html-keyboard-response","455","619881","0.0-1.0-629.0-0.0","0","0","54729","","null","","","null","69","","","","","","","","","","","","","","","",""
"","ITI","","html-keyboard-response","456","620882","0.0-1.0-630.0","0","0","54729","","null","","","null","69","","","","","","","","","","","","","","","NaN",""
"","S1","","html-keyboard-response","457","621136","0.0-1.0-632.0","0","0","54729","","null","","","null","70","","","","","","","","","","","","","","","",""
"","ISI","","html-keyboard-response","458","623138","0.0-1.0-633.0","0","0","54729","","null","","","null","70","NaN","","","","","","","","","","","","","","",""
"","S2","","html-keyboard-response","459","623389","0.0-1.0-634.0","0","0","54729","","null","","","null","70","","NaN","","","","","","","","","","","","","",""
"","response","","html-keyboard-response","460","624246","0.0-1.0-635.0","0","0","54729","","855","","","75","70","","","2","70","training","adjacent","DC","4","3","P.jpg","R.jpg","1","0","0","",""
"","feedback","","html-keyboard-response","461","625249","0.0-1.0-636.0-0.0","0","0","54729","","null","","","null","70","","","","","","","","","","","","","","","",""
"","time_out","","html-keyboard-response","462","627253","0.0-1.0-638.0-0.0","0","0","54729","","null","","","null","70","","","","","","","","","","","","","","","",""
"","ITI","","html-keyboard-response","463","628255","0.0-1.0-639.0","0","0","54729","","null","","","null","70","","","","","","","","","","","","","","","NaN",""
"","S1","","html-keyboard-response","464","628508","0.0-1.0-641.0","0","0","54729","","null","","","null","71","","","","","","","","","","","","","","","",""
"","ISI","","html-keyboard-response","465","630512","0.0-1.0-642.0","0","0","54729","","null","","","null","71","NaN","","","","","","","","","","","","","","",""
"","S2","","html-keyboard-response","466","630764","0.0-1.0-643.0","0","0","54729","","null","","","null","71","","NaN","","","","","","","","","","","","","",""
"","response","","html-keyboard-response","467","631605","0.0-1.0-644.0","0","0","54729","","840","","","75","71","","","2","71","training","adjacent","AB","1","2","N.jpg","M.jpg","1","1","1","",""
"","feedback","","html-keyboard-response","468","632607","0.0-1.0-645.0-0.0","0","0","54729","","null","","","null","71","","","","","","","","","","","","","","","",""
"","ITI","","html-keyboard-response","469","633609","0.0-1.0-648.0","0","0","54729","","null","","","null","71","","","","","","","","","","","","","","","NaN",""
"","S1","","html-keyboard-response","470","633862","0.0-1.0-650.0","0","0","54729","","null","","","null","72","","","","","","","","","","","","","","","",""
"","ISI","","html-keyboard-response","471","635864","0.0-1.0-651.0","0","0","54729","","null","","","null","72","NaN","","","","","","","","","","","","","","",""
"","S2","","html-keyboard-response","472","636117","0.0-1.0-652.0","0","0","54729","","null","","","null","72","","NaN","","","","","","","","","","","","","",""
"","response","","html-keyboard-response","473","637310","0.0-1.0-653.0","0","0","54729","","1192","","","68","72","","","2","72","training","adjacent","BC","2","3","M.jpg","R.jpg","0","1","0","",""
"","feedback","","html-keyboard-response","474","638312","0.0-1.0-654.0-0.0","0","0","54729","","null","","","null","72","","","","","","","","","","","","","","","",""
"","time_out","","html-keyboard-response","475","640313","0.0-1.0-656.0-0.0","0","0","54729","","null","","","null","72","","","","","","","","","","","","","","","",""
"","ITI","","html-keyboard-response","476","641316","0.0-1.0-657.0","0","0","54729","","null","","","null","72","","","","","","","","","","","","","","","NaN",""
"","S1","","html-keyboard-response","477","641570","0.0-1.0-659.0","0","0","54729","","null","","","null","73","","","","","","","","","","","","","","","",""
"","ISI","","html-keyboard-response","478","643572","0.0-1.0-660.0","0","0","54729","","null","","","null","73","NaN","","","","","","","","","","","","","","",""
"","S2","","html-keyboard-response","479","643824","0.0-1.0-661.0","0","0","54729","","null","","","null","73","","NaN","","","","","","","","","","","","","",""
"","response","","html-keyboard-response","480","645037","0.0-1.0-662.0","0","0","54729","","1213","","","75","73","","","2","73","training","adjacent","GF","7","6","L.jpg","O.jpg","1","0","0","",""
"","feedback","","html-keyboard-response","481","646040","0.0-1.0-663.0-0.0","0","0","54729","","null","","","null","73","","","","","","","","","","","","","","","",""
"","time_out","","html-keyboard-response","482","648042","0.0-1.0-665.0-0.0","0","0","54729","","null","","","null","73","","","","","","","","","","","","","","","",""
"","ITI","","html-keyboard-response","483","649045","0.0-1.0-666.0","0","0","54729","","null","","","null","73","","","","","","","","","","","","","","","NaN",""
"","S1","","html-keyboard-response","484","649297","0.0-1.0-668.0","0","0","54729","","null","","","null","74","","","","","","","","","","","","","","","",""
"","ISI","","html-keyboard-response","485","651301","0.0-1.0-669.0","0","0","54729","","null","","","null","74","NaN","","","","","","","","","","","","","","",""
"","S2","","html-keyboard-response","486","651553","0.0-1.0-670.0","0","0","54729","","null","","","null","74","","NaN","","","","","","","","","","","","","",""
"","response","","html-keyboard-response","487","652382","0.0-1.0-671.0","0","0","54729","","828","","","75","74","","","2","74","training","adjacent","AB","1","2","N.jpg","M.jpg","1","1","1","",""
"","feedback","","html-keyboard-response","488","653398","0.0-1.0-672.0-0.0","0","0","54729","","null","","","null","74","","","","","","","","","","","","","","","",""
"","ITI","","html-keyboard-response","489","654401","0.0-1.0-675.0","0","0","54729","","null","","","null","74","","","","","","","","","","","","","","","NaN",""
"","S1","","html-keyboard-response","490","654653","0.0-1.0-677.0","0","0","54729","","null","","","null","75","","","","","","","","","","","","","","","",""
"","ISI","","html-keyboard-response","491","656656","0.0-1.0-678.0","0","0","54729","","null","","","null","75","NaN","","","","","","","","","","","","","","",""
"","S2","","html-keyboard-response","492","656909","0.0-1.0-679.0","0","0","54729","","null","","","null","75","","NaN","","","","","","","","","","","","","",""
"","response","","html-keyboard-response","493","657877","0.0-1.0-680.0","0","0","54729","","967","","","75","75","","","2","75","training","adjacent","BC","2","3","M.jpg","R.jpg","1","1","1","",""
"","feedback","","html-keyboard-response","494","658880","0.0-1.0-681.0-0.0","0","0","54729","","null","","","null","75","","","","","","","","","","","","","","","",""
"","ITI","","html-keyboard-response","495","659881","0.0-1.0-684.0","0","0","54729","","null","","","null","75","","","","","","","","","","","","","","","NaN",""
"","S1","","html-keyboard-response","496","660133","0.0-1.0-686.0","0","0","54729","","null","","","null","76","","","","","","","","","","","","","","","",""
"","ISI","","html-keyboard-response","497","662136","0.0-1.0-687.0","0","0","54729","","null","","","null","76","NaN","","","","","","","","","","","","","","",""
"","S2","","html-keyboard-response","498","662389","0.0-1.0-688.0","0","0","54729","","null","","","null","76","","NaN","","","","","","","","","","","","","",""
"","response","","html-keyboard-response","499","663319","0.0-1.0-689.0","0","0","54729","","928","","","75","76","","","2","76","training","adjacent","DE","4","5","P.jpg","Q.jpg","1","1","1","",""
"","feedback","","html-keyboard-response","500","664322","0.0-1.0-690.0-0.0","0","0","54729","","null","","","null","76","","","","","","","","","","","","","","","",""
"","ITI","","html-keyboard-response","501","665325","0.0-1.0-693.0","0","0","54729","","null","","","null","76","","","","","","","","","","","","","","","NaN",""
"","S1","","html-keyboard-response","502","665577","0.0-1.0-695.0","0","0","54729","","null","","","null","77","","","","","","","","","","","","","","","",""
"","ISI","","html-keyboard-response","503","667579","0.0-1.0-696.0","0","0","54729","","null","","","null","77","NaN","","","","","","","","","","","","","","",""
"","S2","","html-keyboard-response","504","667831","0.0-1.0-697.0","0","0","54729","","null","","","null","77","","NaN","","","","","","","","","","","","","",""
"","response","","html-keyboard-response","505","668565","0.0-1.0-698.0","0","0","54729","","733","","","75","77","","","2","77","training","adjacent","BC","2","3","M.jpg","R.jpg","1","1","1","",""
"","feedback","","html-keyboard-response","506","669568","0.0-1.0-699.0-0.0","0","0","54729","","null","","","null","77","","","","","","","","","","","","","","","",""
"","ITI","","html-keyboard-response","507","670570","0.0-1.0-702.0","0","0","54729","","null","","","null","77","","","","","","","","","","","","","","","NaN",""
"","S1","","html-keyboard-response","508","670822","0.0-1.0-704.0","0","0","54729","","null","","","null","78","","","","","","","","","","","","","","","",""
"","ISI","","html-keyboard-response","509","672824","0.0-1.0-705.0","0","0","54729","","null","","","null","78","NaN","","","","","","","","","","","","","","",""
"","S2","","html-keyboard-response","510","673077","0.0-1.0-706.0","0","0","54729","","null","","","null","78","","NaN","","","","","","","","","","","","","",""
"","response","","html-keyboard-response","511","673815","0.0-1.0-707.0","0","0","54729","","737","","","75","78","","","2","78","training","adjacent","DC","4","3","P.jpg","R.jpg","1","0","0","",""
"","feedback","","html-keyboard-response","512","674817","0.0-1.0-708.0-0.0","0","0","54729","","null","","","null","78","","","","","","","","","","","","","","","",""
"","time_out","","html-keyboard-response","513","676818","0.0-1.0-710.0-0.0","0","0","54729","","null","","","null","78","","","","","","","","","","","","","","","",""
"","ITI","","html-keyboard-response","514","677820","0.0-1.0-711.0","0","0","54729","","null","","","null","78","","","","","","","","","","","","","","","NaN",""
"","S1","","html-keyboard-response","515","678073","0.0-1.0-713.0","0","0","54729","","null","","","null","79","","","","","","","","","","","","","","","",""
"","ISI","","html-keyboard-response","516","680074","0.0-1.0-714.0","0","0","54729","","null","","","null","79","NaN","","","","","","","","","","","","","","",""
"","S2","","html-keyboard-response","517","680327","0.0-1.0-715.0","0","0","54729","","null","","","null","79","","NaN","","","","","","","","","","","","","",""
"","response","","html-keyboard-response","518","682329","0.0-1.0-716.0","0","0","54729","","null","","","null","79","","","2","79","training","adjacent","FE","6","5","O.jpg","Q.jpg","NaN","0","0","",""
"","too_slow_prompt","","html-keyboard-response","519","683331","0.0-1.0-718.0-0.0","1","0","54729","","null","","","null","","","","","","","","","","","","","","","","",""
"","time_out","","html-keyboard-response","520","685334","0.0-1.0-719.0-0.0","0","0","54729","","null","","","null","79","","","","","","","","","","","","","","","",""
"","ITI","","html-keyboard-response","521","686335","0.0-1.0-720.0","0","0","54729","","null","","","null","79","","","","","","","","","","","","","","","NaN",""
"","S1","","html-keyboard-response","522","686589","0.0-1.0-722.0","0","0","54729","","null","","","null","80","","","","","","","","","","","","","","","",""
"","ISI","","html-keyboard-response","523","688591","0.0-1.0-723.0","0","0","54729","","null","","","null","80","NaN","","","","","","","","","","","","","","",""
"","S2","","html-keyboard-response","524","688843","0.0-1.0-724.0","0","0","54729","","null","","","null","80","","NaN","","","","","","","","","","","","","",""
"","response","","html-keyboard-response","525","688999","0.0-1.0-725.0","0","0","54729","","154","","","75","80","","","2","80","training","adjacent","GF","7","6","L.jpg","O.jpg","1","0","0","",""
"","feedback","","html-keyboard-response","526","690001","0.0-1.0-726.0-0.0","0","0","54729","","null","","","null","80","","","","","","","","","","","","","","","",""
"","time_out","","html-keyboard-response","527","692003","0.0-1.0-728.0-0.0","0","0","54729","","null","","","null","80","","","","","","","","","","","","","","","",""
"","ITI","","html-keyboard-response","528","693004","0.0-1.0-729.0","0","0","54729","","null","","","null","80","","","","","","","","","","","","","","","NaN",""
"","S1","","html-keyboard-response","529","693257","0.0-1.0-731.0","0","0","54729","","null","","","null","81","","","","","","","","","","","","","","","",""
"","ISI","","html-keyboard-response","530","695258","0.0-1.0-732.0","0","0","54729","","null","","","null","81","NaN","","","","","","","","","","","","","","",""
"","S2","","html-keyboard-response","531","695510","0.0-1.0-733.0","0","0","54729","","null","","","null","81","","NaN","","","","","","","","","","","","","",""
"","response","","html-keyboard-response","532","695725","0.0-1.0-734.0","0","0","54729","","214","","","68","81","","","2","81","training","adjacent","BA","2","1","M.jpg","N.jpg","0","0","1","",""
"","feedback","","html-keyboard-response","533","696728","0.0-1.0-735.0-0.0","0","0","54729","","null","","","null","81","","","","","","","","","","","","","","","",""
"","ITI","","html-keyboard-response","534","697731","0.0-1.0-738.0","0","0","54729","","null","","","null","81","","","","","","","","","","","","","","","NaN",""
"","S1","","html-keyboard-response","535","697982","0.0-1.0-740.0","0","0","54729","","null","","","null","82","","","","","","","","","","","","","","","",""
"","ISI","","html-keyboard-response","536","699985","0.0-1.0-741.0","0","0","54729","","null","","","null","82","NaN","","","","","","","","","","","","","","",""
"","S2","","html-keyboard-response","537","700238","0.0-1.0-742.0","0","0","54729","","null","","","null","82","","NaN","","","","","","","","","","","","","",""
"","response","","html-keyboard-response","538","700622","0.0-1.0-743.0","0","0","54729","","384","","","68","82","","","2","82","training","adjacent","ED","5","4","Q.jpg","P.jpg","0","0","1","",""
"","feedback","","html-keyboard-response","539","701625","0.0-1.0-744.0-0.0","0","0","54729","","null","","","null","82","","","","","","","","","","","","","","","",""
"","ITI","","html-keyboard-response","540","702627","0.0-1.0-747.0","0","0","54729","","null","","","null","82","","","","","","","","","","","","","","","NaN",""
"","S1","","html-keyboard-response","541","702879","0.0-1.0-749.0","0","0","54729","","null","","","null","83","","","","","","","","","","","","","","","",""
"","ISI","","html-keyboard-response","542","704882","0.0-1.0-750.0","0","0","54729","","null","","","null","83","NaN","","","","","","","","","","","","","","",""
"","S2","","html-keyboard-response","543","705134","0.0-1.0-751.0","0","0","54729","","null","","","null","83","","NaN","","","","","","","","","","","","","",""
"","response","","html-keyboard-response","544","705629","0.0-1.0-752.0","0","0","54729","","494","","","75","83","","","2","83","training","adjacent","CB","3","2","R.jpg","M.jpg","1","0","0","",""
"","feedback","","html-keyboard-response","545","706632","0.0-1.0-753.0-0.0","0","0","54729","","null","","","null","83","","","","","","","","","","","","","","","",""
"","time_out","","html-keyboard-response","546","708635","0.0-1.0-755.0-0.0","0","0","54729","","null","","","null","83","","","","","","","","","","","","","","","",""
"","ITI","","html-keyboard-response","547","709637","0.0-1.0-756.0","0","0","54729","","null","","","null","83","","","","","","","","","","","","","","","NaN",""
"","S1","","html-keyboard-response","548","709889","0.0-1.0-758.0","0","0","54729","","null","","","null","84","","","","","","","","","","","","","","","",""
"","ISI","","html-keyboard-response","549","711890","0.0-1.0-759.0","0","0","54729","","null","","","null","84","NaN","","","","","","","","","","","","","","",""
"","S2","","html-keyboard-response","550","712142","0.0-1.0-760.0","0","0","54729","","null","","","null","84","","NaN","","","","","","","","","","","","","",""
"","response","","html-keyboard-response","551","712606","0.0-1.0-761.0","0","0","54729","","463","","","68","84","","","2","84","training","adjacent","BA","2","1","M.jpg","N.jpg","0","0","1","",""
"","feedback","","html-keyboard-response","552","713608","0.0-1.0-762.0-0.0","0","0","54729","","null","","","null","84","","","","","","","","","","","","","","","",""
"","ITI","","html-keyboard-response","553","714610","0.0-1.0-765.0","0","0","54729","","null","","","null","84","","","","","","","","","","","","","","","NaN",""
"","S1","","html-keyboard-response","554","714862","0.0-1.0-767.0","0","0","54729","","null","","","null","85","","","","","","","","","","","","","","","",""
"","ISI","","html-keyboard-response","555","716865","0.0-1.0-768.0","0","0","54729","","null","","","null","85","NaN","","","","","","","","","","","","","","",""
"","S2","","html-keyboard-response","556","717116","0.0-1.0-769.0","0","0","54729","","null","","","null","85","","NaN","","","","","","","","","","","","","",""
"","response","","html-keyboard-response","557","717733","0.0-1.0-770.0","0","0","54729","","615","","","68","85","","","2","85","training","adjacent","CB","3","2","R.jpg","M.jpg","0","0","1","",""
"","feedback","","html-keyboard-response","558","718735","0.0-1.0-771.0-0.0","0","0","54729","","null","","","null","85","","","","","","","","","","","","","","","",""
"","ITI","","html-keyboard-response","559","719737","0.0-1.0-774.0","0","0","54729","","null","","","null","85","","","","","","","","","","","","","","","NaN",""
"","S1","","html-keyboard-response","560","719990","0.0-1.0-776.0","0","0","54729","","null","","","null","86","","","","","","","","","","","","","","","",""
"","ISI","","html-keyboard-response","561","721992","0.0-1.0-777.0","0","0","54729","","null","","","null","86","NaN","","","","","","","","","","","","","","",""
"","S2","","html-keyboard-response","562","722243","0.0-1.0-778.0","0","0","54729","","null","","","null","86","","NaN","","","","","","","","","","","","","",""
"","response","","html-keyboard-response","563","723566","0.0-1.0-779.0","0","0","54729","","1321","","","68","86","","","2","86","training","adjacent","DE","4","5","P.jpg","Q.jpg","0","1","0","",""
"","feedback","","html-keyboard-response","564","724568","0.0-1.0-780.0-0.0","0","0","54729","","null","","","null","86","","","","","","","","","","","","","","","",""
"","time_out","","html-keyboard-response","565","726570","0.0-1.0-782.0-0.0","0","0","54729","","null","","","null","86","","","","","","","","","","","","","","","",""
"","ITI","","html-keyboard-response","566","727581","0.0-1.0-783.0","0","0","54729","","null","","","null","86","","","","","","","","","","","","","","","NaN",""
"","S1","","html-keyboard-response","567","727832","0.0-1.0-785.0","0","0","54729","","null","","","null","87","","","","","","","","","","","","","","","",""
"","ISI","","html-keyboard-response","568","729835","0.0-1.0-786.0","0","0","54729","","null","","","null","87","NaN","","","","","","","","","","","","","","",""
"","S2","","html-keyboard-response","569","730088","0.0-1.0-787.0","0","0","54729","","null","","","null","87","","NaN","","","","","","","","","","","","","",""
"","response","","html-keyboard-response","570","731405","0.0-1.0-788.0","0","0","54729","","1316","","","68","87","","","2","87","training","adjacent","FE","6","5","O.jpg","Q.jpg","0","0","1","",""
"","feedback","","html-keyboard-response","571","732407","0.0-1.0-789.0-0.0","0","0","54729","","null","","","null","87","","","","","","","","","","","","","","","",""
"","ITI","","html-keyboard-response","572","733409","0.0-1.0-792.0","0","0","54729","","null","","","null","87","","","","","","","","","","","","","","","NaN",""
"","S1","","html-keyboard-response","573","733661","0.0-1.0-794.0","0","0","54729","","null","","","null","88","","","","","","","","","","","","","","","",""
"","ISI","","html-keyboard-response","574","735662","0.0-1.0-795.0","0","0","54729","","null","","","null","88","NaN","","","","","","","","","","","","","","",""
"","S2","","html-keyboard-response","575","735914","0.0-1.0-796.0","0","0","54729","","null","","","null","88","","NaN","","","","","","","","","","","","","",""
"","response","","html-keyboard-response","576","736790","0.0-1.0-797.0","0","0","54729","","875","","","68","88","","","2","88","training","adjacent","GF","7","6","L.jpg","O.jpg","0","0","1","",""
"","feedback","","html-keyboard-response","577","737793","0.0-1.0-798.0-0.0","0","0","54729","","null","","","null","88","","","","","","","","","","","","","","","",""
"","ITI","","html-keyboard-response","578","738796","0.0-1.0-801.0","0","0","54729","","null","","","null","88","","","","","","","","","","","","","","","NaN",""
"","S1","","html-keyboard-response","579","739048","0.0-1.0-803.0","0","0","54729","","null","","","null","89","","","","","","","","","","","","","","","",""
"","ISI","","html-keyboard-response","580","741050","0.0-1.0-804.0","0","0","54729","","null","","","null","89","NaN","","","","","","","","","","","","","","",""
"","S2","","html-keyboard-response","581","741302","0.0-1.0-805.0","0","0","54729","","null","","","null","89","","NaN","","","","","","","","","","","","","",""
