"success","ttype","start_time","trial_type","trial_index","time_elapsed","internal_node_id","warning","missed_checkup","PID","view_history","rt","responses","repeat_instructions","key_press","index","keypress_isi","keypress_S2","block","trial_num","phase","group_type","pair_type","S1_stim","S2_stim","S1_img","S2_img","S1_chosen","S1_higher","accuracy","keypress_iti","total_bonus_tally"
"true","full_screen","d03082023hr1438","fullscreen","0","16364","0.0-0.0","0","0","62995","","","","","","","","","","","","","","","","","","","","","",""
"","instructions","","instructions","1","83706","0.0-1.0-0.0-0.0","0","0","62995","[{""page_index"":0,""viewing_time"":6208},{""page_index"":1,""viewing_time"":39249},{""page_index"":2,""viewing_time"":18967},{""page_index"":3,""viewing_time"":2915}]","67340","","","","","","","","","","","","","","","","","","","",""
"","comprehension_check","","survey-multi-choice","2","122291","0.0-1.0-0.0-1.0","0","0","62995","","38581","{""Q0"":""False"",""Q1"":""D"",""Q2"":""Only when the screen 'MAKE A CHOICE' is shown"",""Q3"":""Green mark"",""Q4"":""either D or K""}","1","","","","","","","","","","","","","","","","","",""
"","missed_instruction_checkup","","html-keyboard-response","3","125721","0.0-1.0-0.0-2.0-0.0","0","1","62995","","3426","","","32","","","","","","","","","","","","","","","","",""
"","instructions","","instructions","4","136130","0.0-1.0-0.1-0.1","0","0","62995","[{""page_index"":0,""viewing_time"":3916},{""page_index"":1,""viewing_time"":4947},{""page_index"":2,""viewing_time"":826},{""page_index"":3,""viewing_time"":718}]","10407","","","","","","","","","","","","","","","","","","","",""
"","comprehension_check","","survey-multi-choice","5","161894","0.0-1.0-0.1-1.1","0","0","62995","","25761","{""Q0"":""False"",""Q1"":""K"",""Q2"":""Only when the screen 'MAKE A CHOICE' is shown"",""Q3"":""Green mark"",""Q4"":""either D or K""}","1","","","","","","","","","","","","","","","","","",""
"","missed_instruction_checkup","","html-keyboard-response","6","163790","0.0-1.0-0.1-2.1-0.1","0","1","62995","","1891","","","32","","","","","","","","","","","","","","","","",""
"","instructions","","instructions","7","172248","0.0-1.0-0.2-0.2","0","0","62995","[{""page_index"":0,""viewing_time"":5654},{""page_index"":1,""viewing_time"":796},{""page_index"":2,""viewing_time"":660},{""page_index"":3,""viewing_time"":1347}]","8457","","","","","","","","","","","","","","","","","","","",""
"","comprehension_check","","survey-multi-choice","8","187743","0.0-1.0-0.2-1.2","0","0","62995","","15490","{""Q0"":""True"",""Q1"":""K"",""Q2"":""Only when the screen 'MAKE A CHOICE' is shown"",""Q3"":""Green mark"",""Q4"":""either D or K""}","1","","","","","","","","","","","","","","","","","",""
"","missed_instruction_checkup","","html-keyboard-response","9","189479","0.0-1.0-0.2-2.2-0.2","0","1","62995","","1733","","","32","","","","","","","","","","","","","","","","",""
"","instructions","","instructions","10","208007","0.0-1.0-0.3-0.3","0","0","62995","[{""page_index"":0,""viewing_time"":8457},{""page_index"":1,""viewing_time"":8598},{""page_index"":2,""viewing_time"":835},{""page_index"":3,""viewing_time"":636}]","18526","","","","","","","","","","","","","","","","","","","",""
"","comprehension_check","","survey-multi-choice","11","220942","0.0-1.0-0.3-1.3","0","0","62995","","12933","{""Q0"":""True"",""Q1"":""K"",""Q2"":""Once the second image appears and while the screen 'MAKE A CHOICE' is shown"",""Q3"":""Green mark"",""Q4"":""either D or K""}","0","","","","","","","","","","","","","","","","","",""
"","start_exp","","html-keyboard-response","12","225119","0.0-1.0-1.0","0","0","62995","","4171","","","32","","","","","","","","","","","","","","","","",""
"","S1","","html-keyboard-response","13","225372","0.0-1.0-2.0","0","0","62995","","null","","","null","0","","","","","","","","","","","","","","","",""
"","ISI","","html-keyboard-response","14","225525","0.0-1.0-3.0","0","0","62995","","null","","","null","0","NaN","","","","","","","","","","","","","","",""
"","S2","","html-keyboard-response","15","225778","0.0-1.0-4.0","0","0","62995","","null","","","null","0","","NaN","","","","","","","","","","","","","",""
"","response","","html-keyboard-response","16","226919","0.0-1.0-5.0-0.0","0","0","62995","","1139","","","75","0","","","1","0","training","adjacent","CB","3","2","R.jpg","M.jpg","1","0","0","",""
"","feedback","","html-keyboard-response","17","227923","0.0-1.0-6.0-0.0","0","0","62995","","null","","","null","0","","","","","","","","","","","","","","","",""
"","time_out","","html-keyboard-response","18","229927","0.0-1.0-8.0-0.0","0","0","62995","","null","","","null","0","","","","","","","","","","","","","","","",""
"","ITI","","html-keyboard-response","19","230930","0.0-1.0-9.0","0","0","62995","","null","","","null","0","","","","","","","","","","","","","","","NaN",""
"","S1","","html-keyboard-response","20","231183","0.0-1.0-11.0","0","0","62995","","null","","","null","1","","","","","","","","","","","","","","","",""
"","ISI","","html-keyboard-response","21","231335","0.0-1.0-12.0","0","0","62995","","null","","","null","1","NaN","","","","","","","","","","","","","","",""
"","S2","","html-keyboard-response","22","231532","0.0-1.0-13.0","0","0","62995","","195","","","75","1","","k","1","1","training","adjacent","CB","3","2","R.jpg","M.jpg","1","0","0","",""
"","feedback","","html-keyboard-response","23","232535","0.0-1.0-15.0-0.0","0","0","62995","","null","","","null","1","","","","","","","","","","","","","","","",""
"","time_out","","html-keyboard-response","24","234538","0.0-1.0-17.0-0.0","0","0","62995","","null","","","null","1","","","","","","","","","","","","","","","",""
"","ITI","","html-keyboard-response","25","235551","0.0-1.0-18.0","0","0","62995","","null","","","null","1","","","","","","","","","","","","","","","NaN",""
"","S1","","html-keyboard-response","26","235804","0.0-1.0-20.0","0","0","62995","","null","","","null","2","","","","","","","","","","","","","","","",""
"","ISI","","html-keyboard-response","27","235971","0.0-1.0-21.0","0","0","62995","","null","","","null","2","NaN","","","","","","","","","","","","","","",""
"","S2","","html-keyboard-response","28","236223","0.0-1.0-22.0","0","0","62995","","null","","","null","2","","NaN","","","","","","","","","","","","","",""
"","response","","html-keyboard-response","29","237017","0.0-1.0-23.0-0.0","0","0","62995","","792","","","68","2","","","1","2","training","adjacent","AB","1","2","N.jpg","M.jpg","0","1","0","",""
"","feedback","","html-keyboard-response","30","238021","0.0-1.0-24.0-0.0","0","0","62995","","null","","","null","2","","","","","","","","","","","","","","","",""
"","time_out","","html-keyboard-response","31","240023","0.0-1.0-26.0-0.0","0","0","62995","","null","","","null","2","","","","","","","","","","","","","","","",""
"","ITI","","html-keyboard-response","32","241027","0.0-1.0-27.0","0","0","62995","","null","","","null","2","","","","","","","","","","","","","","","NaN",""
"","S1","","html-keyboard-response","33","241279","0.0-1.0-29.0","0","0","62995","","null","","","null","3","","","","","","","","","","","","","","","",""
"","ISI","","html-keyboard-response","34","241431","0.0-1.0-30.0","0","0","62995","","null","","","null","3","NaN","","","","","","","","","","","","","","",""
"","S2","","html-keyboard-response","35","241684","0.0-1.0-31.0","0","0","62995","","null","","","null","3","","NaN","","","","","","","","","","","","","",""
"","response","","html-keyboard-response","36","242059","0.0-1.0-32.0-0.0","0","0","62995","","374","","","68","3","","","1","3","training","adjacent","BC","2","3","M.jpg","R.jpg","0","1","0","",""
"","feedback","","html-keyboard-response","37","243062","0.0-1.0-33.0-0.0","0","0","62995","","null","","","null","3","","","","","","","","","","","","","","","",""
"","time_out","","html-keyboard-response","38","245065","0.0-1.0-35.0-0.0","0","0","62995","","null","","","null","3","","","","","","","","","","","","","","","",""
"","ITI","","html-keyboard-response","39","246067","0.0-1.0-36.0","0","0","62995","","null","","","null","3","","","","","","","","","","","","","","","NaN",""
"","S1","","html-keyboard-response","40","246320","0.0-1.0-38.0","0","0","62995","","null","","","null","4","","","","","","","","","","","","","","","",""
"","ISI","","html-keyboard-response","41","246472","0.0-1.0-39.0","0","0","62995","","null","","","null","4","NaN","","","","","","","","","","","","","","",""
"","S2","","html-keyboard-response","42","246725","0.0-1.0-40.0","0","0","62995","","null","","","null","4","","NaN","","","","","","","","","","","","","",""
"","response","","html-keyboard-response","43","247549","0.0-1.0-41.0-0.0","0","0","62995","","823","","","75","4","","","1","4","training","adjacent","GF","7","6","O.jpg","L.jpg","1","0","0","",""
"","feedback","","html-keyboard-response","44","248552","0.0-1.0-42.0-0.0","0","0","62995","","null","","","null","4","","","","","","","","","","","","","","","",""
"","time_out","","html-keyboard-response","45","250554","0.0-1.0-44.0-0.0","0","0","62995","","null","","","null","4","","","","","","","","","","","","","","","",""
"","ITI","","html-keyboard-response","46","251555","0.0-1.0-45.0","0","0","62995","","null","","","null","4","","","","","","","","","","","","","","","NaN",""
"","S1","","html-keyboard-response","47","251807","0.0-1.0-47.0","0","0","62995","","null","","","null","5","","","","","","","","","","","","","","","",""
"","ISI","","html-keyboard-response","48","251959","0.0-1.0-48.0","0","0","62995","","null","","","null","5","NaN","","","","","","","","","","","","","","",""
"","S2","","html-keyboard-response","49","252212","0.0-1.0-49.0","0","0","62995","","null","","","null","5","","NaN","","","","","","","","","","","","","",""
"","response","","html-keyboard-response","50","252532","0.0-1.0-50.0-0.0","0","0","62995","","319","","","75","5","","","1","5","training","adjacent","GF","7","6","O.jpg","L.jpg","1","0","0","",""
"","feedback","","html-keyboard-response","51","253537","0.0-1.0-51.0-0.0","0","0","62995","","null","","","null","5","","","","","","","","","","","","","","","",""
"","time_out","","html-keyboard-response","52","255540","0.0-1.0-53.0-0.0","0","0","62995","","null","","","null","5","","","","","","","","","","","","","","","",""
"","ITI","","html-keyboard-response","53","256542","0.0-1.0-54.0","0","0","62995","","null","","","null","5","","","","","","","","","","","","","","","NaN",""
"","S1","","html-keyboard-response","54","256794","0.0-1.0-56.0","0","0","62995","","null","","","null","6","","","","","","","","","","","","","","","",""
"","ISI","","html-keyboard-response","55","256946","0.0-1.0-57.0","0","0","62995","","null","","","null","6","NaN","","","","","","","","","","","","","","",""
"","S2","","html-keyboard-response","56","257198","0.0-1.0-58.0","0","0","62995","","null","","","null","6","","NaN","","","","","","","","","","","","","",""
"","response","","html-keyboard-response","57","257664","0.0-1.0-59.0-0.0","0","0","62995","","464","","","68","6","","","1","6","training","adjacent","CB","3","2","R.jpg","M.jpg","0","0","1","",""
"","feedback","","html-keyboard-response","58","258667","0.0-1.0-60.0-0.0","0","0","62995","","null","","","null","6","","","","","","","","","","","","","","","",""
"","ITI","","html-keyboard-response","59","259669","0.0-1.0-63.0","0","0","62995","","null","","","null","6","","","","","","","","","","","","","","","NaN",""
"","S1","","html-keyboard-response","60","259922","0.0-1.0-65.0","0","0","62995","","null","","","null","7","","","","","","","","","","","","","","","",""
"","ISI","","html-keyboard-response","61","260075","0.0-1.0-66.0","0","0","62995","","null","","","null","7","NaN","","","","","","","","","","","","","","",""
"","S2","","html-keyboard-response","62","260329","0.0-1.0-67.0","0","0","62995","","null","","","null","7","","NaN","","","","","","","","","","","","","",""
"","response","","html-keyboard-response","63","260855","0.0-1.0-68.0-0.0","0","0","62995","","525","","","68","7","","","1","7","training","adjacent","FE","6","5","L.jpg","Q.jpg","0","0","1","",""
"","feedback","","html-keyboard-response","64","261858","0.0-1.0-69.0-0.0","0","0","62995","","null","","","null","7","","","","","","","","","","","","","","","",""
"","ITI","","html-keyboard-response","65","262861","0.0-1.0-72.0","0","0","62995","","null","","","null","7","","","","","","","","","","","","","","","NaN",""
"","S1","","html-keyboard-response","66","263114","0.0-1.0-74.0","0","0","62995","","null","","","null","8","","","","","","","","","","","","","","","",""
"","ISI","","html-keyboard-response","67","263266","0.0-1.0-75.0","0","0","62995","","null","","","null","8","NaN","","","","","","","","","","","","","","",""
"","S2","","html-keyboard-response","68","263520","0.0-1.0-76.0","0","0","62995","","null","","","null","8","","NaN","","","","","","","","","","","","","",""
"","response","","html-keyboard-response","69","263986","0.0-1.0-77.0-0.0","0","0","62995","","465","","","68","8","","","1","8","training","adjacent","BC","2","3","M.jpg","R.jpg","0","1","0","",""
"","feedback","","html-keyboard-response","70","264988","0.0-1.0-78.0-0.0","0","0","62995","","null","","","null","8","","","","","","","","","","","","","","","",""
"","time_out","","html-keyboard-response","71","266990","0.0-1.0-80.0-0.0","0","0","62995","","null","","","null","8","","","","","","","","","","","","","","","",""
"","ITI","","html-keyboard-response","72","267992","0.0-1.0-81.0","0","0","62995","","null","","","null","8","","","","","","","","","","","","","","","NaN",""
"","S1","","html-keyboard-response","73","268245","0.0-1.0-83.0","0","0","62995","","null","","","null","9","","","","","","","","","","","","","","","",""
"","ISI","","html-keyboard-response","74","268398","0.0-1.0-84.0","0","0","62995","","null","","","null","9","NaN","","","","","","","","","","","","","","",""
"","S2","","html-keyboard-response","75","268651","0.0-1.0-85.0","0","0","62995","","null","","","null","9","","NaN","","","","","","","","","","","","","",""
"","response","","html-keyboard-response","76","268914","0.0-1.0-86.0-0.0","0","0","62995","","261","","","75","9","","","1","9","training","adjacent","EF","5","6","Q.jpg","L.jpg","1","1","1","",""
"","feedback","","html-keyboard-response","77","269916","0.0-1.0-87.0-0.0","0","0","62995","","null","","","null","9","","","","","","","","","","","","","","","",""
"","ITI","","html-keyboard-response","78","270919","0.0-1.0-90.0","0","0","62995","","null","","","null","9","","","","","","","","","","","","","","","NaN",""
"","S1","","html-keyboard-response","79","271172","0.0-1.0-92.0","0","0","62995","","null","","","null","10","","","","","","","","","","","","","","","",""
"","ISI","","html-keyboard-response","80","271325","0.0-1.0-93.0","0","0","62995","","null","","","null","10","NaN","","","","","","","","","","","","","","",""
"","S2","","html-keyboard-response","81","271577","0.0-1.0-94.0","0","0","62995","","null","","","null","10","","NaN","","","","","","","","","","","","","",""
"","response","","html-keyboard-response","82","272012","0.0-1.0-95.0-0.0","0","0","62995","","434","","","75","10","","","1","10","training","adjacent","EF","5","6","Q.jpg","L.jpg","1","1","1","",""
"","feedback","","html-keyboard-response","83","273014","0.0-1.0-96.0-0.0","0","0","62995","","null","","","null","10","","","","","","","","","","","","","","","",""
"","ITI","","html-keyboard-response","84","274019","0.0-1.0-99.0","0","0","62995","","null","","","null","10","","","","","","","","","","","","","","","NaN",""
"","S1","","html-keyboard-response","85","274271","0.0-1.0-101.0","0","0","62995","","null","","","null","11","","","","","","","","","","","","","","","",""
"","ISI","","html-keyboard-response","86","274424","0.0-1.0-102.0","0","0","62995","","null","","","null","11","NaN","","","","","","","","","","","","","","",""
"","S2","","html-keyboard-response","87","274683","0.0-1.0-103.0","0","0","62995","","null","","","null","11","","NaN","","","","","","","","","","","","","",""
"","response","","html-keyboard-response","88","275068","0.0-1.0-104.0-0.0","0","0","62995","","382","","","68","11","","","1","11","training","adjacent","ED","5","4","Q.jpg","P.jpg","0","0","1","",""
"","feedback","","html-keyboard-response","89","276071","0.0-1.0-105.0-0.0","0","0","62995","","null","","","null","11","","","","","","","","","","","","","","","",""
"","ITI","","html-keyboard-response","90","277075","0.0-1.0-108.0","0","0","62995","","null","","","null","11","","","","","","","","","","","","","","","NaN",""
"","S1","","html-keyboard-response","91","277327","0.0-1.0-110.0","0","0","62995","","null","","","null","12","","","","","","","","","","","","","","","",""
"","ISI","","html-keyboard-response","92","277479","0.0-1.0-111.0","0","0","62995","","null","","","null","12","NaN","","","","","","","","","","","","","","",""
"","S2","","html-keyboard-response","93","277732","0.0-1.0-112.0","0","0","62995","","null","","","null","12","","NaN","","","","","","","","","","","","","",""
"","response","","html-keyboard-response","94","278166","0.0-1.0-113.0-0.0","0","0","62995","","433","","","68","12","","","1","12","training","adjacent","BC","2","3","M.jpg","R.jpg","0","1","0","",""
"","feedback","","html-keyboard-response","95","279168","0.0-1.0-114.0-0.0","0","0","62995","","null","","","null","12","","","","","","","","","","","","","","","",""
"","time_out","","html-keyboard-response","96","281171","0.0-1.0-116.0-0.0","0","0","62995","","null","","","null","12","","","","","","","","","","","","","","","",""
"","ITI","","html-keyboard-response","97","282174","0.0-1.0-117.0","0","0","62995","","null","","","null","12","","","","","","","","","","","","","","","NaN",""
"","S1","","html-keyboard-response","98","282427","0.0-1.0-119.0","0","0","62995","","null","","","null","13","","","","","","","","","","","","","","","",""
"","ISI","","html-keyboard-response","99","282580","0.0-1.0-120.0","0","0","62995","","null","","","null","13","NaN","","","","","","","","","","","","","","",""
"","S2","","html-keyboard-response","100","282833","0.0-1.0-121.0","0","0","62995","","null","","","null","13","","NaN","","","","","","","","","","","","","",""
"","response","","html-keyboard-response","101","283151","0.0-1.0-122.0-0.0","0","0","62995","","316","","","68","13","","","1","13","training","adjacent","FG","6","7","L.jpg","O.jpg","0","1","0","",""
"","feedback","","html-keyboard-response","102","284155","0.0-1.0-123.0-0.0","0","0","62995","","null","","","null","13","","","","","","","","","","","","","","","",""
"","time_out","","html-keyboard-response","103","286157","0.0-1.0-125.0-0.0","0","0","62995","","null","","","null","13","","","","","","","","","","","","","","","",""
"","ITI","","html-keyboard-response","104","287160","0.0-1.0-126.0","0","0","62995","","null","","","null","13","","","","","","","","","","","","","","","NaN",""
"","S1","","html-keyboard-response","105","287413","0.0-1.0-128.0","0","0","62995","","null","","","null","14","","","","","","","","","","","","","","","",""
"","ISI","","html-keyboard-response","106","287569","0.0-1.0-129.0","0","0","62995","","null","","","null","14","NaN","","","","","","","","","","","","","","",""
"","S2","","html-keyboard-response","107","287822","0.0-1.0-130.0","0","0","62995","","null","","","null","14","","NaN","","","","","","","","","","","","","",""
"","response","","html-keyboard-response","108","288251","0.0-1.0-131.0-0.0","0","0","62995","","427","","","75","14","","","1","14","training","adjacent","CB","3","2","R.jpg","M.jpg","1","0","0","",""
"","feedback","","html-keyboard-response","109","289253","0.0-1.0-132.0-0.0","0","0","62995","","null","","","null","14","","","","","","","","","","","","","","","",""
"","time_out","","html-keyboard-response","110","291256","0.0-1.0-134.0-0.0","0","0","62995","","null","","","null","14","","","","","","","","","","","","","","","",""
"","ITI","","html-keyboard-response","111","292258","0.0-1.0-135.0","0","0","62995","","null","","","null","14","","","","","","","","","","","","","","","NaN",""
"","S1","","html-keyboard-response","112","292512","0.0-1.0-137.0","0","0","62995","","null","","","null","15","","","","","","","","","","","","","","","",""
"","ISI","","html-keyboard-response","113","292665","0.0-1.0-138.0","0","0","62995","","null","","","null","15","NaN","","","","","","","","","","","","","","",""
"","S2","","html-keyboard-response","114","292918","0.0-1.0-139.0","0","0","62995","","null","","","null","15","","NaN","","","","","","","","","","","","","",""
"","response","","html-keyboard-response","115","293299","0.0-1.0-140.0-0.0","0","0","62995","","380","","","75","15","","","1","15","training","adjacent","DC","4","3","P.jpg","R.jpg","1","0","0","",""
"","feedback","","html-keyboard-response","116","294302","0.0-1.0-141.0-0.0","0","0","62995","","null","","","null","15","","","","","","","","","","","","","","","",""
"","time_out","","html-keyboard-response","117","296304","0.0-1.0-143.0-0.0","0","0","62995","","null","","","null","15","","","","","","","","","","","","","","","",""
"","ITI","","html-keyboard-response","118","297307","0.0-1.0-144.0","0","0","62995","","null","","","null","15","","","","","","","","","","","","","","","NaN",""
"","S1","","html-keyboard-response","119","297560","0.0-1.0-146.0","0","0","62995","","null","","","null","16","","","","","","","","","","","","","","","",""
"","ISI","","html-keyboard-response","120","297712","0.0-1.0-147.0","0","0","62995","","null","","","null","16","NaN","","","","","","","","","","","","","","",""
"","S2","","html-keyboard-response","121","297966","0.0-1.0-148.0","0","0","62995","","null","","","null","16","","NaN","","","","","","","","","","","","","",""
"","response","","html-keyboard-response","122","298384","0.0-1.0-149.0-0.0","0","0","62995","","416","","","75","16","","","1","16","training","adjacent","ED","5","4","Q.jpg","P.jpg","1","0","0","",""
"","feedback","","html-keyboard-response","123","299387","0.0-1.0-150.0-0.0","0","0","62995","","null","","","null","16","","","","","","","","","","","","","","","",""
"","time_out","","html-keyboard-response","124","301389","0.0-1.0-152.0-0.0","0","0","62995","","null","","","null","16","","","","","","","","","","","","","","","",""
"","ITI","","html-keyboard-response","125","302391","0.0-1.0-153.0","0","0","62995","","null","","","null","16","","","","","","","","","","","","","","","NaN",""
"","S1","","html-keyboard-response","126","302644","0.0-1.0-155.0","0","0","62995","","null","","","null","17","","","","","","","","","","","","","","","",""
"","ISI","","html-keyboard-response","127","302796","0.0-1.0-156.0","0","0","62995","","null","","","null","17","NaN","","","","","","","","","","","","","","",""
"","S2","","html-keyboard-response","128","303048","0.0-1.0-157.0","0","0","62995","","null","","","null","17","","NaN","","","","","","","","","","","","","",""
"","response","","html-keyboard-response","129","303344","0.0-1.0-158.0-0.0","0","0","62995","","294","","","68","17","","","1","17","training","adjacent","BA","2","1","M.jpg","N.jpg","0","0","1","",""
"","feedback","","html-keyboard-response","130","304347","0.0-1.0-159.0-0.0","0","0","62995","","null","","","null","17","","","","","","","","","","","","","","","",""
"","ITI","","html-keyboard-response","131","305356","0.0-1.0-162.0","0","0","62995","","null","","","null","17","","","","","","","","","","","","","","","NaN",""
"","S1","","html-keyboard-response","132","305609","0.0-1.0-164.0","0","0","62995","","null","","","null","18","","","","","","","","","","","","","","","",""
"","ISI","","html-keyboard-response","133","305763","0.0-1.0-165.0","0","0","62995","","null","","","null","18","NaN","","","","","","","","","","","","","","",""
"","S2","","html-keyboard-response","134","306016","0.0-1.0-166.0","0","0","62995","","null","","","null","18","","NaN","","","","","","","","","","","","","",""
"","response","","html-keyboard-response","135","306363","0.0-1.0-167.0-0.0","0","0","62995","","346","","","75","18","","","1","18","training","adjacent","DC","4","3","P.jpg","R.jpg","1","0","0","",""
"","feedback","","html-keyboard-response","136","307367","0.0-1.0-168.0-0.0","0","0","62995","","null","","","null","18","","","","","","","","","","","","","","","",""
"","time_out","","html-keyboard-response","137","309369","0.0-1.0-170.0-0.0","0","0","62995","","null","","","null","18","","","","","","","","","","","","","","","",""
"","ITI","","html-keyboard-response","138","310371","0.0-1.0-171.0","0","0","62995","","null","","","null","18","","","","","","","","","","","","","","","NaN",""
"","S1","","html-keyboard-response","139","310624","0.0-1.0-173.0","0","0","62995","","null","","","null","19","","","","","","","","","","","","","","","",""
"","ISI","","html-keyboard-response","140","310776","0.0-1.0-174.0","0","0","62995","","null","","","null","19","NaN","","","","","","","","","","","","","","",""
"","S2","","html-keyboard-response","141","311028","0.0-1.0-175.0","0","0","62995","","null","","","null","19","","NaN","","","","","","","","","","","","","",""
"","response","","html-keyboard-response","142","311445","0.0-1.0-176.0-0.0","0","0","62995","","415","","","68","19","","","1","19","training","adjacent","ED","5","4","Q.jpg","P.jpg","0","0","1","",""
"","feedback","","html-keyboard-response","143","312448","0.0-1.0-177.0-0.0","0","0","62995","","null","","","null","19","","","","","","","","","","","","","","","",""
"","ITI","","html-keyboard-response","144","313451","0.0-1.0-180.0","0","0","62995","","null","","","null","19","","","","","","","","","","","","","","","NaN",""
"","S1","","html-keyboard-response","145","313704","0.0-1.0-182.0","0","0","62995","","null","","","null","20","","","","","","","","","","","","","","","",""
"","ISI","","html-keyboard-response","146","313857","0.0-1.0-183.0","0","0","62995","","null","","","null","20","NaN","","","","","","","","","","","","","","",""
"","S2","","html-keyboard-response","147","314109","0.0-1.0-184.0","0","0","62995","","null","","","null","20","","NaN","","","","","","","","","","","","","",""
"","response","","html-keyboard-response","148","314679","0.0-1.0-185.0-0.0","0","0","62995","","568","","","75","20","","","1","20","training","adjacent","AB","1","2","N.jpg","M.jpg","1","1","1","",""
"","feedback","","html-keyboard-response","149","315682","0.0-1.0-186.0-0.0","0","0","62995","","null","","","null","20","","","","","","","","","","","","","","","",""
"","ITI","","html-keyboard-response","150","316685","0.0-1.0-189.0","0","0","62995","","null","","","null","20","","","","","","","","","","","","","","","NaN",""
"","S1","","html-keyboard-response","151","316937","0.0-1.0-191.0","0","0","62995","","null","","","null","21","","","","","","","","","","","","","","","",""
"","ISI","","html-keyboard-response","152","317089","0.0-1.0-192.0","0","0","62995","","null","","","null","21","NaN","","","","","","","","","","","","","","",""
"","S2","","html-keyboard-response","153","317342","0.0-1.0-193.0","0","0","62995","","null","","","null","21","","NaN","","","","","","","","","","","","","",""
"","response","","html-keyboard-response","154","317887","0.0-1.0-194.0-0.0","0","0","62995","","544","","","68","21","","","1","21","training","adjacent","BA","2","1","M.jpg","N.jpg","0","0","1","",""
"","feedback","","html-keyboard-response","155","318889","0.0-1.0-195.0-0.0","0","0","62995","","null","","","null","21","","","","","","","","","","","","","","","",""
"","ITI","","html-keyboard-response","156","319892","0.0-1.0-198.0","0","0","62995","","null","","","null","21","","","","","","","","","","","","","","","NaN",""
"","S1","","html-keyboard-response","157","320145","0.0-1.0-200.0","0","0","62995","","null","","","null","22","","","","","","","","","","","","","","","",""
"","ISI","","html-keyboard-response","158","320298","0.0-1.0-201.0","0","0","62995","","null","","","null","22","NaN","","","","","","","","","","","","","","",""
"","S2","","html-keyboard-response","159","320550","0.0-1.0-202.0","0","0","62995","","null","","","null","22","","NaN","","","","","","","","","","","","","",""
"","response","","html-keyboard-response","160","320918","0.0-1.0-203.0-0.0","0","0","62995","","367","","","75","22","","","1","22","training","adjacent","EF","5","6","Q.jpg","L.jpg","1","1","1","",""
"","feedback","","html-keyboard-response","161","321921","0.0-1.0-204.0-0.0","0","0","62995","","null","","","null","22","","","","","","","","","","","","","","","",""
"","ITI","","html-keyboard-response","162","322924","0.0-1.0-207.0","0","0","62995","","null","","","null","22","","","","","","","","","","","","","","","NaN",""
"","S1","","html-keyboard-response","163","323176","0.0-1.0-209.0","0","0","62995","","null","","","null","23","","","","","","","","","","","","","","","",""
"","ISI","","html-keyboard-response","164","323329","0.0-1.0-210.0","0","0","62995","","null","","","null","23","NaN","","","","","","","","","","","","","","",""
"","S2","","html-keyboard-response","165","323581","0.0-1.0-211.0","0","0","62995","","null","","","null","23","","NaN","","","","","","","","","","","","","",""
"","response","","html-keyboard-response","166","323951","0.0-1.0-212.0-0.0","0","0","62995","","368","","","68","23","","","1","23","training","adjacent","FE","6","5","L.jpg","Q.jpg","0","0","1","",""
"","feedback","","html-keyboard-response","167","324954","0.0-1.0-213.0-0.0","0","0","62995","","null","","","null","23","","","","","","","","","","","","","","","",""
"","ITI","","html-keyboard-response","168","325957","0.0-1.0-216.0","0","0","62995","","null","","","null","23","","","","","","","","","","","","","","","NaN",""
"","S1","","html-keyboard-response","169","326210","0.0-1.0-218.0","0","0","62995","","null","","","null","24","","","","","","","","","","","","","","","",""
"","ISI","","html-keyboard-response","170","326363","0.0-1.0-219.0","0","0","62995","","null","","","null","24","NaN","","","","","","","","","","","","","","",""
"","S2","","html-keyboard-response","171","326616","0.0-1.0-220.0","0","0","62995","","null","","","null","24","","NaN","","","","","","","","","","","","","",""
"","response","","html-keyboard-response","172","326970","0.0-1.0-221.0-0.0","0","0","62995","","353","","","75","24","","","1","24","training","adjacent","DE","4","5","P.jpg","Q.jpg","1","1","1","",""
"","feedback","","html-keyboard-response","173","327972","0.0-1.0-222.0-0.0","0","0","62995","","null","","","null","24","","","","","","","","","","","","","","","",""
"","ITI","","html-keyboard-response","174","328974","0.0-1.0-225.0","0","0","62995","","null","","","null","24","","","","","","","","","","","","","","","NaN",""
"","S1","","html-keyboard-response","175","329226","0.0-1.0-227.0","0","0","62995","","null","","","null","25","","","","","","","","","","","","","","","",""
"","ISI","","html-keyboard-response","176","329378","0.0-1.0-228.0","0","0","62995","","null","","","null","25","NaN","","","","","","","","","","","","","","",""
"","S2","","html-keyboard-response","177","329631","0.0-1.0-229.0","0","0","62995","","null","","","null","25","","NaN","","","","","","","","","","","","","",""
"","response","","html-keyboard-response","178","329995","0.0-1.0-230.0-0.0","0","0","62995","","361","","","68","25","","","1","25","training","adjacent","BC","2","3","M.jpg","R.jpg","0","1","0","",""
"","feedback","","html-keyboard-response","179","330998","0.0-1.0-231.0-0.0","0","0","62995","","null","","","null","25","","","","","","","","","","","","","","","",""
"","time_out","","html-keyboard-response","180","333000","0.0-1.0-233.0-0.0","0","0","62995","","null","","","null","25","","","","","","","","","","","","","","","",""
"","ITI","","html-keyboard-response","181","334003","0.0-1.0-234.0","0","0","62995","","null","","","null","25","","","","","","","","","","","","","","","NaN",""
"","S1","","html-keyboard-response","182","334257","0.0-1.0-236.0","0","0","62995","","null","","","null","26","","","","","","","","","","","","","","","",""
"","ISI","","html-keyboard-response","183","334410","0.0-1.0-237.0","0","0","62995","","null","","","null","26","NaN","","","","","","","","","","","","","","",""
"","S2","","html-keyboard-response","184","334662","0.0-1.0-238.0","0","0","62995","","null","","","null","26","","NaN","","","","","","","","","","","","","",""
"","response","","html-keyboard-response","185","335014","0.0-1.0-239.0-0.0","0","0","62995","","349","","","75","26","","","1","26","training","adjacent","BA","2","1","M.jpg","N.jpg","1","0","0","",""
"","feedback","","html-keyboard-response","186","336018","0.0-1.0-240.0-0.0","0","0","62995","","null","","","null","26","","","","","","","","","","","","","","","",""
"","time_out","","html-keyboard-response","187","338020","0.0-1.0-242.0-0.0","0","0","62995","","null","","","null","26","","","","","","","","","","","","","","","",""
"","ITI","","html-keyboard-response","188","339023","0.0-1.0-243.0","0","0","62995","","null","","","null","26","","","","","","","","","","","","","","","NaN",""
"","S1","","html-keyboard-response","189","339275","0.0-1.0-245.0","0","0","62995","","null","","","null","27","","","","","","","","","","","","","","","",""
"","ISI","","html-keyboard-response","190","339428","0.0-1.0-246.0","0","0","62995","","null","","","null","27","NaN","","","","","","","","","","","","","","",""
"","S2","","html-keyboard-response","191","339680","0.0-1.0-247.0","0","0","62995","","null","","","null","27","","NaN","","","","","","","","","","","","","",""
"","response","","html-keyboard-response","192","340378","0.0-1.0-248.0-0.0","0","0","62995","","696","","","68","27","","","1","27","training","adjacent","CD","3","4","R.jpg","P.jpg","0","1","0","",""
"","feedback","","html-keyboard-response","193","341381","0.0-1.0-249.0-0.0","0","0","62995","","null","","","null","27","","","","","","","","","","","","","","","",""
"","time_out","","html-keyboard-response","194","343394","0.0-1.0-251.0-0.0","0","0","62995","","null","","","null","27","","","","","","","","","","","","","","","",""
"","ITI","","html-keyboard-response","195","344396","0.0-1.0-252.0","0","0","62995","","null","","","null","27","","","","","","","","","","","","","","","NaN",""
"","S1","","html-keyboard-response","196","344649","0.0-1.0-254.0","0","0","62995","","null","","","null","28","","","","","","","","","","","","","","","",""
"","ISI","","html-keyboard-response","197","344802","0.0-1.0-255.0","0","0","62995","","null","","","null","28","NaN","","","","","","","","","","","","","","",""
"","S2","","html-keyboard-response","198","345056","0.0-1.0-256.0","0","0","62995","","null","","","null","28","","NaN","","","","","","","","","","","","","",""
"","response","","html-keyboard-response","199","345527","0.0-1.0-257.0-0.0","0","0","62995","","470","","","75","28","","","1","28","training","adjacent","DC","4","3","P.jpg","R.jpg","1","0","0","",""
"","feedback","","html-keyboard-response","200","346529","0.0-1.0-258.0-0.0","0","0","62995","","null","","","null","28","","","","","","","","","","","","","","","",""
"","time_out","","html-keyboard-response","201","348531","0.0-1.0-260.0-0.0","0","0","62995","","null","","","null","28","","","","","","","","","","","","","","","",""
"","ITI","","html-keyboard-response","202","349534","0.0-1.0-261.0","0","0","62995","","null","","","null","28","","","","","","","","","","","","","","","NaN",""
"","S1","","html-keyboard-response","203","349789","0.0-1.0-263.0","0","0","62995","","null","","","null","29","","","","","","","","","","","","","","","",""
"","ISI","","html-keyboard-response","204","349941","0.0-1.0-264.0","0","0","62995","","null","","","null","29","NaN","","","","","","","","","","","","","","",""
"","S2","","html-keyboard-response","205","350194","0.0-1.0-265.0","0","0","62995","","null","","","null","29","","NaN","","","","","","","","","","","","","",""
"","response","","html-keyboard-response","206","350846","0.0-1.0-266.0-0.0","0","0","62995","","651","","","68","29","","","1","29","training","adjacent","AB","1","2","N.jpg","M.jpg","0","1","0","",""
"","feedback","","html-keyboard-response","207","351849","0.0-1.0-267.0-0.0","0","0","62995","","null","","","null","29","","","","","","","","","","","","","","","",""
"","time_out","","html-keyboard-response","208","353852","0.0-1.0-269.0-0.0","0","0","62995","","null","","","null","29","","","","","","","","","","","","","","","",""
"","ITI","","html-keyboard-response","209","354854","0.0-1.0-270.0","0","0","62995","","null","","","null","29","","","","","","","","","","","","","","","NaN",""
"","S1","","html-keyboard-response","210","355107","0.0-1.0-272.0","0","0","62995","","null","","","null","30","","","","","","","","","","","","","","","",""
"","ISI","","html-keyboard-response","211","355260","0.0-1.0-273.0","0","0","62995","","null","","","null","30","NaN","","","","","","","","","","","","","","",""
"","S2","","html-keyboard-response","212","355513","0.0-1.0-274.0","0","0","62995","","null","","","null","30","","NaN","","","","","","","","","","","","","",""
"","response","","html-keyboard-response","213","356243","0.0-1.0-275.0-0.0","0","0","62995","","729","","","75","30","","","1","30","training","adjacent","DE","4","5","P.jpg","Q.jpg","1","1","1","",""
"","feedback","","html-keyboard-response","214","357247","0.0-1.0-276.0-0.0","0","0","62995","","null","","","null","30","","","","","","","","","","","","","","","",""
"","ITI","","html-keyboard-response","215","358249","0.0-1.0-279.0","0","0","62995","","null","","","null","30","","","","","","","","","","","","","","","NaN",""
"","S1","","html-keyboard-response","216","358501","0.0-1.0-281.0","0","0","62995","","null","","","null","31","","","","","","","","","","","","","","","",""
"","ISI","","html-keyboard-response","217","358653","0.0-1.0-282.0","0","0","62995","","null","","","null","31","NaN","","","","","","","","","","","","","","",""
"","S2","","html-keyboard-response","218","358905","0.0-1.0-283.0","0","0","62995","","null","","","null","31","","NaN","","","","","","","","","","","","","",""
"","response","","html-keyboard-response","219","359460","0.0-1.0-284.0-0.0","0","0","62995","","554","","","68","31","","","1","31","training","adjacent","GF","7","6","O.jpg","L.jpg","0","0","1","",""
"","feedback","","html-keyboard-response","220","360463","0.0-1.0-285.0-0.0","0","0","62995","","null","","","null","31","","","","","","","","","","","","","","","",""
"","ITI","","html-keyboard-response","221","361466","0.0-1.0-288.0","0","0","62995","","null","","","null","31","","","","","","","","","","","","","","","NaN",""
"","S1","","html-keyboard-response","222","361718","0.0-1.0-290.0","0","0","62995","","null","","","null","32","","","","","","","","","","","","","","","",""
"","ISI","","html-keyboard-response","223","361871","0.0-1.0-291.0","0","0","62995","","null","","","null","32","NaN","","","","","","","","","","","","","","",""
"","S2","","html-keyboard-response","224","362123","0.0-1.0-292.0","0","0","62995","","null","","","null","32","","NaN","","","","","","","","","","","","","",""
"","response","","html-keyboard-response","225","362563","0.0-1.0-293.0-0.0","0","0","62995","","439","","","75","32","","","1","32","training","adjacent","BA","2","1","M.jpg","N.jpg","1","0","0","",""
"","feedback","","html-keyboard-response","226","363566","0.0-1.0-294.0-0.0","0","0","62995","","null","","","null","32","","","","","","","","","","","","","","","",""
"","time_out","","html-keyboard-response","227","365569","0.0-1.0-296.0-0.0","0","0","62995","","null","","","null","32","","","","","","","","","","","","","","","",""
"","ITI","","html-keyboard-response","228","366571","0.0-1.0-297.0","0","0","62995","","null","","","null","32","","","","","","","","","","","","","","","NaN",""
"","S1","","html-keyboard-response","229","366829","0.0-1.0-299.0","0","0","62995","","null","","","null","33","","","","","","","","","","","","","","","",""
"","ISI","","html-keyboard-response","230","366982","0.0-1.0-300.0","0","0","62995","","null","","","null","33","NaN","","","","","","","","","","","","","","",""
"","S2","","html-keyboard-response","231","367236","0.0-1.0-301.0","0","0","62995","","null","","","null","33","","NaN","","","","","","","","","","","","","",""
"","response","","html-keyboard-response","232","368132","0.0-1.0-302.0-0.0","0","0","62995","","894","","","68","33","","","1","33","training","adjacent","GF","7","6","O.jpg","L.jpg","0","0","1","",""
"","feedback","","html-keyboard-response","233","369136","0.0-1.0-303.0-0.0","0","0","62995","","null","","","null","33","","","","","","","","","","","","","","","",""
"","ITI","","html-keyboard-response","234","370145","0.0-1.0-306.0","0","0","62995","","null","","","null","33","","","","","","","","","","","","","","","NaN",""
"","S1","","html-keyboard-response","235","370397","0.0-1.0-308.0","0","0","62995","","null","","","null","34","","","","","","","","","","","","","","","",""
"","ISI","","html-keyboard-response","236","370550","0.0-1.0-309.0","0","0","62995","","null","","","null","34","NaN","","","","","","","","","","","","","","",""
"","S2","","html-keyboard-response","237","370802","0.0-1.0-310.0","0","0","62995","","null","","","null","34","","NaN","","","","","","","","","","","","","",""
"","response","","html-keyboard-response","238","371442","0.0-1.0-311.0-0.0","0","0","62995","","639","","","75","34","","","1","34","training","adjacent","FG","6","7","L.jpg","O.jpg","1","1","1","",""
"","feedback","","html-keyboard-response","239","372445","0.0-1.0-312.0-0.0","0","0","62995","","null","","","null","34","","","","","","","","","","","","","","","",""
"","ITI","","html-keyboard-response","240","373448","0.0-1.0-315.0","0","0","62995","","null","","","null","34","","","","","","","","","","","","","","","NaN",""
"","S1","","html-keyboard-response","241","373700","0.0-1.0-317.0","0","0","62995","","null","","","null","35","","","","","","","","","","","","","","","",""
"","ISI","","html-keyboard-response","242","373853","0.0-1.0-318.0","0","0","62995","","null","","","null","35","NaN","","","","","","","","","","","","","","",""
"","S2","","html-keyboard-response","243","374105","0.0-1.0-319.0","0","0","62995","","null","","","null","35","","NaN","","","","","","","","","","","","","",""
"","response","","html-keyboard-response","244","374788","0.0-1.0-320.0-0.0","0","0","62995","","681","","","75","35","","","1","35","training","adjacent","ED","5","4","Q.jpg","P.jpg","1","0","0","",""
"","feedback","","html-keyboard-response","245","375790","0.0-1.0-321.0-0.0","0","0","62995","","null","","","null","35","","","","","","","","","","","","","","","",""
"","time_out","","html-keyboard-response","246","377792","0.0-1.0-323.0-0.0","0","0","62995","","null","","","null","35","","","","","","","","","","","","","","","",""
"","ITI","","html-keyboard-response","247","378797","0.0-1.0-324.0","0","0","62995","","null","","","null","35","","","","","","","","","","","","","","","NaN",""
"","S1","","html-keyboard-response","248","379050","0.0-1.0-326.0","0","0","62995","","null","","","null","36","","","","","","","","","","","","","","","",""
"","ISI","","html-keyboard-response","249","379203","0.0-1.0-327.0","0","0","62995","","null","","","null","36","NaN","","","","","","","","","","","","","","",""
"","S2","","html-keyboard-response","250","379456","0.0-1.0-328.0","0","0","62995","","null","","","null","36","","NaN","","","","","","","","","","","","","",""
"","response","","html-keyboard-response","251","379868","0.0-1.0-329.0-0.0","0","0","62995","","411","","","68","36","","","1","36","training","adjacent","CD","3","4","R.jpg","P.jpg","0","1","0","",""
"","feedback","","html-keyboard-response","252","380871","0.0-1.0-330.0-0.0","0","0","62995","","null","","","null","36","","","","","","","","","","","","","","","",""
"","time_out","","html-keyboard-response","253","382874","0.0-1.0-332.0-0.0","0","0","62995","","null","","","null","36","","","","","","","","","","","","","","","",""
"","ITI","","html-keyboard-response","254","383876","0.0-1.0-333.0","0","0","62995","","null","","","null","36","","","","","","","","","","","","","","","NaN",""
"","S1","","html-keyboard-response","255","384128","0.0-1.0-335.0","0","0","62995","","null","","","null","37","","","","","","","","","","","","","","","",""
"","ISI","","html-keyboard-response","256","384280","0.0-1.0-336.0","0","0","62995","","null","","","null","37","NaN","","","","","","","","","","","","","","",""
"","S2","","html-keyboard-response","257","384533","0.0-1.0-337.0","0","0","62995","","null","","","null","37","","NaN","","","","","","","","","","","","","",""
"","response","","html-keyboard-response","258","385176","0.0-1.0-338.0-0.0","0","0","62995","","642","","","75","37","","","1","37","training","adjacent","DE","4","5","P.jpg","Q.jpg","1","1","1","",""
"","feedback","","html-keyboard-response","259","386179","0.0-1.0-339.0-0.0","0","0","62995","","null","","","null","37","","","","","","","","","","","","","","","",""
"","ITI","","html-keyboard-response","260","387181","0.0-1.0-342.0","0","0","62995","","null","","","null","37","","","","","","","","","","","","","","","NaN",""
"","S1","","html-keyboard-response","261","387433","0.0-1.0-344.0","0","0","62995","","null","","","null","38","","","","","","","","","","","","","","","",""
"","ISI","","html-keyboard-response","262","387586","0.0-1.0-345.0","0","0","62995","","null","","","null","38","NaN","","","","","","","","","","","","","","",""
"","S2","","html-keyboard-response","263","387839","0.0-1.0-346.0","0","0","62995","","null","","","null","38","","NaN","","","","","","","","","","","","","",""
"","response","","html-keyboard-response","264","388454","0.0-1.0-347.0-0.0","0","0","62995","","614","","","68","38","","","1","38","training","adjacent","DE","4","5","P.jpg","Q.jpg","0","1","0","",""
"","feedback","","html-keyboard-response","265","389457","0.0-1.0-348.0-0.0","0","0","62995","","null","","","null","38","","","","","","","","","","","","","","","",""
"","time_out","","html-keyboard-response","266","391459","0.0-1.0-350.0-0.0","0","0","62995","","null","","","null","38","","","","","","","","","","","","","","","",""
"","ITI","","html-keyboard-response","267","392461","0.0-1.0-351.0","0","0","62995","","null","","","null","38","","","","","","","","","","","","","","","NaN",""
"","S1","","html-keyboard-response","268","392712","0.0-1.0-353.0","0","0","62995","","null","","","null","39","","","","","","","","","","","","","","","",""
"","ISI","","html-keyboard-response","269","392866","0.0-1.0-354.0","0","0","62995","","null","","","null","39","NaN","","","","","","","","","","","","","","",""
"","S2","","html-keyboard-response","270","393119","0.0-1.0-355.0","0","0","62995","","null","","","null","39","","NaN","","","","","","","","","","","","","",""
"","response","","html-keyboard-response","271","393624","0.0-1.0-356.0-0.0","0","0","62995","","505","","","68","39","","","1","39","training","adjacent","CD","3","4","R.jpg","P.jpg","0","1","0","",""
"","feedback","","html-keyboard-response","272","394627","0.0-1.0-357.0-0.0","0","0","62995","","null","","","null","39","","","","","","","","","","","","","","","",""
"","time_out","","html-keyboard-response","273","396629","0.0-1.0-359.0-0.0","0","0","62995","","null","","","null","39","","","","","","","","","","","","","","","",""
"","ITI","","html-keyboard-response","274","397631","0.0-1.0-360.0","0","0","62995","","null","","","null","39","","","","","","","","","","","","","","","NaN",""
"","S1","","html-keyboard-response","275","397884","0.0-1.0-362.0","0","0","62995","","null","","","null","40","","","","","","","","","","","","","","","",""
"","ISI","","html-keyboard-response","276","398038","0.0-1.0-363.0","0","0","62995","","null","","","null","40","NaN","","","","","","","","","","","","","","",""
"","S2","","html-keyboard-response","277","398290","0.0-1.0-364.0","0","0","62995","","null","","","null","40","","NaN","","","","","","","","","","","","","",""
"","response","","html-keyboard-response","278","398904","0.0-1.0-365.0-0.0","0","0","62995","","612","","","75","40","","","1","40","training","adjacent","FG","6","7","L.jpg","O.jpg","1","1","1","",""
"","feedback","","html-keyboard-response","279","399913","0.0-1.0-366.0-0.0","0","0","62995","","null","","","null","40","","","","","","","","","","","","","","","",""
"","ITI","","html-keyboard-response","280","400916","0.0-1.0-369.0","0","0","62995","","null","","","null","40","","","","","","","","","","","","","","","NaN",""
"","S1","","html-keyboard-response","281","401169","0.0-1.0-371.0","0","0","62995","","null","","","null","41","","","","","","","","","","","","","","","",""
"","ISI","","html-keyboard-response","282","401322","0.0-1.0-372.0","0","0","62995","","null","","","null","41","NaN","","","","","","","","","","","","","","",""
"","S2","","html-keyboard-response","283","401575","0.0-1.0-373.0","0","0","62995","","null","","","null","41","","NaN","","","","","","","","","","","","","",""
"","response","","html-keyboard-response","284","402124","0.0-1.0-374.0-0.0","0","0","62995","","547","","","68","41","","","1","41","training","adjacent","DC","4","3","P.jpg","R.jpg","0","0","1","",""
"","feedback","","html-keyboard-response","285","403127","0.0-1.0-375.0-0.0","0","0","62995","","null","","","null","41","","","","","","","","","","","","","","","",""
"","ITI","","html-keyboard-response","286","404130","0.0-1.0-378.0","0","0","62995","","null","","","null","41","","","","","","","","","","","","","","","NaN",""
"","S1","","html-keyboard-response","287","404383","0.0-1.0-380.0","0","0","62995","","null","","","null","42","","","","","","","","","","","","","","","",""
"","ISI","","html-keyboard-response","288","404537","0.0-1.0-381.0","0","0","62995","","null","","","null","42","NaN","","","","","","","","","","","","","","",""
"","S2","","html-keyboard-response","289","404789","0.0-1.0-382.0","0","0","62995","","null","","","null","42","","NaN","","","","","","","","","","","","","",""
"","response","","html-keyboard-response","290","405280","0.0-1.0-383.0-0.0","0","0","62995","","489","","","68","42","","","1","42","training","adjacent","CD","3","4","R.jpg","P.jpg","0","1","0","",""
"","feedback","","html-keyboard-response","291","406283","0.0-1.0-384.0-0.0","0","0","62995","","null","","","null","42","","","","","","","","","","","","","","","",""
"","time_out","","html-keyboard-response","292","408285","0.0-1.0-386.0-0.0","0","0","62995","","null","","","null","42","","","","","","","","","","","","","","","",""
"","ITI","","html-keyboard-response","293","409287","0.0-1.0-387.0","0","0","62995","","null","","","null","42","","","","","","","","","","","","","","","NaN",""
"","S1","","html-keyboard-response","294","409541","0.0-1.0-389.0","0","0","62995","","null","","","null","43","","","","","","","","","","","","","","","",""
"","ISI","","html-keyboard-response","295","409693","0.0-1.0-390.0","0","0","62995","","null","","","null","43","NaN","","","","","","","","","","","","","","",""
"","S2","","html-keyboard-response","296","409945","0.0-1.0-391.0","0","0","62995","","null","","","null","43","","NaN","","","","","","","","","","","","","",""
"","response","","html-keyboard-response","297","410643","0.0-1.0-392.0-0.0","0","0","62995","","696","","","75","43","","","1","43","training","adjacent","FE","6","5","L.jpg","Q.jpg","1","0","0","",""
"","feedback","","html-keyboard-response","298","411646","0.0-1.0-393.0-0.0","0","0","62995","","null","","","null","43","","","","","","","","","","","","","","","",""
"","time_out","","html-keyboard-response","299","413648","0.0-1.0-395.0-0.0","0","0","62995","","null","","","null","43","","","","","","","","","","","","","","","",""
"","ITI","","html-keyboard-response","300","414651","0.0-1.0-396.0","0","0","62995","","null","","","null","43","","","","","","","","","","","","","","","NaN",""
"","S1","","html-keyboard-response","301","414903","0.0-1.0-398.0","0","0","62995","","null","","","null","44","","","","","","","","","","","","","","","",""
"","ISI","","html-keyboard-response","302","415055","0.0-1.0-399.0","0","0","62995","","null","","","null","44","NaN","","","","","","","","","","","","","","",""
"","S2","","html-keyboard-response","303","415308","0.0-1.0-400.0","0","0","62995","","null","","","null","44","","NaN","","","","","","","","","","","","","",""
"","response","","html-keyboard-response","304","415979","0.0-1.0-401.0-0.0","0","0","62995","","669","","","68","44","","","1","44","training","adjacent","AB","1","2","N.jpg","M.jpg","0","1","0","",""
"","feedback","","html-keyboard-response","305","416982","0.0-1.0-402.0-0.0","0","0","62995","","null","","","null","44","","","","","","","","","","","","","","","",""
"","time_out","","html-keyboard-response","306","418984","0.0-1.0-404.0-0.0","0","0","62995","","null","","","null","44","","","","","","","","","","","","","","","",""
"","ITI","","html-keyboard-response","307","419987","0.0-1.0-405.0","0","0","62995","","null","","","null","44","","","","","","","","","","","","","","","NaN",""
"","S1","","html-keyboard-response","308","420239","0.0-1.0-407.0","0","0","62995","","null","","","null","45","","","","","","","","","","","","","","","",""
"","ISI","","html-keyboard-response","309","420392","0.0-1.0-408.0","0","0","62995","","null","","","null","45","NaN","","","","","","","","","","","","","","",""
"","S2","","html-keyboard-response","310","420643","0.0-1.0-409.0","0","0","62995","","null","","","null","45","","NaN","","","","","","","","","","","","","",""
"","response","","html-keyboard-response","311","421240","0.0-1.0-410.0-0.0","0","0","62995","","595","","","75","45","","","1","45","training","adjacent","FE","6","5","L.jpg","Q.jpg","1","0","0","",""
"","feedback","","html-keyboard-response","312","422242","0.0-1.0-411.0-0.0","0","0","62995","","null","","","null","45","","","","","","","","","","","","","","","",""
"","time_out","","html-keyboard-response","313","424244","0.0-1.0-413.0-0.0","0","0","62995","","null","","","null","45","","","","","","","","","","","","","","","",""
"","ITI","","html-keyboard-response","314","425246","0.0-1.0-414.0","0","0","62995","","null","","","null","45","","","","","","","","","","","","","","","NaN",""
"","S1","","html-keyboard-response","315","425498","0.0-1.0-416.0","0","0","62995","","null","","","null","46","","","","","","","","","","","","","","","",""
"","ISI","","html-keyboard-response","316","425651","0.0-1.0-417.0","0","0","62995","","null","","","null","46","NaN","","","","","","","","","","","","","","",""
"","S2","","html-keyboard-response","317","425904","0.0-1.0-418.0","0","0","62995","","null","","","null","46","","NaN","","","","","","","","","","","","","",""
"","response","","html-keyboard-response","318","426883","0.0-1.0-419.0-0.0","0","0","62995","","978","","","68","46","","","1","46","training","adjacent","FG","6","7","L.jpg","O.jpg","0","1","0","",""
"","feedback","","html-keyboard-response","319","427885","0.0-1.0-420.0-0.0","0","0","62995","","null","","","null","46","","","","","","","","","","","","","","","",""
"","time_out","","html-keyboard-response","320","429888","0.0-1.0-422.0-0.0","0","0","62995","","null","","","null","46","","","","","","","","","","","","","","","",""
"","ITI","","html-keyboard-response","321","430890","0.0-1.0-423.0","0","0","62995","","null","","","null","46","","","","","","","","","","","","","","","NaN",""
"","S1","","html-keyboard-response","322","431142","0.0-1.0-425.0","0","0","62995","","null","","","null","47","","","","","","","","","","","","","","","",""
"","ISI","","html-keyboard-response","323","431295","0.0-1.0-426.0","0","0","62995","","null","","","null","47","NaN","","","","","","","","","","","","","","",""
"","S2","","html-keyboard-response","324","431549","0.0-1.0-427.0","0","0","62995","","null","","","null","47","","NaN","","","","","","","","","","","","","",""
"","response","","html-keyboard-response","325","432472","0.0-1.0-428.0-0.0","0","0","62995","","922","","","68","47","","","1","47","training","adjacent","EF","5","6","Q.jpg","L.jpg","0","1","0","",""
"","feedback","","html-keyboard-response","326","433474","0.0-1.0-429.0-0.0","0","0","62995","","null","","","null","47","","","","","","","","","","","","","","","",""
"","time_out","","html-keyboard-response","327","435478","0.0-1.0-431.0-0.0","0","0","62995","","null","","","null","47","","","","","","","","","","","","","","","",""
"","ITI","","html-keyboard-response","328","436480","0.0-1.0-432.0","0","0","62995","","null","","","null","47","","","","","","","","","","","","","","","NaN",""
"","block_over","","html-keyboard-response","329","443333","0.0-1.0-433.0-0.0","0","0","62995","","6851","","","32","47","","","","","","","","","","","","","","","",""
"","S1","","html-keyboard-response","330","443586","0.0-1.0-434.0","0","0","62995","","null","","","null","48","","","","","","","","","","","","","","","",""
"","ISI","","html-keyboard-response","331","443739","0.0-1.0-435.0","0","0","62995","","null","","","null","48","NaN","","","","","","","","","","","","","","",""
"","S2","","html-keyboard-response","332","443993","0.0-1.0-436.0","0","0","62995","","null","","","null","48","","NaN","","","","","","","","","","","","","",""
"","response","","html-keyboard-response","333","445123","0.0-1.0-437.0-0.0","0","0","62995","","1129","","","68","48","","","2","48","training","adjacent","CB","3","2","R.jpg","M.jpg","0","0","1","",""
"","feedback","","html-keyboard-response","334","446126","0.0-1.0-438.0-0.0","0","0","62995","","null","","","null","48","","","","","","","","","","","","","","","",""
"","ITI","","html-keyboard-response","335","447128","0.0-1.0-441.0","0","0","62995","","null","","","null","48","","","","","","","","","","","","","","","NaN",""
"","S1","","html-keyboard-response","336","447382","0.0-1.0-443.0","0","0","62995","","null","","","null","49","","","","","","","","","","","","","","","",""
"","ISI","","html-keyboard-response","337","447535","0.0-1.0-444.0","0","0","62995","","null","","","null","49","NaN","","","","","","","","","","","","","","",""
"","S2","","html-keyboard-response","338","447801","0.0-1.0-445.0","0","0","62995","","null","","","null","49","","NaN","","","","","","","","","","","","","",""
"","response","","html-keyboard-response","339","448126","0.0-1.0-446.0-0.0","0","0","62995","","322","","","75","49","","","2","49","training","adjacent","EF","5","6","Q.jpg","L.jpg","1","1","1","",""
"","feedback","","html-keyboard-response","340","449130","0.0-1.0-447.0-0.0","0","0","62995","","null","","","null","49","","","","","","","","","","","","","","","",""
"","ITI","","html-keyboard-response","341","450132","0.0-1.0-450.0","0","0","62995","","null","","","null","49","","","","","","","","","","","","","","","NaN",""
"","S1","","html-keyboard-response","342","450384","0.0-1.0-452.0","0","0","62995","","null","","","null","50","","","","","","","","","","","","","","","",""
"","ISI","","html-keyboard-response","343","450546","0.0-1.0-453.0","0","0","62995","","null","","","null","50","NaN","","","","","","","","","","","","","","",""
"","S2","","html-keyboard-response","344","450799","0.0-1.0-454.0","0","0","62995","","null","","","null","50","","NaN","","","","","","","","","","","","","",""
"","response","","html-keyboard-response","345","451129","0.0-1.0-455.0-0.0","0","0","62995","","328","","","68","50","","","2","50","training","adjacent","CD","3","4","R.jpg","P.jpg","0","1","0","",""
"","feedback","","html-keyboard-response","346","452132","0.0-1.0-456.0-0.0","0","0","62995","","null","","","null","50","","","","","","","","","","","","","","","",""
"","time_out","","html-keyboard-response","347","454135","0.0-1.0-458.0-0.0","0","0","62995","","null","","","null","50","","","","","","","","","","","","","","","",""
"","ITI","","html-keyboard-response","348","455137","0.0-1.0-459.0","0","0","62995","","null","","","null","50","","","","","","","","","","","","","","","NaN",""
"","S1","","html-keyboard-response","349","455390","0.0-1.0-461.0","0","0","62995","","null","","","null","51","","","","","","","","","","","","","","","",""
"","ISI","","html-keyboard-response","350","455543","0.0-1.0-462.0","0","0","62995","","null","","","null","51","NaN","","","","","","","","","","","","","","",""
"","S2","","html-keyboard-response","351","455795","0.0-1.0-463.0","0","0","62995","","null","","","null","51","","NaN","","","","","","","","","","","","","",""
"","response","","html-keyboard-response","352","456124","0.0-1.0-464.0-0.0","0","0","62995","","328","","","75","51","","","2","51","training","adjacent","GF","7","6","O.jpg","L.jpg","1","0","0","",""
"","feedback","","html-keyboard-response","353","457128","0.0-1.0-465.0-0.0","0","0","62995","","null","","","null","51","","","","","","","","","","","","","","","",""
"","time_out","","html-keyboard-response","354","459131","0.0-1.0-467.0-0.0","0","0","62995","","null","","","null","51","","","","","","","","","","","","","","","",""
"","ITI","","html-keyboard-response","355","460135","0.0-1.0-468.0","0","0","62995","","null","","","null","51","","","","","","","","","","","","","","","NaN",""
"","S1","","html-keyboard-response","356","460387","0.0-1.0-470.0","0","0","62995","","null","","","null","52","","","","","","","","","","","","","","","",""
"","ISI","","html-keyboard-response","357","460540","0.0-1.0-471.0","0","0","62995","","null","","","null","52","NaN","","","","","","","","","","","","","","",""
"","S2","","html-keyboard-response","358","460794","0.0-1.0-472.0","0","0","62995","","null","","","null","52","","NaN","","","","","","","","","","","","","",""
"","response","","html-keyboard-response","359","461406","0.0-1.0-473.0-0.0","0","0","62995","","611","","","75","52","","","2","52","training","adjacent","FE","6","5","L.jpg","Q.jpg","1","0","0","",""
"","feedback","","html-keyboard-response","360","462408","0.0-1.0-474.0-0.0","0","0","62995","","null","","","null","52","","","","","","","","","","","","","","","",""
"","time_out","","html-keyboard-response","361","464412","0.0-1.0-476.0-0.0","0","0","62995","","null","","","null","52","","","","","","","","","","","","","","","",""
"","ITI","","html-keyboard-response","362","465415","0.0-1.0-477.0","0","0","62995","","null","","","null","52","","","","","","","","","","","","","","","NaN",""
"","S1","","html-keyboard-response","363","465670","0.0-1.0-479.0","0","0","62995","","null","","","null","53","","","","","","","","","","","","","","","",""
"","ISI","","html-keyboard-response","364","465822","0.0-1.0-480.0","0","0","62995","","null","","","null","53","NaN","","","","","","","","","","","","","","",""
"","S2","","html-keyboard-response","365","466075","0.0-1.0-481.0","0","0","62995","","null","","","null","53","","NaN","","","","","","","","","","","","","",""
"","response","","html-keyboard-response","366","467002","0.0-1.0-482.0-0.0","0","0","62995","","924","","","68","53","","","2","53","training","adjacent","AB","1","2","N.jpg","M.jpg","0","1","0","",""
"","feedback","","html-keyboard-response","367","468005","0.0-1.0-483.0-0.0","0","0","62995","","null","","","null","53","","","","","","","","","","","","","","","",""
"","time_out","","html-keyboard-response","368","470007","0.0-1.0-485.0-0.0","0","0","62995","","null","","","null","53","","","","","","","","","","","","","","","",""
"","ITI","","html-keyboard-response","369","471010","0.0-1.0-486.0","0","0","62995","","null","","","null","53","","","","","","","","","","","","","","","NaN",""
"","S1","","html-keyboard-response","370","471263","0.0-1.0-488.0","0","0","62995","","null","","","null","54","","","","","","","","","","","","","","","",""
"","ISI","","html-keyboard-response","371","471416","0.0-1.0-489.0","0","0","62995","","null","","","null","54","NaN","","","","","","","","","","","","","","",""
"","S2","","html-keyboard-response","372","471668","0.0-1.0-490.0","0","0","62995","","null","","","null","54","","NaN","","","","","","","","","","","","","",""
"","response","","html-keyboard-response","373","472121","0.0-1.0-491.0-0.0","0","0","62995","","452","","","68","54","","","2","54","training","adjacent","BA","2","1","M.jpg","N.jpg","0","0","1","",""
"","feedback","","html-keyboard-response","374","473124","0.0-1.0-492.0-0.0","0","0","62995","","null","","","null","54","","","","","","","","","","","","","","","",""
"","ITI","","html-keyboard-response","375","474126","0.0-1.0-495.0","0","0","62995","","null","","","null","54","","","","","","","","","","","","","","","NaN",""
"","S1","","html-keyboard-response","376","474380","0.0-1.0-497.0","0","0","62995","","null","","","null","55","","","","","","","","","","","","","","","",""
"","ISI","","html-keyboard-response","377","474533","0.0-1.0-498.0","0","0","62995","","null","","","null","55","NaN","","","","","","","","","","","","","","",""
"","S2","","html-keyboard-response","378","474787","0.0-1.0-499.0","0","0","62995","","null","","","null","55","","NaN","","","","","","","","","","","","","",""
"","response","","html-keyboard-response","379","475759","0.0-1.0-500.0-0.0","0","0","62995","","970","","","75","55","","","2","55","training","adjacent","AB","1","2","N.jpg","M.jpg","1","1","1","",""
"","feedback","","html-keyboard-response","380","476762","0.0-1.0-501.0-0.0","0","0","62995","","null","","","null","55","","","","","","","","","","","","","","","",""
"","ITI","","html-keyboard-response","381","477764","0.0-1.0-504.0","0","0","62995","","null","","","null","55","","","","","","","","","","","","","","","NaN",""
"","S1","","html-keyboard-response","382","478018","0.0-1.0-506.0","0","0","62995","","null","","","null","56","","","","","","","","","","","","","","","",""
"","ISI","","html-keyboard-response","383","478171","0.0-1.0-507.0","0","0","62995","","null","","","null","56","NaN","","","","","","","","","","","","","","",""
"","S2","","html-keyboard-response","384","478424","0.0-1.0-508.0","0","0","62995","","null","","","null","56","","NaN","","","","","","","","","","","","","",""
"","response","","html-keyboard-response","385","479061","0.0-1.0-509.0-0.0","0","0","62995","","636","","","68","56","","","2","56","training","adjacent","DE","4","5","P.jpg","Q.jpg","0","1","0","",""
"","feedback","","html-keyboard-response","386","480066","0.0-1.0-510.0-0.0","0","0","62995","","null","","","null","56","","","","","","","","","","","","","","","",""
"","time_out","","html-keyboard-response","387","482069","0.0-1.0-512.0-0.0","0","0","62995","","null","","","null","56","","","","","","","","","","","","","","","",""
"","ITI","","html-keyboard-response","388","483071","0.0-1.0-513.0","0","0","62995","","null","","","null","56","","","","","","","","","","","","","","","NaN",""
"","S1","","html-keyboard-response","389","483323","0.0-1.0-515.0","0","0","62995","","null","","","null","57","","","","","","","","","","","","","","","",""
"","ISI","","html-keyboard-response","390","483476","0.0-1.0-516.0","0","0","62995","","null","","","null","57","NaN","","","","","","","","","","","","","","",""
"","S2","","html-keyboard-response","391","483729","0.0-1.0-517.0","0","0","62995","","null","","","null","57","","NaN","","","","","","","","","","","","","",""
"","response","","html-keyboard-response","392","485197","0.0-1.0-518.0-0.0","0","0","62995","","1466","","","75","57","","","2","57","training","adjacent","DE","4","5","P.jpg","Q.jpg","1","1","1","",""
"","feedback","","html-keyboard-response","393","486199","0.0-1.0-519.0-0.0","0","0","62995","","null","","","null","57","","","","","","","","","","","","","","","",""
"","ITI","","html-keyboard-response","394","487202","0.0-1.0-522.0","0","0","62995","","null","","","null","57","","","","","","","","","","","","","","","NaN",""
"","S1","","html-keyboard-response","395","487454","0.0-1.0-524.0","0","0","62995","","null","","","null","58","","","","","","","","","","","","","","","",""
"","ISI","","html-keyboard-response","396","487607","0.0-1.0-525.0","0","0","62995","","null","","","null","58","NaN","","","","","","","","","","","","","","",""
"","S2","","html-keyboard-response","397","487860","0.0-1.0-526.0","0","0","62995","","null","","","null","58","","NaN","","","","","","","","","","","","","",""
"","response","","html-keyboard-response","398","488491","0.0-1.0-527.0-0.0","0","0","62995","","629","","","68","58","","","2","58","training","adjacent","BA","2","1","M.jpg","N.jpg","0","0","1","",""
"","feedback","","html-keyboard-response","399","489495","0.0-1.0-528.0-0.0","0","0","62995","","null","","","null","58","","","","","","","","","","","","","","","",""
"","ITI","","html-keyboard-response","400","490498","0.0-1.0-531.0","0","0","62995","","null","","","null","58","","","","","","","","","","","","","","","NaN",""
"","S1","","html-keyboard-response","401","490750","0.0-1.0-533.0","0","0","62995","","null","","","null","59","","","","","","","","","","","","","","","",""
"","ISI","","html-keyboard-response","402","490902","0.0-1.0-534.0","0","0","62995","","null","","","null","59","NaN","","","","","","","","","","","","","","",""
"","S2","","html-keyboard-response","403","491155","0.0-1.0-535.0","0","0","62995","","null","","","null","59","","NaN","","","","","","","","","","","","","",""
"","response","","html-keyboard-response","404","492366","0.0-1.0-536.0-0.0","0","0","62995","","1209","","","75","59","","","2","59","training","adjacent","ED","5","4","Q.jpg","P.jpg","1","0","0","",""
"","feedback","","html-keyboard-response","405","493370","0.0-1.0-537.0-0.0","0","0","62995","","null","","","null","59","","","","","","","","","","","","","","","",""
"","time_out","","html-keyboard-response","406","495373","0.0-1.0-539.0-0.0","0","0","62995","","null","","","null","59","","","","","","","","","","","","","","","",""
"","ITI","","html-keyboard-response","407","496375","0.0-1.0-540.0","0","0","62995","","null","","","null","59","","","","","","","","","","","","","","","NaN",""
"","S1","","html-keyboard-response","408","496627","0.0-1.0-542.0","0","0","62995","","null","","","null","60","","","","","","","","","","","","","","","",""
"","ISI","","html-keyboard-response","409","496780","0.0-1.0-543.0","0","0","62995","","null","","","null","60","NaN","","","","","","","","","","","","","","",""
"","S2","","html-keyboard-response","410","497033","0.0-1.0-544.0","0","0","62995","","null","","","null","60","","NaN","","","","","","","","","","","","","",""
"","response","","html-keyboard-response","411","498005","0.0-1.0-545.0-0.0","0","0","62995","","970","","","75","60","","","2","60","training","adjacent","BC","2","3","M.jpg","R.jpg","1","1","1","",""
"","feedback","","html-keyboard-response","412","499008","0.0-1.0-546.0-0.0","0","0","62995","","null","","","null","60","","","","","","","","","","","","","","","",""
"","ITI","","html-keyboard-response","413","500010","0.0-1.0-549.0","0","0","62995","","null","","","null","60","","","","","","","","","","","","","","","NaN",""
"","S1","","html-keyboard-response","414","500264","0.0-1.0-551.0","0","0","62995","","null","","","null","61","","","","","","","","","","","","","","","",""
"","ISI","","html-keyboard-response","415","500417","0.0-1.0-552.0","0","0","62995","","null","","","null","61","NaN","","","","","","","","","","","","","","",""
"","S2","","html-keyboard-response","416","500670","0.0-1.0-553.0","0","0","62995","","null","","","null","61","","NaN","","","","","","","","","","","","","",""
"","response","","html-keyboard-response","417","501287","0.0-1.0-554.0-0.0","0","0","62995","","615","","","75","61","","","2","61","training","adjacent","EF","5","6","Q.jpg","L.jpg","1","1","1","",""
"","feedback","","html-keyboard-response","418","502290","0.0-1.0-555.0-0.0","0","0","62995","","null","","","null","61","","","","","","","","","","","","","","","",""
"","ITI","","html-keyboard-response","419","503293","0.0-1.0-558.0","0","0","62995","","null","","","null","61","","","","","","","","","","","","","","","NaN",""
"","S1","","html-keyboard-response","420","503546","0.0-1.0-560.0","0","0","62995","","null","","","null","62","","","","","","","","","","","","","","","",""
"","ISI","","html-keyboard-response","421","503698","0.0-1.0-561.0","0","0","62995","","null","","","null","62","NaN","","","","","","","","","","","","","","",""
"","S2","","html-keyboard-response","422","503952","0.0-1.0-562.0","0","0","62995","","null","","","null","62","","NaN","","","","","","","","","","","","","",""
"","response","","html-keyboard-response","423","504391","0.0-1.0-563.0-0.0","0","0","62995","","438","","","68","62","","","2","62","training","adjacent","CD","3","4","R.jpg","P.jpg","0","1","0","",""
"","feedback","","html-keyboard-response","424","505394","0.0-1.0-564.0-0.0","0","0","62995","","null","","","null","62","","","","","","","","","","","","","","","",""
"","time_out","","html-keyboard-response","425","507397","0.0-1.0-566.0-0.0","0","0","62995","","null","","","null","62","","","","","","","","","","","","","","","",""
"","ITI","","html-keyboard-response","426","508401","0.0-1.0-567.0","0","0","62995","","null","","","null","62","","","","","","","","","","","","","","","NaN",""
"","S1","","html-keyboard-response","427","508654","0.0-1.0-569.0","0","0","62995","","null","","","null","63","","","","","","","","","","","","","","","",""
"","ISI","","html-keyboard-response","428","508821","0.0-1.0-570.0","0","0","62995","","null","","","null","63","NaN","","","","","","","","","","","","","","",""
"","S2","","html-keyboard-response","429","509076","0.0-1.0-571.0","0","0","62995","","null","","","null","63","","NaN","","","","","","","","","","","","","",""
"","response","","html-keyboard-response","430","509589","0.0-1.0-572.0-0.0","0","0","62995","","512","","","68","63","","","2","63","training","adjacent","FE","6","5","L.jpg","Q.jpg","0","0","1","",""
"","feedback","","html-keyboard-response","431","510592","0.0-1.0-573.0-0.0","0","0","62995","","null","","","null","63","","","","","","","","","","","","","","","",""
"","ITI","","html-keyboard-response","432","511607","0.0-1.0-576.0","0","0","62995","","null","","","null","63","","","","","","","","","","","","","","","NaN",""
"","S1","","html-keyboard-response","433","511859","0.0-1.0-578.0","0","0","62995","","null","","","null","64","","","","","","","","","","","","","","","",""
"","ISI","","html-keyboard-response","434","512012","0.0-1.0-579.0","0","0","62995","","null","","","null","64","NaN","","","","","","","","","","","","","","",""
"","S2","","html-keyboard-response","435","512265","0.0-1.0-580.0","0","0","62995","","null","","","null","64","","NaN","","","","","","","","","","","","","",""
"","response","","html-keyboard-response","436","512899","0.0-1.0-581.0-0.0","0","0","62995","","633","","","68","64","","","2","64","training","adjacent","ED","5","4","Q.jpg","P.jpg","0","0","1","",""
"","feedback","","html-keyboard-response","437","513903","0.0-1.0-582.0-0.0","0","0","62995","","null","","","null","64","","","","","","","","","","","","","","","",""
"","ITI","","html-keyboard-response","438","514906","0.0-1.0-585.0","0","0","62995","","null","","","null","64","","","","","","","","","","","","","","","NaN",""
"","S1","","html-keyboard-response","439","515159","0.0-1.0-587.0","0","0","62995","","null","","","null","65","","","","","","","","","","","","","","","",""
"","ISI","","html-keyboard-response","440","515313","0.0-1.0-588.0","0","0","62995","","null","","","null","65","NaN","","","","","","","","","","","","","","",""
"","S2","","html-keyboard-response","441","515565","0.0-1.0-589.0","0","0","62995","","null","","","null","65","","NaN","","","","","","","","","","","","","",""
"","response","","html-keyboard-response","442","515953","0.0-1.0-590.0-0.0","0","0","62995","","387","","","75","65","","","2","65","training","adjacent","DC","4","3","P.jpg","R.jpg","1","0","0","",""
"","feedback","","html-keyboard-response","443","516956","0.0-1.0-591.0-0.0","0","0","62995","","null","","","null","65","","","","","","","","","","","","","","","",""
"","time_out","","html-keyboard-response","444","518959","0.0-1.0-593.0-0.0","0","0","62995","","null","","","null","65","","","","","","","","","","","","","","","",""
"","ITI","","html-keyboard-response","445","519961","0.0-1.0-594.0","0","0","62995","","null","","","null","65","","","","","","","","","","","","","","","NaN",""
"","S1","","html-keyboard-response","446","520214","0.0-1.0-596.0","0","0","62995","","null","","","null","66","","","","","","","","","","","","","","","",""
"","ISI","","html-keyboard-response","447","520366","0.0-1.0-597.0","0","0","62995","","null","","","null","66","NaN","","","","","","","","","","","","","","",""
"","S2","","html-keyboard-response","448","520619","0.0-1.0-598.0","0","0","62995","","null","","","null","66","","NaN","","","","","","","","","","","","","",""
"","response","","html-keyboard-response","449","521109","0.0-1.0-599.0-0.0","0","0","62995","","489","","","68","66","","","2","66","training","adjacent","FG","6","7","L.jpg","O.jpg","0","1","0","",""
"","feedback","","html-keyboard-response","450","522111","0.0-1.0-600.0-0.0","0","0","62995","","null","","","null","66","","","","","","","","","","","","","","","",""
"","time_out","","html-keyboard-response","451","524114","0.0-1.0-602.0-0.0","0","0","62995","","null","","","null","66","","","","","","","","","","","","","","","",""
"","ITI","","html-keyboard-response","452","525117","0.0-1.0-603.0","0","0","62995","","null","","","null","66","","","","","","","","","","","","","","","NaN",""
"","S1","","html-keyboard-response","453","525371","0.0-1.0-605.0","0","0","62995","","null","","","null","67","","","","","","","","","","","","","","","",""
"","ISI","","html-keyboard-response","454","525524","0.0-1.0-606.0","0","0","62995","","null","","","null","67","NaN","","","","","","","","","","","","","","",""
"","S2","","html-keyboard-response","455","525788","0.0-1.0-607.0","0","0","62995","","null","","","null","67","","NaN","","","","","","","","","","","","","",""
"","response","","html-keyboard-response","456","526281","0.0-1.0-608.0-0.0","0","0","62995","","491","","","75","67","","","2","67","training","adjacent","DC","4","3","P.jpg","R.jpg","1","0","0","",""
"","feedback","","html-keyboard-response","457","527283","0.0-1.0-609.0-0.0","0","0","62995","","null","","","null","67","","","","","","","","","","","","","","","",""
"","time_out","","html-keyboard-response","458","529286","0.0-1.0-611.0-0.0","0","0","62995","","null","","","null","67","","","","","","","","","","","","","","","",""
"","ITI","","html-keyboard-response","459","530290","0.0-1.0-612.0","0","0","62995","","null","","","null","67","","","","","","","","","","","","","","","NaN",""
"","S1","","html-keyboard-response","460","530543","0.0-1.0-614.0","0","0","62995","","null","","","null","68","","","","","","","","","","","","","","","",""
"","ISI","","html-keyboard-response","461","530695","0.0-1.0-615.0","0","0","62995","","null","","","null","68","NaN","","","","","","","","","","","","","","",""
"","S2","","html-keyboard-response","462","530948","0.0-1.0-616.0","0","0","62995","","null","","","null","68","","NaN","","","","","","","","","","","","","",""
"","response","","html-keyboard-response","463","531718","0.0-1.0-617.0-0.0","0","0","62995","","769","","","75","68","","","2","68","training","adjacent","BA","2","1","M.jpg","N.jpg","1","0","0","",""
"","feedback","","html-keyboard-response","464","532722","0.0-1.0-618.0-0.0","0","0","62995","","null","","","null","68","","","","","","","","","","","","","","","",""
"","time_out","","html-keyboard-response","465","534725","0.0-1.0-620.0-0.0","0","0","62995","","null","","","null","68","","","","","","","","","","","","","","","",""
"","ITI","","html-keyboard-response","466","535727","0.0-1.0-621.0","0","0","62995","","null","","","null","68","","","","","","","","","","","","","","","NaN",""
"","S1","","html-keyboard-response","467","535980","0.0-1.0-623.0","0","0","62995","","null","","","null","69","","","","","","","","","","","","","","","",""
"","ISI","","html-keyboard-response","468","536132","0.0-1.0-624.0","0","0","62995","","null","","","null","69","NaN","","","","","","","","","","","","","","",""
"","S2","","html-keyboard-response","469","536386","0.0-1.0-625.0","0","0","62995","","null","","","null","69","","NaN","","","","","","","","","","","","","",""
"","response","","html-keyboard-response","470","537036","0.0-1.0-626.0-0.0","0","0","62995","","647","","","68","69","","","2","69","training","adjacent","FG","6","7","L.jpg","O.jpg","0","1","0","",""
"","feedback","","html-keyboard-response","471","538039","0.0-1.0-627.0-0.0","0","0","62995","","null","","","null","69","","","","","","","","","","","","","","","",""
"","time_out","","html-keyboard-response","472","540041","0.0-1.0-629.0-0.0","0","0","62995","","null","","","null","69","","","","","","","","","","","","","","","",""
"","ITI","","html-keyboard-response","473","541044","0.0-1.0-630.0","0","0","62995","","null","","","null","69","","","","","","","","","","","","","","","NaN",""
"","S1","","html-keyboard-response","474","541311","0.0-1.0-632.0","0","0","62995","","null","","","null","70","","","","","","","","","","","","","","","",""
"","ISI","","html-keyboard-response","475","541470","0.0-1.0-633.0","0","0","62995","","null","","","null","70","NaN","","","","","","","","","","","","","","",""
"","S2","","html-keyboard-response","476","541724","0.0-1.0-634.0","0","0","62995","","null","","","null","70","","NaN","","","","","","","","","","","","","",""
"","response","","html-keyboard-response","477","542511","0.0-1.0-635.0-0.0","0","0","62995","","784","","","75","70","","","2","70","training","adjacent","EF","5","6","Q.jpg","L.jpg","1","1","1","",""
"","feedback","","html-keyboard-response","478","543516","0.0-1.0-636.0-0.0","0","0","62995","","null","","","null","70","","","","","","","","","","","","","","","",""
"","ITI","","html-keyboard-response","479","544520","0.0-1.0-639.0","0","0","62995","","null","","","null","70","","","","","","","","","","","","","","","NaN",""
"","S1","","html-keyboard-response","480","544772","0.0-1.0-641.0","0","0","62995","","null","","","null","71","","","","","","","","","","","","","","","",""
"","ISI","","html-keyboard-response","481","544925","0.0-1.0-642.0","0","0","62995","","null","","","null","71","NaN","","","","","","","","","","","","","","",""
"","S2","","html-keyboard-response","482","545177","0.0-1.0-643.0","0","0","62995","","null","","","null","71","","NaN","","","","","","","","","","","","","",""
"","response","","html-keyboard-response","483","546223","0.0-1.0-644.0-0.0","0","0","62995","","1044","","","68","71","","","2","71","training","adjacent","BA","2","1","M.jpg","N.jpg","0","0","1","",""
"","feedback","","html-keyboard-response","484","547227","0.0-1.0-645.0-0.0","0","0","62995","","null","","","null","71","","","","","","","","","","","","","","","",""
"","ITI","","html-keyboard-response","485","548229","0.0-1.0-648.0","0","0","62995","","null","","","null","71","","","","","","","","","","","","","","","NaN",""
"","S1","","html-keyboard-response","486","548481","0.0-1.0-650.0","0","0","62995","","null","","","null","72","","","","","","","","","","","","","","","",""
"","ISI","","html-keyboard-response","487","548634","0.0-1.0-651.0","0","0","62995","","null","","","null","72","NaN","","","","","","","","","","","","","","",""
"","S2","","html-keyboard-response","488","548887","0.0-1.0-652.0","0","0","62995","","null","","","null","72","","NaN","","","","","","","","","","","","","",""
"","response","","html-keyboard-response","489","549410","0.0-1.0-653.0-0.0","0","0","62995","","522","","","68","72","","","2","72","training","adjacent","BC","2","3","M.jpg","R.jpg","0","1","0","",""
"","feedback","","html-keyboard-response","490","550413","0.0-1.0-654.0-0.0","0","0","62995","","null","","","null","72","","","","","","","","","","","","","","","",""
"","time_out","","html-keyboard-response","491","552416","0.0-1.0-656.0-0.0","0","0","62995","","null","","","null","72","","","","","","","","","","","","","","","",""
"","ITI","","html-keyboard-response","492","553420","0.0-1.0-657.0","0","0","62995","","null","","","null","72","","","","","","","","","","","","","","","NaN",""
"","S1","","html-keyboard-response","493","553674","0.0-1.0-659.0","0","0","62995","","null","","","null","73","","","","","","","","","","","","","","","",""
"","ISI","","html-keyboard-response","494","553830","0.0-1.0-660.0","0","0","62995","","null","","","null","73","NaN","","","","","","","","","","","","","","",""
"","S2","","html-keyboard-response","495","554083","0.0-1.0-661.0","0","0","62995","","null","","","null","73","","NaN","","","","","","","","","","","","","",""
"","response","","html-keyboard-response","496","554367","0.0-1.0-662.0-0.0","0","0","62995","","283","","","75","73","","","2","73","training","adjacent","FG","6","7","L.jpg","O.jpg","1","1","1","",""
"","feedback","","html-keyboard-response","497","555370","0.0-1.0-663.0-0.0","0","0","62995","","null","","","null","73","","","","","","","","","","","","","","","",""
"","ITI","","html-keyboard-response","498","556373","0.0-1.0-666.0","0","0","62995","","null","","","null","73","","","","","","","","","","","","","","","NaN",""
"","S1","","html-keyboard-response","499","556625","0.0-1.0-668.0","0","0","62995","","null","","","null","74","","","","","","","","","","","","","","","",""
"","ISI","","html-keyboard-response","500","556778","0.0-1.0-669.0","0","0","62995","","null","","","null","74","NaN","","","","","","","","","","","","","","",""
"","S2","","html-keyboard-response","501","557031","0.0-1.0-670.0","0","0","62995","","null","","","null","74","","NaN","","","","","","","","","","","","","",""
"","response","","html-keyboard-response","502","557539","0.0-1.0-671.0-0.0","0","0","62995","","507","","","75","74","","","2","74","training","adjacent","CB","3","2","R.jpg","M.jpg","1","0","0","",""
"","feedback","","html-keyboard-response","503","558542","0.0-1.0-672.0-0.0","0","0","62995","","null","","","null","74","","","","","","","","","","","","","","","",""
"","time_out","","html-keyboard-response","504","560544","0.0-1.0-674.0-0.0","0","0","62995","","null","","","null","74","","","","","","","","","","","","","","","",""
"","ITI","","html-keyboard-response","505","561547","0.0-1.0-675.0","0","0","62995","","null","","","null","74","","","","","","","","","","","","","","","NaN",""
"","S1","","html-keyboard-response","506","561800","0.0-1.0-677.0","0","0","62995","","null","","","null","75","","","","","","","","","","","","","","","",""
"","ISI","","html-keyboard-response","507","561953","0.0-1.0-678.0","0","0","62995","","null","","","null","75","NaN","","","","","","","","","","","","","","",""
"","S2","","html-keyboard-response","508","562207","0.0-1.0-679.0","0","0","62995","","null","","","null","75","","NaN","","","","","","","","","","","","","",""
"","response","","html-keyboard-response","509","562591","0.0-1.0-680.0-0.0","0","0","62995","","383","","","68","75","","","2","75","training","adjacent","FE","6","5","L.jpg","Q.jpg","0","0","1","",""
"","feedback","","html-keyboard-response","510","563594","0.0-1.0-681.0-0.0","0","0","62995","","null","","","null","75","","","","","","","","","","","","","","","",""
"","ITI","","html-keyboard-response","511","564597","0.0-1.0-684.0","0","0","62995","","null","","","null","75","","","","","","","","","","","","","","","NaN",""
"","S1","","html-keyboard-response","512","564850","0.0-1.0-686.0","0","0","62995","","null","","","null","76","","","","","","","","","","","","","","","",""
"","ISI","","html-keyboard-response","513","565002","0.0-1.0-687.0","0","0","62995","","null","","","null","76","NaN","","","","","","","","","","","","","","",""
"","S2","","html-keyboard-response","514","565255","0.0-1.0-688.0","0","0","62995","","null","","","null","76","","NaN","","","","","","","","","","","","","",""
"","response","","html-keyboard-response","515","565807","0.0-1.0-689.0-0.0","0","0","62995","","550","","","68","76","","","2","76","training","adjacent","ED","5","4","Q.jpg","P.jpg","0","0","1","",""
"","feedback","","html-keyboard-response","516","566809","0.0-1.0-690.0-0.0","0","0","62995","","null","","","null","76","","","","","","","","","","","","","","","",""
"","ITI","","html-keyboard-response","517","567812","0.0-1.0-693.0","0","0","62995","","null","","","null","76","","","","","","","","","","","","","","","NaN",""
"","S1","","html-keyboard-response","518","568065","0.0-1.0-695.0","0","0","62995","","null","","","null","77","","","","","","","","","","","","","","","",""
"","ISI","","html-keyboard-response","519","568217","0.0-1.0-696.0","0","0","62995","","null","","","null","77","NaN","","","","","","","","","","","","","","",""
"","S2","","html-keyboard-response","520","568470","0.0-1.0-697.0","0","0","62995","","null","","","null","77","","NaN","","","","","","","","","","","","","",""
"","response","","html-keyboard-response","521","568847","0.0-1.0-698.0-0.0","0","0","62995","","376","","","68","77","","","2","77","training","adjacent","ED","5","4","Q.jpg","P.jpg","0","0","1","",""
"","feedback","","html-keyboard-response","522","569850","0.0-1.0-699.0-0.0","0","0","62995","","null","","","null","77","","","","","","","","","","","","","","","",""
"","ITI","","html-keyboard-response","523","570853","0.0-1.0-702.0","0","0","62995","","null","","","null","77","","","","","","","","","","","","","","","NaN",""
"","S1","","html-keyboard-response","524","571105","0.0-1.0-704.0","0","0","62995","","null","","","null","78","","","","","","","","","","","","","","","",""
"","ISI","","html-keyboard-response","525","571258","0.0-1.0-705.0","0","0","62995","","null","","","null","78","NaN","","","","","","","","","","","","","","",""
"","S2","","html-keyboard-response","526","571511","0.0-1.0-706.0","0","0","62995","","null","","","null","78","","NaN","","","","","","","","","","","","","",""
"","response","","html-keyboard-response","527","571819","0.0-1.0-707.0-0.0","0","0","62995","","306","","","75","78","","","2","78","training","adjacent","GF","7","6","O.jpg","L.jpg","1","0","0","",""
"","feedback","","html-keyboard-response","528","572822","0.0-1.0-708.0-0.0","0","0","62995","","null","","","null","78","","","","","","","","","","","","","","","",""
"","time_out","","html-keyboard-response","529","574824","0.0-1.0-710.0-0.0","0","0","62995","","null","","","null","78","","","","","","","","","","","","","","","",""
"","ITI","","html-keyboard-response","530","575827","0.0-1.0-711.0","0","0","62995","","null","","","null","78","","","","","","","","","","","","","","","NaN",""
"","S1","","html-keyboard-response","531","576079","0.0-1.0-713.0","0","0","62995","","null","","","null","79","","","","","","","","","","","","","","","",""
"","ISI","","html-keyboard-response","532","576232","0.0-1.0-714.0","0","0","62995","","null","","","null","79","NaN","","","","","","","","","","","","","","",""
"","S2","","html-keyboard-response","533","576485","0.0-1.0-715.0","0","0","62995","","null","","","null","79","","NaN","","","","","","","","","","","","","",""
"","response","","html-keyboard-response","534","576855","0.0-1.0-716.0-0.0","0","0","62995","","369","","","75","79","","","2","79","training","adjacent","CB","3","2","R.jpg","M.jpg","1","0","0","",""
"","feedback","","html-keyboard-response","535","577858","0.0-1.0-717.0-0.0","0","0","62995","","null","","","null","79","","","","","","","","","","","","","","","",""
"","time_out","","html-keyboard-response","536","579861","0.0-1.0-719.0-0.0","0","0","62995","","null","","","null","79","","","","","","","","","","","","","","","",""
"","ITI","","html-keyboard-response","537","580862","0.0-1.0-720.0","0","0","62995","","null","","","null","79","","","","","","","","","","","","","","","NaN",""
"","S1","","html-keyboard-response","538","581115","0.0-1.0-722.0","0","0","62995","","null","","","null","80","","","","","","","","","","","","","","","",""
"","ISI","","html-keyboard-response","539","581282","0.0-1.0-723.0","0","0","62995","","null","","","null","80","NaN","","","","","","","","","","","","","","",""
"","S2","","html-keyboard-response","540","581535","0.0-1.0-724.0","0","0","62995","","null","","","null","80","","NaN","","","","","","","","","","","","","",""
"","response","","html-keyboard-response","541","581925","0.0-1.0-725.0-0.0","0","0","62995","","389","","","75","80","","","2","80","training","adjacent","GF","7","6","O.jpg","L.jpg","1","0","0","",""
"","feedback","","html-keyboard-response","542","582929","0.0-1.0-726.0-0.0","0","0","62995","","null","","","null","80","","","","","","","","","","","","","","","",""
"","time_out","","html-keyboard-response","543","584932","0.0-1.0-728.0-0.0","0","0","62995","","null","","","null","80","","","","","","","","","","","","","","","",""
"","ITI","","html-keyboard-response","544","585934","0.0-1.0-729.0","0","0","62995","","null","","","null","80","","","","","","","","","","","","","","","NaN",""
"","S1","","html-keyboard-response","545","586187","0.0-1.0-731.0","0","0","62995","","null","","","null","81","","","","","","","","","","","","","","","",""
"","ISI","","html-keyboard-response","546","586338","0.0-1.0-732.0","0","0","62995","","null","","","null","81","NaN","","","","","","","","","","","","","","",""
"","S2","","html-keyboard-response","547","586592","0.0-1.0-733.0","0","0","62995","","null","","","null","81","","NaN","","","","","","","","","","","","","",""
"","response","","html-keyboard-response","548","586933","0.0-1.0-734.0-0.0","0","0","62995","","340","","","75","81","","","2","81","training","adjacent","DE","4","5","P.jpg","Q.jpg","1","1","1","",""
"","feedback","","html-keyboard-response","549","587936","0.0-1.0-735.0-0.0","0","0","62995","","null","","","null","81","","","","","","","","","","","","","","","",""
"","ITI","","html-keyboard-response","550","588939","0.0-1.0-738.0","0","0","62995","","null","","","null","81","","","","","","","","","","","","","","","NaN",""
"","S1","","html-keyboard-response","551","589192","0.0-1.0-740.0","0","0","62995","","null","","","null","82","","","","","","","","","","","","","","","",""
"","ISI","","html-keyboard-response","552","589356","0.0-1.0-741.0","0","0","62995","","null","","","null","82","NaN","","","","","","","","","","","","","","",""
"","S2","","html-keyboard-response","553","589608","0.0-1.0-742.0","0","0","62995","","null","","","null","82","","NaN","","","","","","","","","","","","","",""
"","response","","html-keyboard-response","554","589949","0.0-1.0-743.0-0.0","0","0","62995","","339","","","75","82","","","2","82","training","adjacent","DC","4","3","P.jpg","R.jpg","1","0","0","",""
"","feedback","","html-keyboard-response","555","590952","0.0-1.0-744.0-0.0","0","0","62995","","null","","","null","82","","","","","","","","","","","","","","","",""
"","time_out","","html-keyboard-response","556","592954","0.0-1.0-746.0-0.0","0","0","62995","","null","","","null","82","","","","","","","","","","","","","","","",""
"","ITI","","html-keyboard-response","557","593957","0.0-1.0-747.0","0","0","62995","","null","","","null","82","","","","","","","","","","","","","","","NaN",""
"","S1","","html-keyboard-response","558","594210","0.0-1.0-749.0","0","0","62995","","null","","","null","83","","","","","","","","","","","","","","","",""
"","ISI","","html-keyboard-response","559","594362","0.0-1.0-750.0","0","0","62995","","null","","","null","83","NaN","","","","","","","","","","","","","","",""
"","S2","","html-keyboard-response","560","594615","0.0-1.0-751.0","0","0","62995","","null","","","null","83","","NaN","","","","","","","","","","","","","",""
"","response","","html-keyboard-response","561","594949","0.0-1.0-752.0-0.0","0","0","62995","","332","","","68","83","","","2","83","training","adjacent","DC","4","3","P.jpg","R.jpg","0","0","1","",""
"","feedback","","html-keyboard-response","562","595952","0.0-1.0-753.0-0.0","0","0","62995","","null","","","null","83","","","","","","","","","","","","","","","",""
"","ITI","","html-keyboard-response","563","596955","0.0-1.0-756.0","0","0","62995","","null","","","null","83","","","","","","","","","","","","","","","NaN",""
"","S1","","html-keyboard-response","564","597207","0.0-1.0-758.0","0","0","62995","","null","","","null","84","","","","","","","","","","","","","","","",""
"","ISI","","html-keyboard-response","565","597359","0.0-1.0-759.0","0","0","62995","","null","","","null","84","NaN","","","","","","","","","","","","","","",""
"","S2","","html-keyboard-response","566","597612","0.0-1.0-760.0","0","0","62995","","null","","","null","84","","NaN","","","","","","","","","","","","","",""
"","response","","html-keyboard-response","567","597930","0.0-1.0-761.0-0.0","0","0","62995","","317","","","68","84","","","2","84","training","adjacent","GF","7","6","O.jpg","L.jpg","0","0","1","",""
"","feedback","","html-keyboard-response","568","598934","0.0-1.0-762.0-0.0","0","0","62995","","null","","","null","84","","","","","","","","","","","","","","","",""
"","ITI","","html-keyboard-response","569","599936","0.0-1.0-765.0","0","0","62995","","null","","","null","84","","","","","","","","","","","","","","","NaN",""
"","S1","","html-keyboard-response","570","600189","0.0-1.0-767.0","0","0","62995","","null","","","null","85","","","","","","","","","","","","","","","",""
"","ISI","","html-keyboard-response","571","600342","0.0-1.0-768.0","0","0","62995","","null","","","null","85","NaN","","","","","","","","","","","","","","",""
"","S2","","html-keyboard-response","572","600595","0.0-1.0-769.0","0","0","62995","","null","","","null","85","","NaN","","","","","","","","","","","","","",""
"","response","","html-keyboard-response","573","600943","0.0-1.0-770.0-0.0","0","0","62995","","347","","","75","85","","","2","85","training","adjacent","BC","2","3","M.jpg","R.jpg","1","1","1","",""
"","feedback","","html-keyboard-response","574","601947","0.0-1.0-771.0-0.0","0","0","62995","","null","","","null","85","","","","","","","","","","","","","","","",""
"","ITI","","html-keyboard-response","575","602950","0.0-1.0-774.0","0","0","62995","","null","","","null","85","","","","","","","","","","","","","","","NaN",""
"","S1","","html-keyboard-response","576","603202","0.0-1.0-776.0","0","0","62995","","null","","","null","86","","","","","","","","","","","","","","","",""
"","ISI","","html-keyboard-response","577","603355","0.0-1.0-777.0","0","0","62995","","null","","","null","86","NaN","","","","","","","","","","","","","","",""
