"success","ttype","start_time","trial_type","trial_index","time_elapsed","internal_node_id","warning","missed_checkup","PID","view_history","rt","responses","repeat_instructions","key_press","index","keypress_isi","keypress_S2","block","trial_num","phase","group_type","pair_type","S1_stim","S2_stim","S1_img","S2_img","S1_chosen","S1_higher","accuracy","keypress_iti","total_bonus_tally"
"true","full_screen","d03032023hr2130","fullscreen","0","9700","0.0-0.0","0","0","61788","","","","","","","","","","","","","","","","","","","","","",""
"","instructions","","instructions","1","77143","0.0-1.0-0.0-0.0","0","0","61788","[{""page_index"":0,""viewing_time"":5174},{""page_index"":1,""viewing_time"":49601},{""page_index"":2,""viewing_time"":9593},{""page_index"":3,""viewing_time"":3063}]","67433","","","","","","","","","","","","","","","","","","","",""
"","comprehension_check","","survey-multi-choice","2","102691","0.0-1.0-0.0-1.0","0","0","61788","","25528","{""Q0"":""True"",""Q1"":""D"",""Q2"":""Once the second image appears and while the screen 'MAKE A CHOICE' is shown"",""Q3"":""Green mark"",""Q4"":""either D or K""}","0","","","","","","","","","","","","","","","","","",""
"","start_exp","","html-keyboard-response","3","106377","0.0-1.0-1.0","0","0","61788","","3678","","","32","","","","","","","","","","","","","","","","",""
"","S1","","html-keyboard-response","4","106638","0.0-1.0-2.0","0","0","61788","","null","","","null","0","","","","","","","","","","","","","","","",""
"","ISI","","html-keyboard-response","5","107151","0.0-1.0-3.0","0","0","61788","","null","","","null","0","NaN","","","","","","","","","","","","","","",""
"","S2","","html-keyboard-response","6","107408","0.0-1.0-4.0","0","0","61788","","null","","","null","0","","NaN","","","","","","","","","","","","","",""
"","response","","html-keyboard-response","7","109042","0.0-1.0-5.0-0.0","0","0","61788","","1626","","","75","0","","","1","0","training","adjacent","ED","5","4","O.jpg","P.jpg","0","0","1","",""
"","feedback","","html-keyboard-response","8","110065","0.0-1.0-6.0-0.0","0","0","61788","","null","","","null","0","","","","","","","","","","","","","","","",""
"","ITI","","html-keyboard-response","9","111078","0.0-1.0-9.0","0","0","61788","","null","","","null","0","","","","","","","","","","","","","","","NaN",""
"","S1","","html-keyboard-response","10","111335","0.0-1.0-11.0","0","0","61788","","null","","","null","1","","","","","","","","","","","","","","","",""
"","ISI","","html-keyboard-response","11","111845","0.0-1.0-12.0","0","0","61788","","null","","","null","1","NaN","","","","","","","","","","","","","","",""
"","S2","","html-keyboard-response","12","112105","0.0-1.0-13.0","0","0","61788","","null","","","null","1","","NaN","","","","","","","","","","","","","",""
"","response","","html-keyboard-response","13","112884","0.0-1.0-14.0-0.0","0","0","61788","","772","","","68","1","","","1","1","training","adjacent","CB","3","2","Q.jpg","L.jpg","1","0","0","",""
"","feedback","","html-keyboard-response","14","113953","0.0-1.0-15.0-0.0","0","0","61788","","null","","","null","1","","","","","","","","","","","","","","","",""
"","time_out","","html-keyboard-response","15","115958","0.0-1.0-17.0-0.0","0","0","61788","","null","","","null","1","","","","","","","","","","","","","","","",""
"","ITI","","html-keyboard-response","16","116969","0.0-1.0-18.0","0","0","61788","","null","","","null","1","","","","","","","","","","","","","","","NaN",""
"","S1","","html-keyboard-response","17","117233","0.0-1.0-20.0","0","0","61788","","null","","","null","2","","","","","","","","","","","","","","","",""
"","ISI","","html-keyboard-response","18","117741","0.0-1.0-21.0","0","0","61788","","null","","","null","2","NaN","","","","","","","","","","","","","","",""
"","S2","","html-keyboard-response","19","118004","0.0-1.0-22.0","0","0","61788","","null","","","null","2","","NaN","","","","","","","","","","","","","",""
"","response","","html-keyboard-response","20","118821","0.0-1.0-23.0-0.0","0","0","61788","","812","","","68","2","","","1","2","training","adjacent","EF","5","6","O.jpg","M.jpg","1","1","1","",""
"","feedback","","html-keyboard-response","21","119830","0.0-1.0-24.0-0.0","0","0","61788","","null","","","null","2","","","","","","","","","","","","","","","",""
"","ITI","","html-keyboard-response","22","120851","0.0-1.0-27.0","0","0","61788","","null","","","null","2","","","","","","","","","","","","","","","NaN",""
"","S1","","html-keyboard-response","23","121113","0.0-1.0-29.0","0","0","61788","","null","","","null","3","","","","","","","","","","","","","","","",""
"","ISI","","html-keyboard-response","24","121620","0.0-1.0-30.0","0","0","61788","","null","","","null","3","NaN","","","","","","","","","","","","","","",""
"","S2","","html-keyboard-response","25","121878","0.0-1.0-31.0","0","0","61788","","null","","","null","3","","NaN","","","","","","","","","","","","","",""
"","response","","html-keyboard-response","26","122502","0.0-1.0-32.0-0.0","0","0","61788","","619","","","75","3","","","1","3","training","adjacent","FE","6","5","M.jpg","O.jpg","0","0","1","",""
"","feedback","","html-keyboard-response","27","123510","0.0-1.0-33.0-0.0","0","0","61788","","null","","","null","3","","","","","","","","","","","","","","","",""
"","ITI","","html-keyboard-response","28","124525","0.0-1.0-36.0","0","0","61788","","null","","","null","3","","","","","","","","","","","","","","","NaN",""
"","S1","","html-keyboard-response","29","124797","0.0-1.0-38.0","0","0","61788","","null","","","null","4","","","","","","","","","","","","","","","",""
"","ISI","","html-keyboard-response","30","125304","0.0-1.0-39.0","0","0","61788","","null","","","null","4","NaN","","","","","","","","","","","","","","",""
"","S2","","html-keyboard-response","31","125556","0.0-1.0-40.0","0","0","61788","","null","","","null","4","","NaN","","","","","","","","","","","","","",""
"","response","","html-keyboard-response","32","126203","0.0-1.0-41.0-0.0","0","0","61788","","641","","","68","4","","","1","4","training","adjacent","EF","5","6","O.jpg","M.jpg","1","1","1","",""
"","feedback","","html-keyboard-response","33","127218","0.0-1.0-42.0-0.0","0","0","61788","","null","","","null","4","","","","","","","","","","","","","","","",""
"","ITI","","html-keyboard-response","34","128230","0.0-1.0-45.0","0","0","61788","","null","","","null","4","","","","","","","","","","","","","","","NaN",""
"","S1","","html-keyboard-response","35","128495","0.0-1.0-47.0","0","0","61788","","null","","","null","5","","","","","","","","","","","","","","","",""
"","ISI","","html-keyboard-response","36","129016","0.0-1.0-48.0","0","0","61788","","null","","","null","5","NaN","","","","","","","","","","","","","","",""
"","S2","","html-keyboard-response","37","129278","0.0-1.0-49.0","0","0","61788","","null","","","null","5","","NaN","","","","","","","","","","","","","",""
"","response","","html-keyboard-response","38","129959","0.0-1.0-50.0-0.0","0","0","61788","","673","","","68","5","","","1","5","training","adjacent","FG","6","7","M.jpg","N.jpg","1","1","1","",""
"","feedback","","html-keyboard-response","39","131033","0.0-1.0-51.0-0.0","0","0","61788","","null","","","null","5","","","","","","","","","","","","","","","",""
"","ITI","","html-keyboard-response","40","132040","0.0-1.0-54.0","0","0","61788","","null","","","null","5","","","","","","","","","","","","","","","NaN",""
"","S1","","html-keyboard-response","41","132303","0.0-1.0-56.0","0","0","61788","","null","","","null","6","","","","","","","","","","","","","","","",""
"","ISI","","html-keyboard-response","42","132821","0.0-1.0-57.0","0","0","61788","","null","","","null","6","NaN","","","","","","","","","","","","","","",""
"","S2","","html-keyboard-response","43","133103","0.0-1.0-58.0","0","0","61788","","null","","","null","6","","NaN","","","","","","","","","","","","","",""
"","response","","html-keyboard-response","44","133870","0.0-1.0-59.0-0.0","0","0","61788","","761","","","75","6","","","1","6","training","adjacent","GF","7","6","N.jpg","M.jpg","0","0","1","",""
"","feedback","","html-keyboard-response","45","134893","0.0-1.0-60.0-0.0","0","0","61788","","null","","","null","6","","","","","","","","","","","","","","","",""
"","ITI","","html-keyboard-response","46","135913","0.0-1.0-63.0","0","0","61788","","null","","","null","6","","","","","","","","","","","","","","","NaN",""
"","S1","","html-keyboard-response","47","136175","0.0-1.0-65.0","0","0","61788","","null","","","null","7","","","","","","","","","","","","","","","",""
"","ISI","","html-keyboard-response","48","136685","0.0-1.0-66.0","0","0","61788","","null","","","null","7","NaN","","","","","","","","","","","","","","",""
"","S2","","html-keyboard-response","49","136943","0.0-1.0-67.0","0","0","61788","","null","","","null","7","","NaN","","","","","","","","","","","","","",""
"","response","","html-keyboard-response","50","137647","0.0-1.0-68.0-0.0","0","0","61788","","697","","","75","7","","","1","7","training","adjacent","DE","4","5","P.jpg","O.jpg","0","1","0","",""
"","feedback","","html-keyboard-response","51","138653","0.0-1.0-69.0-0.0","0","0","61788","","null","","","null","7","","","","","","","","","","","","","","","",""
"","time_out","","html-keyboard-response","52","140665","0.0-1.0-71.0-0.0","0","0","61788","","null","","","null","7","","","","","","","","","","","","","","","",""
"","ITI","","html-keyboard-response","53","141668","0.0-1.0-72.0","0","0","61788","","null","","","null","7","","","","","","","","","","","","","","","NaN",""
"","S1","","html-keyboard-response","54","141925","0.0-1.0-74.0","0","0","61788","","null","","","null","8","","","","","","","","","","","","","","","",""
"","ISI","","html-keyboard-response","55","142430","0.0-1.0-75.0","0","0","61788","","null","","","null","8","NaN","","","","","","","","","","","","","","",""
"","S2","","html-keyboard-response","56","142683","0.0-1.0-76.0","0","0","61788","","null","","","null","8","","NaN","","","","","","","","","","","","","",""
"","response","","html-keyboard-response","57","143473","0.0-1.0-77.0-0.0","0","0","61788","","785","","","68","8","","","1","8","training","adjacent","BA","2","1","L.jpg","R.jpg","1","0","0","",""
"","feedback","","html-keyboard-response","58","144482","0.0-1.0-78.0-0.0","0","0","61788","","null","","","null","8","","","","","","","","","","","","","","","",""
"","time_out","","html-keyboard-response","59","146508","0.0-1.0-80.0-0.0","0","0","61788","","null","","","null","8","","","","","","","","","","","","","","","",""
"","ITI","","html-keyboard-response","60","147563","0.0-1.0-81.0","0","0","61788","","null","","","null","8","","","","","","","","","","","","","","","NaN",""
"","S1","","html-keyboard-response","61","147822","0.0-1.0-83.0","0","0","61788","","null","","","null","9","","","","","","","","","","","","","","","",""
"","ISI","","html-keyboard-response","62","148323","0.0-1.0-84.0","0","0","61788","","null","","","null","9","NaN","","","","","","","","","","","","","","",""
"","S2","","html-keyboard-response","63","148615","0.0-1.0-85.0","0","0","61788","","null","","","null","9","","NaN","","","","","","","","","","","","","",""
"","response","","html-keyboard-response","64","149473","0.0-1.0-86.0-0.0","0","0","61788","","852","","","75","9","","","1","9","training","adjacent","BA","2","1","L.jpg","R.jpg","0","0","1","",""
"","feedback","","html-keyboard-response","65","150486","0.0-1.0-87.0-0.0","0","0","61788","","null","","","null","9","","","","","","","","","","","","","","","",""
"","ITI","","html-keyboard-response","66","151496","0.0-1.0-90.0","0","0","61788","","null","","","null","9","","","","","","","","","","","","","","","NaN",""
"","S1","","html-keyboard-response","67","151757","0.0-1.0-92.0","0","0","61788","","null","","","null","10","","","","","","","","","","","","","","","",""
"","ISI","","html-keyboard-response","68","152268","0.0-1.0-93.0","0","0","61788","","null","","","null","10","NaN","","","","","","","","","","","","","","",""
"","S2","","html-keyboard-response","69","152526","0.0-1.0-94.0","0","0","61788","","null","","","null","10","","NaN","","","","","","","","","","","","","",""
"","response","","html-keyboard-response","70","153179","0.0-1.0-95.0-0.0","0","0","61788","","646","","","75","10","","","1","10","training","adjacent","BC","2","3","L.jpg","Q.jpg","0","1","0","",""
"","feedback","","html-keyboard-response","71","154203","0.0-1.0-96.0-0.0","0","0","61788","","null","","","null","10","","","","","","","","","","","","","","","",""
"","time_out","","html-keyboard-response","72","156214","0.0-1.0-98.0-0.0","0","0","61788","","null","","","null","10","","","","","","","","","","","","","","","",""
"","ITI","","html-keyboard-response","73","157222","0.0-1.0-99.0","0","0","61788","","null","","","null","10","","","","","","","","","","","","","","","NaN",""
"","S1","","html-keyboard-response","74","157477","0.0-1.0-101.0","0","0","61788","","null","","","null","11","","","","","","","","","","","","","","","",""
"","ISI","","html-keyboard-response","75","157986","0.0-1.0-102.0","0","0","61788","","null","","","null","11","NaN","","","","","","","","","","","","","","",""
"","S2","","html-keyboard-response","76","158260","0.0-1.0-103.0","0","0","61788","","null","","","null","11","","NaN","","","","","","","","","","","","","",""
"","response","","html-keyboard-response","77","159192","0.0-1.0-104.0-0.0","0","0","61788","","923","","","68","11","","","1","11","training","adjacent","DC","4","3","P.jpg","Q.jpg","1","0","0","",""
"","feedback","","html-keyboard-response","78","160215","0.0-1.0-105.0-0.0","0","0","61788","","null","","","null","11","","","","","","","","","","","","","","","",""
"","time_out","","html-keyboard-response","79","162232","0.0-1.0-107.0-0.0","0","0","61788","","null","","","null","11","","","","","","","","","","","","","","","",""
"","ITI","","html-keyboard-response","80","163238","0.0-1.0-108.0","0","0","61788","","null","","","null","11","","","","","","","","","","","","","","","NaN",""
"","S1","","html-keyboard-response","81","163494","0.0-1.0-110.0","0","0","61788","","null","","","null","12","","","","","","","","","","","","","","","",""
"","ISI","","html-keyboard-response","82","164019","0.0-1.0-111.0","0","0","61788","","null","","","null","12","NaN","","","","","","","","","","","","","","",""
"","S2","","html-keyboard-response","83","164290","0.0-1.0-112.0","0","0","61788","","null","","","null","12","","NaN","","","","","","","","","","","","","",""
"","response","","html-keyboard-response","84","164871","0.0-1.0-113.0-0.0","0","0","61788","","576","","","75","12","","","1","12","training","adjacent","DC","4","3","P.jpg","Q.jpg","0","0","1","",""
"","feedback","","html-keyboard-response","85","165877","0.0-1.0-114.0-0.0","0","0","61788","","null","","","null","12","","","","","","","","","","","","","","","",""
"","ITI","","html-keyboard-response","86","166886","0.0-1.0-117.0","0","0","61788","","null","","","null","12","","","","","","","","","","","","","","","NaN",""
"","S1","","html-keyboard-response","87","167145","0.0-1.0-119.0","0","0","61788","","null","","","null","13","","","","","","","","","","","","","","","",""
"","ISI","","html-keyboard-response","88","167649","0.0-1.0-120.0","0","0","61788","","null","","","null","13","NaN","","","","","","","","","","","","","","",""
"","S2","","html-keyboard-response","89","167918","0.0-1.0-121.0","0","0","61788","","null","","","null","13","","NaN","","","","","","","","","","","","","",""
"","response","","html-keyboard-response","90","168416","0.0-1.0-122.0-0.0","0","0","61788","","494","","","75","13","","","1","13","training","adjacent","FE","6","5","M.jpg","O.jpg","0","0","1","",""
"","feedback","","html-keyboard-response","91","169422","0.0-1.0-123.0-0.0","0","0","61788","","null","","","null","13","","","","","","","","","","","","","","","",""
"","ITI","","html-keyboard-response","92","170429","0.0-1.0-126.0","0","0","61788","","null","","","null","13","","","","","","","","","","","","","","","NaN",""
"","S1","","html-keyboard-response","93","170684","0.0-1.0-128.0","0","0","61788","","null","","","null","14","","","","","","","","","","","","","","","",""
"","ISI","","html-keyboard-response","94","171190","0.0-1.0-129.0","0","0","61788","","null","","","null","14","NaN","","","","","","","","","","","","","","",""
"","S2","","html-keyboard-response","95","171454","0.0-1.0-130.0","0","0","61788","","null","","","null","14","","NaN","","","","","","","","","","","","","",""
"","response","","html-keyboard-response","96","172525","0.0-1.0-131.0-0.0","0","0","61788","","1066","","","68","14","","","1","14","training","adjacent","AB","1","2","R.jpg","L.jpg","1","1","1","",""
"","feedback","","html-keyboard-response","97","173536","0.0-1.0-132.0-0.0","0","0","61788","","null","","","null","14","","","","","","","","","","","","","","","",""
"","ITI","","html-keyboard-response","98","174554","0.0-1.0-135.0","0","0","61788","","null","","","null","14","","","","","","","","","","","","","","","NaN",""
"","S1","","html-keyboard-response","99","174831","0.0-1.0-137.0","0","0","61788","","null","","","null","15","","","","","","","","","","","","","","","",""
"","ISI","","html-keyboard-response","100","175340","0.0-1.0-138.0","0","0","61788","","null","","","null","15","NaN","","","","","","","","","","","","","","",""
"","S2","","html-keyboard-response","101","175608","0.0-1.0-139.0","0","0","61788","","null","","","null","15","","NaN","","","","","","","","","","","","","",""
"","response","","html-keyboard-response","102","176167","0.0-1.0-140.0-0.0","0","0","61788","","548","","","75","15","","","1","15","training","adjacent","ED","5","4","O.jpg","P.jpg","0","0","1","",""
"","feedback","","html-keyboard-response","103","177174","0.0-1.0-141.0-0.0","0","0","61788","","null","","","null","15","","","","","","","","","","","","","","","",""
"","ITI","","html-keyboard-response","104","178183","0.0-1.0-144.0","0","0","61788","","null","","","null","15","","","","","","","","","","","","","","","NaN",""
"","S1","","html-keyboard-response","105","178456","0.0-1.0-146.0","0","0","61788","","null","","","null","16","","","","","","","","","","","","","","","",""
"","ISI","","html-keyboard-response","106","178965","0.0-1.0-147.0","0","0","61788","","null","","","null","16","NaN","","","","","","","","","","","","","","",""
"","S2","","html-keyboard-response","107","179220","0.0-1.0-148.0","0","0","61788","","null","","","null","16","","NaN","","","","","","","","","","","","","",""
"","response","","html-keyboard-response","108","180246","0.0-1.0-149.0-0.0","0","0","61788","","1020","","","68","16","","","1","16","training","adjacent","BC","2","3","L.jpg","Q.jpg","1","1","1","",""
"","feedback","","html-keyboard-response","109","181257","0.0-1.0-150.0-0.0","0","0","61788","","null","","","null","16","","","","","","","","","","","","","","","",""
"","ITI","","html-keyboard-response","110","182270","0.0-1.0-153.0","0","0","61788","","null","","","null","16","","","","","","","","","","","","","","","NaN",""
"","S1","","html-keyboard-response","111","182527","0.0-1.0-155.0","0","0","61788","","null","","","null","17","","","","","","","","","","","","","","","",""
"","ISI","","html-keyboard-response","112","183037","0.0-1.0-156.0","0","0","61788","","null","","","null","17","NaN","","","","","","","","","","","","","","",""
"","S2","","html-keyboard-response","113","183292","0.0-1.0-157.0","0","0","61788","","null","","","null","17","","NaN","","","","","","","","","","","","","",""
"","response","","html-keyboard-response","114","184111","0.0-1.0-158.0-0.0","0","0","61788","","813","","","68","17","","","1","17","training","adjacent","EF","5","6","O.jpg","M.jpg","1","1","1","",""
"","feedback","","html-keyboard-response","115","185117","0.0-1.0-159.0-0.0","0","0","61788","","null","","","null","17","","","","","","","","","","","","","","","",""
"","ITI","","html-keyboard-response","116","186128","0.0-1.0-162.0","0","0","61788","","null","","","null","17","","","","","","","","","","","","","","","NaN",""
"","S1","","html-keyboard-response","117","186391","0.0-1.0-164.0","0","0","61788","","null","","","null","18","","","","","","","","","","","","","","","",""
"","ISI","","html-keyboard-response","118","186906","0.0-1.0-165.0","0","0","61788","","null","","","null","18","NaN","","","","","","","","","","","","","","",""
"","S2","","html-keyboard-response","119","187172","0.0-1.0-166.0","0","0","61788","","null","","","null","18","","NaN","","","","","","","","","","","","","",""
"","response","","html-keyboard-response","120","187747","0.0-1.0-167.0-0.0","0","0","61788","","567","","","75","18","","","1","18","training","adjacent","DE","4","5","P.jpg","O.jpg","0","1","0","",""
"","feedback","","html-keyboard-response","121","188763","0.0-1.0-168.0-0.0","0","0","61788","","null","","","null","18","","","","","","","","","","","","","","","",""
"","time_out","","html-keyboard-response","122","190775","0.0-1.0-170.0-0.0","0","0","61788","","null","","","null","18","","","","","","","","","","","","","","","",""
"","ITI","","html-keyboard-response","123","191898","0.0-1.0-171.0","0","0","61788","","null","","","null","18","","","","","","","","","","","","","","","NaN",""
"","S1","","html-keyboard-response","124","192165","0.0-1.0-173.0","0","0","61788","","null","","","null","19","","","","","","","","","","","","","","","",""
"","ISI","","html-keyboard-response","125","192671","0.0-1.0-174.0","0","0","61788","","null","","","null","19","NaN","","","","","","","","","","","","","","",""
"","S2","","html-keyboard-response","126","192969","0.0-1.0-175.0","0","0","61788","","null","","","null","19","","NaN","","","","","","","","","","","","","",""
"","response","","html-keyboard-response","127","193923","0.0-1.0-176.0-0.0","0","0","61788","","949","","","68","19","","","1","19","training","adjacent","DC","4","3","P.jpg","Q.jpg","1","0","0","",""
"","feedback","","html-keyboard-response","128","194932","0.0-1.0-177.0-0.0","0","0","61788","","null","","","null","19","","","","","","","","","","","","","","","",""
"","time_out","","html-keyboard-response","129","196953","0.0-1.0-179.0-0.0","0","0","61788","","null","","","null","19","","","","","","","","","","","","","","","",""
"","ITI","","html-keyboard-response","130","197958","0.0-1.0-180.0","0","0","61788","","null","","","null","19","","","","","","","","","","","","","","","NaN",""
"","S1","","html-keyboard-response","131","198231","0.0-1.0-182.0","0","0","61788","","null","","","null","20","","","","","","","","","","","","","","","",""
"","ISI","","html-keyboard-response","132","198741","0.0-1.0-183.0","0","0","61788","","null","","","null","20","NaN","","","","","","","","","","","","","","",""
"","S2","","html-keyboard-response","133","198999","0.0-1.0-184.0","0","0","61788","","null","","","null","20","","NaN","","","","","","","","","","","","","",""
"","response","","html-keyboard-response","134","199795","0.0-1.0-185.0-0.0","0","0","61788","","793","","","68","20","","","1","20","training","adjacent","GF","7","6","N.jpg","M.jpg","1","0","0","",""
"","feedback","","html-keyboard-response","135","200815","0.0-1.0-186.0-0.0","0","0","61788","","null","","","null","20","","","","","","","","","","","","","","","",""
"","time_out","","html-keyboard-response","136","202825","0.0-1.0-188.0-0.0","0","0","61788","","null","","","null","20","","","","","","","","","","","","","","","",""
"","ITI","","html-keyboard-response","137","203841","0.0-1.0-189.0","0","0","61788","","null","","","null","20","","","","","","","","","","","","","","","NaN",""
"","S1","","html-keyboard-response","138","204112","0.0-1.0-191.0","0","0","61788","","null","","","null","21","","","","","","","","","","","","","","","",""
"","ISI","","html-keyboard-response","139","204624","0.0-1.0-192.0","0","0","61788","","null","","","null","21","NaN","","","","","","","","","","","","","","",""
"","S2","","html-keyboard-response","140","204900","0.0-1.0-193.0","0","0","61788","","null","","","null","21","","NaN","","","","","","","","","","","","","",""
"","response","","html-keyboard-response","141","205895","0.0-1.0-194.0-0.0","0","0","61788","","983","","","68","21","","","1","21","training","adjacent","BA","2","1","L.jpg","R.jpg","1","0","0","",""
"","feedback","","html-keyboard-response","142","206900","0.0-1.0-195.0-0.0","0","0","61788","","null","","","null","21","","","","","","","","","","","","","","","",""
"","time_out","","html-keyboard-response","143","208913","0.0-1.0-197.0-0.0","0","0","61788","","null","","","null","21","","","","","","","","","","","","","","","",""
"","ITI","","html-keyboard-response","144","209917","0.0-1.0-198.0","0","0","61788","","null","","","null","21","","","","","","","","","","","","","","","NaN",""
"","S1","","html-keyboard-response","145","210175","0.0-1.0-200.0","0","0","61788","","null","","","null","22","","","","","","","","","","","","","","","",""
"","ISI","","html-keyboard-response","146","210685","0.0-1.0-201.0","0","0","61788","","null","","","null","22","NaN","","","","","","","","","","","","","","",""
"","S2","","html-keyboard-response","147","210942","0.0-1.0-202.0","0","0","61788","","null","","","null","22","","NaN","","","","","","","","","","","","","",""
"","response","","html-keyboard-response","148","211630","0.0-1.0-203.0-0.0","0","0","61788","","683","","","75","22","","","1","22","training","adjacent","EF","5","6","O.jpg","M.jpg","0","1","0","",""
"","feedback","","html-keyboard-response","149","212640","0.0-1.0-204.0-0.0","0","0","61788","","null","","","null","22","","","","","","","","","","","","","","","",""
"","time_out","","html-keyboard-response","150","214646","0.0-1.0-206.0-0.0","0","0","61788","","null","","","null","22","","","","","","","","","","","","","","","",""
"","ITI","","html-keyboard-response","151","215652","0.0-1.0-207.0","0","0","61788","","null","","","null","22","","","","","","","","","","","","","","","NaN",""
"","S1","","html-keyboard-response","152","215913","0.0-1.0-209.0","0","0","61788","","null","","","null","23","","","","","","","","","","","","","","","",""
"","ISI","","html-keyboard-response","153","216422","0.0-1.0-210.0","0","0","61788","","null","","","null","23","NaN","","","","","","","","","","","","","","",""
"","S2","","html-keyboard-response","154","216685","0.0-1.0-211.0","0","0","61788","","null","","","null","23","","NaN","","","","","","","","","","","","","",""
"","response","","html-keyboard-response","155","217670","0.0-1.0-212.0-0.0","0","0","61788","","979","","","68","23","","","1","23","training","adjacent","FG","6","7","M.jpg","N.jpg","1","1","1","",""
"","feedback","","html-keyboard-response","156","218692","0.0-1.0-213.0-0.0","0","0","61788","","null","","","null","23","","","","","","","","","","","","","","","",""
"","ITI","","html-keyboard-response","157","219702","0.0-1.0-216.0","0","0","61788","","null","","","null","23","","","","","","","","","","","","","","","NaN",""
"","S1","","html-keyboard-response","158","219963","0.0-1.0-218.0","0","0","61788","","null","","","null","24","","","","","","","","","","","","","","","",""
"","ISI","","html-keyboard-response","159","220476","0.0-1.0-219.0","0","0","61788","","null","","","null","24","NaN","","","","","","","","","","","","","","",""
"","S2","","html-keyboard-response","160","220733","0.0-1.0-220.0","0","0","61788","","null","","","null","24","","NaN","","","","","","","","","","","","","",""
"","response","","html-keyboard-response","161","221431","0.0-1.0-221.0-0.0","0","0","61788","","693","","","75","24","","","1","24","training","adjacent","ED","5","4","O.jpg","P.jpg","0","0","1","",""
"","feedback","","html-keyboard-response","162","222441","0.0-1.0-222.0-0.0","0","0","61788","","null","","","null","24","","","","","","","","","","","","","","","",""
"","ITI","","html-keyboard-response","163","223453","0.0-1.0-225.0","0","0","61788","","null","","","null","24","","","","","","","","","","","","","","","NaN",""
"","S1","","html-keyboard-response","164","223708","0.0-1.0-227.0","0","0","61788","","null","","","null","25","","","","","","","","","","","","","","","",""
"","ISI","","html-keyboard-response","165","224214","0.0-1.0-228.0","0","0","61788","","null","","","null","25","NaN","","","","","","","","","","","","","","",""
"","S2","","html-keyboard-response","166","224471","0.0-1.0-229.0","0","0","61788","","null","","","null","25","","NaN","","","","","","","","","","","","","",""
"","response","","html-keyboard-response","167","225439","0.0-1.0-230.0-0.0","0","0","61788","","963","","","68","25","","","1","25","training","adjacent","GF","7","6","N.jpg","M.jpg","1","0","0","",""
"","feedback","","html-keyboard-response","168","226450","0.0-1.0-231.0-0.0","0","0","61788","","null","","","null","25","","","","","","","","","","","","","","","",""
"","time_out","","html-keyboard-response","169","228463","0.0-1.0-233.0-0.0","0","0","61788","","null","","","null","25","","","","","","","","","","","","","","","",""
"","ITI","","html-keyboard-response","170","229471","0.0-1.0-234.0","0","0","61788","","null","","","null","25","","","","","","","","","","","","","","","NaN",""
"","S1","","html-keyboard-response","171","229780","0.0-1.0-236.0","0","0","61788","","null","","","null","26","","","","","","","","","","","","","","","",""
"","ISI","","html-keyboard-response","172","230284","0.0-1.0-237.0","0","0","61788","","null","","","null","26","NaN","","","","","","","","","","","","","","",""
"","S2","","html-keyboard-response","173","230543","0.0-1.0-238.0","0","0","61788","","null","","","null","26","","NaN","","","","","","","","","","","","","",""
"","response","","html-keyboard-response","174","231421","0.0-1.0-239.0-0.0","0","0","61788","","871","","","75","26","","","1","26","training","adjacent","BA","2","1","L.jpg","R.jpg","0","0","1","",""
"","feedback","","html-keyboard-response","175","232429","0.0-1.0-240.0-0.0","0","0","61788","","null","","","null","26","","","","","","","","","","","","","","","",""
"","ITI","","html-keyboard-response","176","233440","0.0-1.0-243.0","0","0","61788","","null","","","null","26","","","","","","","","","","","","","","","NaN",""
"","S1","","html-keyboard-response","177","233700","0.0-1.0-245.0","0","0","61788","","null","","","null","27","","","","","","","","","","","","","","","",""
"","ISI","","html-keyboard-response","178","234210","0.0-1.0-246.0","0","0","61788","","null","","","null","27","NaN","","","","","","","","","","","","","","",""
"","S2","","html-keyboard-response","179","234469","0.0-1.0-247.0","0","0","61788","","null","","","null","27","","NaN","","","","","","","","","","","","","",""
"","response","","html-keyboard-response","180","235263","0.0-1.0-248.0-0.0","0","0","61788","","788","","","68","27","","","1","27","training","adjacent","FG","6","7","M.jpg","N.jpg","1","1","1","",""
"","feedback","","html-keyboard-response","181","236290","0.0-1.0-249.0-0.0","0","0","61788","","null","","","null","27","","","","","","","","","","","","","","","",""
"","ITI","","html-keyboard-response","182","237331","0.0-1.0-252.0","0","0","61788","","null","","","null","27","","","","","","","","","","","","","","","NaN",""
"","S1","","html-keyboard-response","183","237587","0.0-1.0-254.0","0","0","61788","","null","","","null","28","","","","","","","","","","","","","","","",""
"","ISI","","html-keyboard-response","184","238171","0.0-1.0-255.0","0","0","61788","","null","","","null","28","NaN","","","","","","","","","","","","","","",""
"","S2","","html-keyboard-response","185","238428","0.0-1.0-256.0","0","0","61788","","null","","","null","28","","NaN","","","","","","","","","","","","","",""
"","response","","html-keyboard-response","186","239187","0.0-1.0-257.0-0.0","0","0","61788","","756","","","68","28","","","1","28","training","adjacent","DE","4","5","P.jpg","O.jpg","1","1","1","",""
"","feedback","","html-keyboard-response","187","240198","0.0-1.0-258.0-0.0","0","0","61788","","null","","","null","28","","","","","","","","","","","","","","","",""
"","ITI","","html-keyboard-response","188","241212","0.0-1.0-261.0","0","0","61788","","null","","","null","28","","","","","","","","","","","","","","","NaN",""
"","S1","","html-keyboard-response","189","241485","0.0-1.0-263.0","0","0","61788","","null","","","null","29","","","","","","","","","","","","","","","",""
"","ISI","","html-keyboard-response","190","241997","0.0-1.0-264.0","0","0","61788","","null","","","null","29","NaN","","","","","","","","","","","","","","",""
"","S2","","html-keyboard-response","191","242263","0.0-1.0-265.0","0","0","61788","","null","","","null","29","","NaN","","","","","","","","","","","","","",""
"","response","","html-keyboard-response","192","242795","0.0-1.0-266.0-0.0","0","0","61788","","522","","","68","29","","","1","29","training","adjacent","ED","5","4","O.jpg","P.jpg","1","0","0","",""
"","feedback","","html-keyboard-response","193","243818","0.0-1.0-267.0-0.0","0","0","61788","","null","","","null","29","","","","","","","","","","","","","","","",""
"","time_out","","html-keyboard-response","194","245837","0.0-1.0-269.0-0.0","0","0","61788","","null","","","null","29","","","","","","","","","","","","","","","",""
"","ITI","","html-keyboard-response","195","246846","0.0-1.0-270.0","0","0","61788","","null","","","null","29","","","","","","","","","","","","","","","NaN",""
"","S1","","html-keyboard-response","196","247103","0.0-1.0-272.0","0","0","61788","","null","","","null","30","","","","","","","","","","","","","","","",""
"","ISI","","html-keyboard-response","197","247612","0.0-1.0-273.0","0","0","61788","","null","","","null","30","NaN","","","","","","","","","","","","","","",""
"","S2","","html-keyboard-response","198","247870","0.0-1.0-274.0","0","0","61788","","null","","","null","30","","NaN","","","","","","","","","","","","","",""
"","response","","html-keyboard-response","199","248784","0.0-1.0-275.0-0.0","0","0","61788","","909","","","68","30","","","1","30","training","adjacent","FE","6","5","M.jpg","O.jpg","1","0","0","",""
"","feedback","","html-keyboard-response","200","249788","0.0-1.0-276.0-0.0","0","0","61788","","null","","","null","30","","","","","","","","","","","","","","","",""
"","time_out","","html-keyboard-response","201","251798","0.0-1.0-278.0-0.0","0","0","61788","","null","","","null","30","","","","","","","","","","","","","","","",""
"","ITI","","html-keyboard-response","202","252900","0.0-1.0-279.0","0","0","61788","","null","","","null","30","","","","","","","","","","","","","","","NaN",""
"","S1","","html-keyboard-response","203","253161","0.0-1.0-281.0","0","0","61788","","null","","","null","31","","","","","","","","","","","","","","","",""
"","ISI","","html-keyboard-response","204","253672","0.0-1.0-282.0","0","0","61788","","null","","","null","31","NaN","","","","","","","","","","","","","","",""
"","S2","","html-keyboard-response","205","253940","0.0-1.0-283.0","0","0","61788","","null","","","null","31","","NaN","","","","","","","","","","","","","",""
"","response","","html-keyboard-response","206","254844","0.0-1.0-284.0-0.0","0","0","61788","","897","","","68","31","","","1","31","training","adjacent","AB","1","2","R.jpg","L.jpg","1","1","1","",""
"","feedback","","html-keyboard-response","207","255855","0.0-1.0-285.0-0.0","0","0","61788","","null","","","null","31","","","","","","","","","","","","","","","",""
"","ITI","","html-keyboard-response","208","256860","0.0-1.0-288.0","0","0","61788","","null","","","null","31","","","","","","","","","","","","","","","NaN",""
"","S1","","html-keyboard-response","209","257120","0.0-1.0-290.0","0","0","61788","","null","","","null","32","","","","","","","","","","","","","","","",""
"","ISI","","html-keyboard-response","210","257678","0.0-1.0-291.0","0","0","61788","","null","","","null","32","NaN","","","","","","","","","","","","","","",""
"","S2","","html-keyboard-response","211","257934","0.0-1.0-292.0","0","0","61788","","null","","","null","32","","NaN","","","","","","","","","","","","","",""
"","response","","html-keyboard-response","212","259134","0.0-1.0-293.0-0.0","0","0","61788","","1195","","","75","32","","","1","32","training","adjacent","CB","3","2","Q.jpg","L.jpg","0","0","1","",""
"","feedback","","html-keyboard-response","213","260141","0.0-1.0-294.0-0.0","0","0","61788","","null","","","null","32","","","","","","","","","","","","","","","",""
"","ITI","","html-keyboard-response","214","261148","0.0-1.0-297.0","0","0","61788","","null","","","null","32","","","","","","","","","","","","","","","NaN",""
"","S1","","html-keyboard-response","215","261405","0.0-1.0-299.0","0","0","61788","","null","","","null","33","","","","","","","","","","","","","","","",""
"","ISI","","html-keyboard-response","216","261912","0.0-1.0-300.0","0","0","61788","","null","","","null","33","NaN","","","","","","","","","","","","","","",""
"","S2","","html-keyboard-response","217","262177","0.0-1.0-301.0","0","0","61788","","null","","","null","33","","NaN","","","","","","","","","","","","","",""
"","response","","html-keyboard-response","218","262751","0.0-1.0-302.0-0.0","0","0","61788","","568","","","75","33","","","1","33","training","adjacent","CB","3","2","Q.jpg","L.jpg","0","0","1","",""
"","feedback","","html-keyboard-response","219","263758","0.0-1.0-303.0-0.0","0","0","61788","","null","","","null","33","","","","","","","","","","","","","","","",""
"","ITI","","html-keyboard-response","220","264767","0.0-1.0-306.0","0","0","61788","","null","","","null","33","","","","","","","","","","","","","","","NaN",""
"","S1","","html-keyboard-response","221","265029","0.0-1.0-308.0","0","0","61788","","null","","","null","34","","","","","","","","","","","","","","","",""
"","ISI","","html-keyboard-response","222","265535","0.0-1.0-309.0","0","0","61788","","null","","","null","34","NaN","","","","","","","","","","","","","","",""
"","S2","","html-keyboard-response","223","265798","0.0-1.0-310.0","0","0","61788","","null","","","null","34","","NaN","","","","","","","","","","","","","",""
"","response","","html-keyboard-response","224","266591","0.0-1.0-311.0-0.0","0","0","61788","","786","","","75","34","","","1","34","training","adjacent","AB","1","2","R.jpg","L.jpg","0","1","0","",""
"","feedback","","html-keyboard-response","225","267618","0.0-1.0-312.0-0.0","0","0","61788","","null","","","null","34","","","","","","","","","","","","","","","",""
"","time_out","","html-keyboard-response","226","269677","0.0-1.0-314.0-0.0","0","0","61788","","null","","","null","34","","","","","","","","","","","","","","","",""
"","ITI","","html-keyboard-response","227","270686","0.0-1.0-315.0","0","0","61788","","null","","","null","34","","","","","","","","","","","","","","","NaN",""
"","S1","","html-keyboard-response","228","270945","0.0-1.0-317.0","0","0","61788","","null","","","null","35","","","","","","","","","","","","","","","",""
"","ISI","","html-keyboard-response","229","271454","0.0-1.0-318.0","0","0","61788","","null","","","null","35","NaN","","","","","","","","","","","","","","",""
"","S2","","html-keyboard-response","230","271718","0.0-1.0-319.0","0","0","61788","","null","","","null","35","","NaN","","","","","","","","","","","","","",""
"","response","","html-keyboard-response","231","273009","0.0-1.0-320.0-0.0","0","0","61788","","1284","","","68","35","","","1","35","training","adjacent","CD","3","4","Q.jpg","P.jpg","1","1","1","",""
"","feedback","","html-keyboard-response","232","274024","0.0-1.0-321.0-0.0","0","0","61788","","null","","","null","35","","","","","","","","","","","","","","","",""
"","ITI","","html-keyboard-response","233","275033","0.0-1.0-324.0","0","0","61788","","null","","","null","35","","","","","","","","","","","","","","","NaN",""
"","S1","","html-keyboard-response","234","275294","0.0-1.0-326.0","0","0","61788","","null","","","null","36","","","","","","","","","","","","","","","",""
"","ISI","","html-keyboard-response","235","275808","0.0-1.0-327.0","0","0","61788","","null","","","null","36","NaN","","","","","","","","","","","","","","",""
"","S2","","html-keyboard-response","236","276070","0.0-1.0-328.0","0","0","61788","","null","","","null","36","","NaN","","","","","","","","","","","","","",""
"","response","","html-keyboard-response","237","276851","0.0-1.0-329.0-0.0","0","0","61788","","774","","","75","36","","","1","36","training","adjacent","FG","6","7","M.jpg","N.jpg","0","1","0","",""
"","feedback","","html-keyboard-response","238","277863","0.0-1.0-330.0-0.0","0","0","61788","","null","","","null","36","","","","","","","","","","","","","","","",""
"","time_out","","html-keyboard-response","239","279895","0.0-1.0-332.0-0.0","0","0","61788","","null","","","null","36","","","","","","","","","","","","","","","",""
"","ITI","","html-keyboard-response","240","280959","0.0-1.0-333.0","0","0","61788","","null","","","null","36","","","","","","","","","","","","","","","NaN",""
"","S1","","html-keyboard-response","241","281222","0.0-1.0-335.0","0","0","61788","","null","","","null","37","","","","","","","","","","","","","","","",""
"","ISI","","html-keyboard-response","242","281758","0.0-1.0-336.0","0","0","61788","","null","","","null","37","NaN","","","","","","","","","","","","","","",""
"","S2","","html-keyboard-response","243","282022","0.0-1.0-337.0","0","0","61788","","null","","","null","37","","NaN","","","","","","","","","","","","","",""
"","response","","html-keyboard-response","244","282935","0.0-1.0-338.0-0.0","0","0","61788","","909","","","68","37","","","1","37","training","adjacent","CD","3","4","Q.jpg","P.jpg","1","1","1","",""
"","feedback","","html-keyboard-response","245","284043","0.0-1.0-339.0-0.0","0","0","61788","","null","","","null","37","","","","","","","","","","","","","","","",""
"","ITI","","html-keyboard-response","246","285071","0.0-1.0-342.0","0","0","61788","","null","","","null","37","","","","","","","","","","","","","","","NaN",""
"","S1","","html-keyboard-response","247","285336","0.0-1.0-344.0","0","0","61788","","null","","","null","38","","","","","","","","","","","","","","","",""
"","ISI","","html-keyboard-response","248","285848","0.0-1.0-345.0","0","0","61788","","null","","","null","38","NaN","","","","","","","","","","","","","","",""
"","S2","","html-keyboard-response","249","286110","0.0-1.0-346.0","0","0","61788","","null","","","null","38","","NaN","","","","","","","","","","","","","",""
"","response","","html-keyboard-response","250","286713","0.0-1.0-347.0-0.0","0","0","61788","","597","","","68","38","","","1","38","training","adjacent","DE","4","5","P.jpg","O.jpg","1","1","1","",""
"","feedback","","html-keyboard-response","251","287726","0.0-1.0-348.0-0.0","0","0","61788","","null","","","null","38","","","","","","","","","","","","","","","",""
"","ITI","","html-keyboard-response","252","288813","0.0-1.0-351.0","0","0","61788","","null","","","null","38","","","","","","","","","","","","","","","NaN",""
"","S1","","html-keyboard-response","253","289071","0.0-1.0-353.0","0","0","61788","","null","","","null","39","","","","","","","","","","","","","","","",""
"","ISI","","html-keyboard-response","254","289580","0.0-1.0-354.0","0","0","61788","","null","","","null","39","NaN","","","","","","","","","","","","","","",""
"","S2","","html-keyboard-response","255","289838","0.0-1.0-355.0","0","0","61788","","null","","","null","39","","NaN","","","","","","","","","","","","","",""
"","response","","html-keyboard-response","256","290536","0.0-1.0-356.0-0.0","0","0","61788","","688","","","68","39","","","1","39","training","adjacent","BC","2","3","L.jpg","Q.jpg","1","1","1","",""
"","feedback","","html-keyboard-response","257","291544","0.0-1.0-357.0-0.0","0","0","61788","","null","","","null","39","","","","","","","","","","","","","","","",""
"","ITI","","html-keyboard-response","258","292551","0.0-1.0-360.0","0","0","61788","","null","","","null","39","","","","","","","","","","","","","","","NaN",""
"","S1","","html-keyboard-response","259","292813","0.0-1.0-362.0","0","0","61788","","null","","","null","40","","","","","","","","","","","","","","","",""
"","ISI","","html-keyboard-response","260","293317","0.0-1.0-363.0","0","0","61788","","null","","","null","40","NaN","","","","","","","","","","","","","","",""
"","S2","","html-keyboard-response","261","293572","0.0-1.0-364.0","0","0","61788","","null","","","null","40","","NaN","","","","","","","","","","","","","",""
"","response","","html-keyboard-response","262","294493","0.0-1.0-365.0-0.0","0","0","61788","","915","","","75","40","","","1","40","training","adjacent","FE","6","5","M.jpg","O.jpg","0","0","1","",""
"","feedback","","html-keyboard-response","263","295504","0.0-1.0-366.0-0.0","0","0","61788","","null","","","null","40","","","","","","","","","","","","","","","",""
"","ITI","","html-keyboard-response","264","296517","0.0-1.0-369.0","0","0","61788","","null","","","null","40","","","","","","","","","","","","","","","NaN",""
"","S1","","html-keyboard-response","265","296774","0.0-1.0-371.0","0","0","61788","","null","","","null","41","","","","","","","","","","","","","","","",""
"","ISI","","html-keyboard-response","266","297285","0.0-1.0-372.0","0","0","61788","","null","","","null","41","NaN","","","","","","","","","","","","","","",""
"","S2","","html-keyboard-response","267","297559","0.0-1.0-373.0","0","0","61788","","null","","","null","41","","NaN","","","","","","","","","","","","","",""
"","response","","html-keyboard-response","268","298353","0.0-1.0-374.0-0.0","0","0","61788","","783","","","75","41","","","1","41","training","adjacent","CB","3","2","Q.jpg","L.jpg","0","0","1","",""
"","feedback","","html-keyboard-response","269","299361","0.0-1.0-375.0-0.0","0","0","61788","","null","","","null","41","","","","","","","","","","","","","","","",""
"","ITI","","html-keyboard-response","270","300375","0.0-1.0-378.0","0","0","61788","","null","","","null","41","","","","","","","","","","","","","","","NaN",""
"","S1","","html-keyboard-response","271","300637","0.0-1.0-380.0","0","0","61788","","null","","","null","42","","","","","","","","","","","","","","","",""
"","ISI","","html-keyboard-response","272","301142","0.0-1.0-381.0","0","0","61788","","null","","","null","42","NaN","","","","","","","","","","","","","","",""
"","S2","","html-keyboard-response","273","301405","0.0-1.0-382.0","0","0","61788","","null","","","null","42","","NaN","","","","","","","","","","","","","",""
"","response","","html-keyboard-response","274","301958","0.0-1.0-383.0-0.0","0","0","61788","","549","","","75","42","","","1","42","training","adjacent","BC","2","3","L.jpg","Q.jpg","0","1","0","",""
"","feedback","","html-keyboard-response","275","302965","0.0-1.0-384.0-0.0","0","0","61788","","null","","","null","42","","","","","","","","","","","","","","","",""
"","time_out","","html-keyboard-response","276","304981","0.0-1.0-386.0-0.0","0","0","61788","","null","","","null","42","","","","","","","","","","","","","","","",""
"","ITI","","html-keyboard-response","277","305991","0.0-1.0-387.0","0","0","61788","","null","","","null","42","","","","","","","","","","","","","","","NaN",""
"","S1","","html-keyboard-response","278","306258","0.0-1.0-389.0","0","0","61788","","null","","","null","43","","","","","","","","","","","","","","","",""
"","ISI","","html-keyboard-response","279","306766","0.0-1.0-390.0","0","0","61788","","null","","","null","43","NaN","","","","","","","","","","","","","","",""
"","S2","","html-keyboard-response","280","307026","0.0-1.0-391.0","0","0","61788","","null","","","null","43","","NaN","","","","","","","","","","","","","",""
"","response","","html-keyboard-response","281","307484","0.0-1.0-392.0-0.0","0","0","61788","","449","","","75","43","","","1","43","training","adjacent","GF","7","6","N.jpg","M.jpg","0","0","1","",""
"","feedback","","html-keyboard-response","282","308501","0.0-1.0-393.0-0.0","0","0","61788","","null","","","null","43","","","","","","","","","","","","","","","",""
"","ITI","","html-keyboard-response","283","309508","0.0-1.0-396.0","0","0","61788","","null","","","null","43","","","","","","","","","","","","","","","NaN",""
"","S1","","html-keyboard-response","284","309763","0.0-1.0-398.0","0","0","61788","","null","","","null","44","","","","","","","","","","","","","","","",""
"","ISI","","html-keyboard-response","285","310268","0.0-1.0-399.0","0","0","61788","","null","","","null","44","NaN","","","","","","","","","","","","","","",""
"","S2","","html-keyboard-response","286","310527","0.0-1.0-400.0","0","0","61788","","null","","","null","44","","NaN","","","","","","","","","","","","","",""
"","response","","html-keyboard-response","287","310962","0.0-1.0-401.0-0.0","0","0","61788","","428","","","75","44","","","1","44","training","adjacent","AB","1","2","R.jpg","L.jpg","0","1","0","",""
"","feedback","","html-keyboard-response","288","311972","0.0-1.0-402.0-0.0","0","0","61788","","null","","","null","44","","","","","","","","","","","","","","","",""
"","time_out","","html-keyboard-response","289","313983","0.0-1.0-404.0-0.0","0","0","61788","","null","","","null","44","","","","","","","","","","","","","","","",""
"","ITI","","html-keyboard-response","290","314991","0.0-1.0-405.0","0","0","61788","","null","","","null","44","","","","","","","","","","","","","","","NaN",""
"","S1","","html-keyboard-response","291","315254","0.0-1.0-407.0","0","0","61788","","null","","","null","45","","","","","","","","","","","","","","","",""
"","ISI","","html-keyboard-response","292","315783","0.0-1.0-408.0","0","0","61788","","null","","","null","45","NaN","","","","","","","","","","","","","","",""
"","S2","","html-keyboard-response","293","316309","0.0-1.0-409.0","0","0","61788","","null","","","null","45","","NaN","","","","","","","","","","","","","",""
"","response","","html-keyboard-response","294","317233","0.0-1.0-410.0-0.0","0","0","61788","","918","","","68","45","","","1","45","training","adjacent","CD","3","4","Q.jpg","P.jpg","1","1","1","",""
"","feedback","","html-keyboard-response","295","318238","0.0-1.0-411.0-0.0","0","0","61788","","null","","","null","45","","","","","","","","","","","","","","","",""
"","ITI","","html-keyboard-response","296","319246","0.0-1.0-414.0","0","0","61788","","null","","","null","45","","","","","","","","","","","","","","","NaN",""
"","S1","","html-keyboard-response","297","319502","0.0-1.0-416.0","0","0","61788","","null","","","null","46","","","","","","","","","","","","","","","",""
"","ISI","","html-keyboard-response","298","320021","0.0-1.0-417.0","0","0","61788","","null","","","null","46","NaN","","","","","","","","","","","","","","",""
"","S2","","html-keyboard-response","299","320328","0.0-1.0-418.0","0","0","61788","","null","","","null","46","","NaN","","","","","","","","","","","","","",""
"","response","","html-keyboard-response","300","321222","0.0-1.0-419.0-0.0","0","0","61788","","890","","","75","46","","","1","46","training","adjacent","CD","3","4","Q.jpg","P.jpg","0","1","0","",""
"","feedback","","html-keyboard-response","301","322233","0.0-1.0-420.0-0.0","0","0","61788","","null","","","null","46","","","","","","","","","","","","","","","",""
"","time_out","","html-keyboard-response","302","324251","0.0-1.0-422.0-0.0","0","0","61788","","null","","","null","46","","","","","","","","","","","","","","","",""
"","ITI","","html-keyboard-response","303","325261","0.0-1.0-423.0","0","0","61788","","null","","","null","46","","","","","","","","","","","","","","","NaN",""
"","S1","","html-keyboard-response","304","325517","0.0-1.0-425.0","0","0","61788","","null","","","null","47","","","","","","","","","","","","","","","",""
"","ISI","","html-keyboard-response","305","326025","0.0-1.0-426.0","0","0","61788","","null","","","null","47","NaN","","","","","","","","","","","","","","",""
"","S2","","html-keyboard-response","306","326286","0.0-1.0-427.0","0","0","61788","","null","","","null","47","","NaN","","","","","","","","","","","","","",""
"","response","","html-keyboard-response","307","327010","0.0-1.0-428.0-0.0","0","0","61788","","719","","","75","47","","","1","47","training","adjacent","DC","4","3","P.jpg","Q.jpg","0","0","1","",""
"","feedback","","html-keyboard-response","308","328041","0.0-1.0-429.0-0.0","0","0","61788","","null","","","null","47","","","","","","","","","","","","","","","",""
"","ITI","","html-keyboard-response","309","329054","0.0-1.0-432.0","0","0","61788","","null","","","null","47","","","","","","","","","","","","","","","NaN",""
"","block_over","","html-keyboard-response","310","348624","0.0-1.0-433.0-0.0","0","0","61788","","19561","","","32","47","","","","","","","","","","","","","","","",""
"","S1","","html-keyboard-response","311","348898","0.0-1.0-434.0","0","0","61788","","null","","","null","48","","","","","","","","","","","","","","","",""
"","ISI","","html-keyboard-response","312","349412","0.0-1.0-435.0","0","0","61788","","null","","","null","48","NaN","","","","","","","","","","","","","","",""
"","S2","","html-keyboard-response","313","349670","0.0-1.0-436.0","0","0","61788","","null","","","null","48","","NaN","","","","","","","","","","","","","",""
"","response","","html-keyboard-response","314","350254","0.0-1.0-437.0-0.0","0","0","61788","","581","","","75","48","","","2","48","training","adjacent","CB","3","2","Q.jpg","L.jpg","0","0","1","",""
"","feedback","","html-keyboard-response","315","351261","0.0-1.0-438.0-0.0","0","0","61788","","null","","","null","48","","","","","","","","","","","","","","","",""
"","ITI","","html-keyboard-response","316","352284","0.0-1.0-441.0","0","0","61788","","null","","","null","48","","","","","","","","","","","","","","","NaN",""
"","S1","","html-keyboard-response","317","352542","0.0-1.0-443.0","0","0","61788","","null","","","null","49","","","","","","","","","","","","","","","",""
"","ISI","","html-keyboard-response","318","353053","0.0-1.0-444.0","0","0","61788","","null","","","null","49","NaN","","","","","","","","","","","","","","",""
"","S2","","html-keyboard-response","319","353403","0.0-1.0-445.0","0","0","61788","","null","","","null","49","","NaN","","","","","","","","","","","","","",""
"","response","","html-keyboard-response","320","354203","0.0-1.0-446.0-0.0","0","0","61788","","789","","","68","49","","","2","49","training","adjacent","FE","6","5","M.jpg","O.jpg","1","0","0","",""
"","feedback","","html-keyboard-response","321","355216","0.0-1.0-447.0-0.0","0","0","61788","","null","","","null","49","","","","","","","","","","","","","","","",""
"","time_out","","html-keyboard-response","322","357233","0.0-1.0-449.0-0.0","0","0","61788","","null","","","null","49","","","","","","","","","","","","","","","",""
"","ITI","","html-keyboard-response","323","358245","0.0-1.0-450.0","0","0","61788","","null","","","null","49","","","","","","","","","","","","","","","NaN",""
"","S1","","html-keyboard-response","324","358504","0.0-1.0-452.0","0","0","61788","","null","","","null","50","","","","","","","","","","","","","","","",""
"","ISI","","html-keyboard-response","325","359013","0.0-1.0-453.0","0","0","61788","","null","","","null","50","NaN","","","","","","","","","","","","","","",""
"","S2","","html-keyboard-response","326","359269","0.0-1.0-454.0","0","0","61788","","null","","","null","50","","NaN","","","","","","","","","","","","","",""
"","response","","html-keyboard-response","327","359846","0.0-1.0-455.0-0.0","0","0","61788","","571","","","75","50","","","2","50","training","adjacent","CB","3","2","Q.jpg","L.jpg","0","0","1","",""
"","feedback","","html-keyboard-response","328","360854","0.0-1.0-456.0-0.0","0","0","61788","","null","","","null","50","","","","","","","","","","","","","","","",""
"","ITI","","html-keyboard-response","329","361862","0.0-1.0-459.0","0","0","61788","","null","","","null","50","","","","","","","","","","","","","","","NaN",""
"","S1","","html-keyboard-response","330","362164","0.0-1.0-461.0","0","0","61788","","null","","","null","51","","","","","","","","","","","","","","","",""
"","ISI","","html-keyboard-response","331","362706","0.0-1.0-462.0","0","0","61788","","null","","","null","51","NaN","","","","","","","","","","","","","","",""
"","S2","","html-keyboard-response","332","362979","0.0-1.0-463.0","0","0","61788","","null","","","null","51","","NaN","","","","","","","","","","","","","",""
"","response","","html-keyboard-response","333","363626","0.0-1.0-464.0-0.0","0","0","61788","","641","","","75","51","","","2","51","training","adjacent","BC","2","3","L.jpg","Q.jpg","0","1","0","",""
"","feedback","","html-keyboard-response","334","364638","0.0-1.0-465.0-0.0","0","0","61788","","null","","","null","51","","","","","","","","","","","","","","","",""
"","time_out","","html-keyboard-response","335","366651","0.0-1.0-467.0-0.0","0","0","61788","","null","","","null","51","","","","","","","","","","","","","","","",""
"","ITI","","html-keyboard-response","336","367658","0.0-1.0-468.0","0","0","61788","","null","","","null","51","","","","","","","","","","","","","","","NaN",""
"","S1","","html-keyboard-response","337","367921","0.0-1.0-470.0","0","0","61788","","null","","","null","52","","","","","","","","","","","","","","","",""
"","ISI","","html-keyboard-response","338","368469","0.0-1.0-471.0","0","0","61788","","null","","","null","52","NaN","","","","","","","","","","","","","","",""
"","S2","","html-keyboard-response","339","368732","0.0-1.0-472.0","0","0","61788","","null","","","null","52","","NaN","","","","","","","","","","","","","",""
"","response","","html-keyboard-response","340","369697","0.0-1.0-473.0-0.0","0","0","61788","","959","","","75","52","","","2","52","training","adjacent","FE","6","5","M.jpg","O.jpg","0","0","1","",""
"","feedback","","html-keyboard-response","341","370713","0.0-1.0-474.0-0.0","0","0","61788","","null","","","null","52","","","","","","","","","","","","","","","",""
"","ITI","","html-keyboard-response","342","371719","0.0-1.0-477.0","0","0","61788","","null","","","null","52","","","","","","","","","","","","","","","NaN",""
"","S1","","html-keyboard-response","343","372017","0.0-1.0-479.0","0","0","61788","","null","","","null","53","","","","","","","","","","","","","","","",""
"","ISI","","html-keyboard-response","344","372525","0.0-1.0-480.0","0","0","61788","","null","","","null","53","NaN","","","","","","","","","","","","","","",""
"","S2","","html-keyboard-response","345","372782","0.0-1.0-481.0","0","0","61788","","null","","","null","53","","NaN","","","","","","","","","","","","","",""
"","response","","html-keyboard-response","346","373273","0.0-1.0-482.0-0.0","0","0","61788","","482","","","75","53","","","2","53","training","adjacent","CB","3","2","Q.jpg","L.jpg","0","0","1","",""
"","feedback","","html-keyboard-response","347","374322","0.0-1.0-483.0-0.0","0","0","61788","","null","","","null","53","","","","","","","","","","","","","","","",""
"","ITI","","html-keyboard-response","348","375362","0.0-1.0-486.0","0","0","61788","","null","","","null","53","","","","","","","","","","","","","","","NaN",""
"","S1","","html-keyboard-response","349","375621","0.0-1.0-488.0","0","0","61788","","null","","","null","54","","","","","","","","","","","","","","","",""
"","ISI","","html-keyboard-response","350","376127","0.0-1.0-489.0","0","0","61788","","null","","","null","54","NaN","","","","","","","","","","","","","","",""
"","S2","","html-keyboard-response","351","376397","0.0-1.0-490.0","0","0","61788","","null","","","null","54","","NaN","","","","","","","","","","","","","",""
"","response","","html-keyboard-response","352","377087","0.0-1.0-491.0-0.0","0","0","61788","","668","","","68","54","","","2","54","training","adjacent","EF","5","6","O.jpg","M.jpg","1","1","1","",""
"","feedback","","html-keyboard-response","353","378100","0.0-1.0-492.0-0.0","0","0","61788","","null","","","null","54","","","","","","","","","","","","","","","",""
"","ITI","","html-keyboard-response","354","379111","0.0-1.0-495.0","0","0","61788","","null","","","null","54","","","","","","","","","","","","","","","NaN",""
"","S1","","html-keyboard-response","355","379364","0.0-1.0-497.0","0","0","61788","","null","","","null","55","","","","","","","","","","","","","","","",""
"","ISI","","html-keyboard-response","356","379873","0.0-1.0-498.0","0","0","61788","","null","","","null","55","NaN","","","","","","","","","","","","","","",""
"","S2","","html-keyboard-response","357","380133","0.0-1.0-499.0","0","0","61788","","null","","","null","55","","NaN","","","","","","","","","","","","","",""
"","response","","html-keyboard-response","358","380875","0.0-1.0-500.0-0.0","0","0","61788","","731","","","68","55","","","2","55","training","adjacent","CD","3","4","Q.jpg","P.jpg","1","1","1","",""
"","feedback","","html-keyboard-response","359","381888","0.0-1.0-501.0-0.0","0","0","61788","","null","","","null","55","","","","","","","","","","","","","","","",""
"","ITI","","html-keyboard-response","360","382903","0.0-1.0-504.0","0","0","61788","","null","","","null","55","","","","","","","","","","","","","","","NaN",""
"","S1","","html-keyboard-response","361","383167","0.0-1.0-506.0","0","0","61788","","null","","","null","56","","","","","","","","","","","","","","","",""
"","ISI","","html-keyboard-response","362","383679","0.0-1.0-507.0","0","0","61788","","null","","","null","56","NaN","","","","","","","","","","","","","","",""
"","S2","","html-keyboard-response","363","383953","0.0-1.0-508.0","0","0","61788","","null","","","null","56","","NaN","","","","","","","","","","","","","",""
"","response","","html-keyboard-response","364","384818","0.0-1.0-509.0-0.0","0","0","61788","","857","","","75","56","","","2","56","training","adjacent","BA","2","1","L.jpg","R.jpg","0","0","1","",""
"","feedback","","html-keyboard-response","365","385830","0.0-1.0-510.0-0.0","0","0","61788","","null","","","null","56","","","","","","","","","","","","","","","",""
"","ITI","","html-keyboard-response","366","386845","0.0-1.0-513.0","0","0","61788","","null","","","null","56","","","","","","","","","","","","","","","NaN",""
"","S1","","html-keyboard-response","367","387102","0.0-1.0-515.0","0","0","61788","","null","","","null","57","","","","","","","","","","","","","","","",""
"","ISI","","html-keyboard-response","368","387708","0.0-1.0-516.0","0","0","61788","","null","","","null","57","NaN","","","","","","","","","","","","","","",""
"","S2","","html-keyboard-response","369","387966","0.0-1.0-517.0","0","0","61788","","null","","","null","57","","NaN","","","","","","","","","","","","","",""
"","response","","html-keyboard-response","370","389015","0.0-1.0-518.0-0.0","0","0","61788","","1043","","","68","57","","","2","57","training","adjacent","BC","2","3","L.jpg","Q.jpg","1","1","1","",""
"","feedback","","html-keyboard-response","371","390020","0.0-1.0-519.0-0.0","0","0","61788","","null","","","null","57","","","","","","","","","","","","","","","",""
"","ITI","","html-keyboard-response","372","391031","0.0-1.0-522.0","0","0","61788","","null","","","null","57","","","","","","","","","","","","","","","NaN",""
"","S1","","html-keyboard-response","373","391293","0.0-1.0-524.0","0","0","61788","","null","","","null","58","","","","","","","","","","","","","","","",""
"","ISI","","html-keyboard-response","374","391804","0.0-1.0-525.0","0","0","61788","","null","","","null","58","NaN","","","","","","","","","","","","","","",""
"","S2","","html-keyboard-response","375","392071","0.0-1.0-526.0","0","0","61788","","null","","","null","58","","NaN","","","","","","","","","","","","","",""
"","response","","html-keyboard-response","376","392753","0.0-1.0-527.0-0.0","0","0","61788","","675","","","75","58","","","2","58","training","adjacent","EF","5","6","O.jpg","M.jpg","0","1","0","",""
"","feedback","","html-keyboard-response","377","393766","0.0-1.0-528.0-0.0","0","0","61788","","null","","","null","58","","","","","","","","","","","","","","","",""
"","time_out","","html-keyboard-response","378","395775","0.0-1.0-530.0-0.0","0","0","61788","","null","","","null","58","","","","","","","","","","","","","","","",""
"","ITI","","html-keyboard-response","379","396782","0.0-1.0-531.0","0","0","61788","","null","","","null","58","","","","","","","","","","","","","","","NaN",""
"","S1","","html-keyboard-response","380","397037","0.0-1.0-533.0","0","0","61788","","null","","","null","59","","","","","","","","","","","","","","","",""
"","ISI","","html-keyboard-response","381","397544","0.0-1.0-534.0","0","0","61788","","null","","","null","59","NaN","","","","","","","","","","","","","","",""
"","S2","","html-keyboard-response","382","397805","0.0-1.0-535.0","0","0","61788","","null","","","null","59","","NaN","","","","","","","","","","","","","",""
"","response","","html-keyboard-response","383","398977","0.0-1.0-536.0-0.0","0","0","61788","","1165","","","68","59","","","2","59","training","adjacent","FG","6","7","M.jpg","N.jpg","1","1","1","",""
"","feedback","","html-keyboard-response","384","399982","0.0-1.0-537.0-0.0","0","0","61788","","null","","","null","59","","","","","","","","","","","","","","","",""
"","ITI","","html-keyboard-response","385","400990","0.0-1.0-540.0","0","0","61788","","null","","","null","59","","","","","","","","","","","","","","","NaN",""
"","S1","","html-keyboard-response","386","401250","0.0-1.0-542.0","0","0","61788","","null","","","null","60","","","","","","","","","","","","","","","",""
"","ISI","","html-keyboard-response","387","401757","0.0-1.0-543.0","0","0","61788","","null","","","null","60","NaN","","","","","","","","","","","","","","",""
"","S2","","html-keyboard-response","388","402016","0.0-1.0-544.0","0","0","61788","","null","","","null","60","","NaN","","","","","","","","","","","","","",""
"","response","","html-keyboard-response","389","402721","0.0-1.0-545.0-0.0","0","0","61788","","699","","","68","60","","","2","60","training","adjacent","DE","4","5","P.jpg","O.jpg","1","1","1","",""
"","feedback","","html-keyboard-response","390","403748","0.0-1.0-546.0-0.0","0","0","61788","","null","","","null","60","","","","","","","","","","","","","","","",""
"","ITI","","html-keyboard-response","391","404760","0.0-1.0-549.0","0","0","61788","","null","","","null","60","","","","","","","","","","","","","","","NaN",""
"","S1","","html-keyboard-response","392","405021","0.0-1.0-551.0","0","0","61788","","null","","","null","61","","","","","","","","","","","","","","","",""
"","ISI","","html-keyboard-response","393","405525","0.0-1.0-552.0","0","0","61788","","null","","","null","61","NaN","","","","","","","","","","","","","","",""
"","S2","","html-keyboard-response","394","405781","0.0-1.0-553.0","0","0","61788","","null","","","null","61","","NaN","","","","","","","","","","","","","",""
"","response","","html-keyboard-response","395","406788","0.0-1.0-554.0-0.0","0","0","61788","","1002","","","68","61","","","2","61","training","adjacent","CB","3","2","Q.jpg","L.jpg","1","0","0","",""
"","feedback","","html-keyboard-response","396","407798","0.0-1.0-555.0-0.0","0","0","61788","","null","","","null","61","","","","","","","","","","","","","","","",""
"","time_out","","html-keyboard-response","397","409809","0.0-1.0-557.0-0.0","0","0","61788","","null","","","null","61","","","","","","","","","","","","","","","",""
"","ITI","","html-keyboard-response","398","410815","0.0-1.0-558.0","0","0","61788","","null","","","null","61","","","","","","","","","","","","","","","NaN",""
"","S1","","html-keyboard-response","399","411112","0.0-1.0-560.0","0","0","61788","","null","","","null","62","","","","","","","","","","","","","","","",""
"","ISI","","html-keyboard-response","400","411639","0.0-1.0-561.0","0","0","61788","","null","","","null","62","NaN","","","","","","","","","","","","","","",""
"","S2","","html-keyboard-response","401","411912","0.0-1.0-562.0","0","0","61788","","null","","","null","62","","NaN","","","","","","","","","","","","","",""
"","response","","html-keyboard-response","402","412370","0.0-1.0-563.0-0.0","0","0","61788","","455","","","75","62","","","2","62","training","adjacent","DC","4","3","P.jpg","Q.jpg","0","0","1","",""
"","feedback","","html-keyboard-response","403","413385","0.0-1.0-564.0-0.0","0","0","61788","","null","","","null","62","","","","","","","","","","","","","","","",""
"","ITI","","html-keyboard-response","404","414390","0.0-1.0-567.0","0","0","61788","","null","","","null","62","","","","","","","","","","","","","","","NaN",""
"","S1","","html-keyboard-response","405","414655","0.0-1.0-569.0","0","0","61788","","null","","","null","63","","","","","","","","","","","","","","","",""
"","ISI","","html-keyboard-response","406","415164","0.0-1.0-570.0","0","0","61788","","null","","","null","63","NaN","","","","","","","","","","","","","","",""
"","S2","","html-keyboard-response","407","415421","0.0-1.0-571.0","0","0","61788","","null","","","null","63","","NaN","","","","","","","","","","","","","",""
"","response","","html-keyboard-response","408","416208","0.0-1.0-572.0-0.0","0","0","61788","","784","","","75","63","","","2","63","training","adjacent","GF","7","6","N.jpg","M.jpg","0","0","1","",""
"","feedback","","html-keyboard-response","409","417218","0.0-1.0-573.0-0.0","0","0","61788","","null","","","null","63","","","","","","","","","","","","","","","",""
"","ITI","","html-keyboard-response","410","418235","0.0-1.0-576.0","0","0","61788","","null","","","null","63","","","","","","","","","","","","","","","NaN",""
"","S1","","html-keyboard-response","411","418497","0.0-1.0-578.0","0","0","61788","","null","","","null","64","","","","","","","","","","","","","","","",""
"","ISI","","html-keyboard-response","412","419007","0.0-1.0-579.0","0","0","61788","","null","","","null","64","NaN","","","","","","","","","","","","","","",""
"","S2","","html-keyboard-response","413","419273","0.0-1.0-580.0","0","0","61788","","null","","","null","64","","NaN","","","","","","","","","","","","","",""
"","response","","html-keyboard-response","414","420304","0.0-1.0-581.0-0.0","0","0","61788","","1025","","","68","64","","","2","64","training","adjacent","ED","5","4","O.jpg","P.jpg","1","0","0","",""
"","feedback","","html-keyboard-response","415","421313","0.0-1.0-582.0-0.0","0","0","61788","","null","","","null","64","","","","","","","","","","","","","","","",""
"","time_out","","html-keyboard-response","416","423327","0.0-1.0-584.0-0.0","0","0","61788","","null","","","null","64","","","","","","","","","","","","","","","",""
"","ITI","","html-keyboard-response","417","424336","0.0-1.0-585.0","0","0","61788","","null","","","null","64","","","","","","","","","","","","","","","NaN",""
"","S1","","html-keyboard-response","418","424598","0.0-1.0-587.0","0","0","61788","","null","","","null","65","","","","","","","","","","","","","","","",""
"","ISI","","html-keyboard-response","419","425109","0.0-1.0-588.0","0","0","61788","","null","","","null","65","NaN","","","","","","","","","","","","","","",""
"","S2","","html-keyboard-response","420","425366","0.0-1.0-589.0","0","0","61788","","null","","","null","65","","NaN","","","","","","","","","","","","","",""
"","response","","html-keyboard-response","421","426150","0.0-1.0-590.0-0.0","0","0","61788","","780","","","75","65","","","2","65","training","adjacent","BA","2","1","L.jpg","R.jpg","0","0","1","",""
"","feedback","","html-keyboard-response","422","427167","0.0-1.0-591.0-0.0","0","0","61788","","null","","","null","65","","","","","","","","","","","","","","","",""
"","ITI","","html-keyboard-response","423","428193","0.0-1.0-594.0","0","0","61788","","null","","","null","65","","","","","","","","","","","","","","","NaN",""
"","S1","","html-keyboard-response","424","428527","0.0-1.0-596.0","0","0","61788","","null","","","null","66","","","","","","","","","","","","","","","",""
"","ISI","","html-keyboard-response","425","429044","0.0-1.0-597.0","0","0","61788","","null","","","null","66","NaN","","","","","","","","","","","","","","",""
"","S2","","html-keyboard-response","426","429306","0.0-1.0-598.0","0","0","61788","","null","","","null","66","","NaN","","","","","","","","","","","","","",""
"","response","","html-keyboard-response","427","430225","0.0-1.0-599.0-0.0","0","0","61788","","906","","","75","66","","","2","66","training","adjacent","DC","4","3","P.jpg","Q.jpg","0","0","1","",""
"","feedback","","html-keyboard-response","428","431239","0.0-1.0-600.0-0.0","0","0","61788","","null","","","null","66","","","","","","","","","","","","","","","",""
"","ITI","","html-keyboard-response","429","432258","0.0-1.0-603.0","0","0","61788","","null","","","null","66","","","","","","","","","","","","","","","NaN",""
"","S1","","html-keyboard-response","430","432519","0.0-1.0-605.0","0","0","61788","","null","","","null","67","","","","","","","","","","","","","","","",""
"","ISI","","html-keyboard-response","431","433021","0.0-1.0-606.0","0","0","61788","","null","","","null","67","NaN","","","","","","","","","","","","","","",""
"","S2","","html-keyboard-response","432","433304","0.0-1.0-607.0","0","0","61788","","null","","","null","67","","NaN","","","","","","","","","","","","","",""
"","response","","html-keyboard-response","433","434222","0.0-1.0-608.0-0.0","0","0","61788","","907","","","68","67","","","2","67","training","adjacent","FG","6","7","M.jpg","N.jpg","1","1","1","",""
"","feedback","","html-keyboard-response","434","435234","0.0-1.0-609.0-0.0","0","0","61788","","null","","","null","67","","","","","","","","","","","","","","","",""
"","ITI","","html-keyboard-response","435","436247","0.0-1.0-612.0","0","0","61788","","null","","","null","67","","","","","","","","","","","","","","","NaN",""
"","S1","","html-keyboard-response","436","436512","0.0-1.0-614.0","0","0","61788","","null","","","null","68","","","","","","","","","","","","","","","",""
"","ISI","","html-keyboard-response","437","437027","0.0-1.0-615.0","0","0","61788","","null","","","null","68","NaN","","","","","","","","","","","","","","",""
"","S2","","html-keyboard-response","438","437286","0.0-1.0-616.0","0","0","61788","","null","","","null","68","","NaN","","","","","","","","","","","","","",""
"","response","","html-keyboard-response","439","437794","0.0-1.0-617.0-0.0","0","0","61788","","503","","","75","68","","","2","68","training","adjacent","CD","3","4","Q.jpg","P.jpg","0","1","0","",""
"","feedback","","html-keyboard-response","440","438807","0.0-1.0-618.0-0.0","0","0","61788","","null","","","null","68","","","","","","","","","","","","","","","",""
"","time_out","","html-keyboard-response","441","440831","0.0-1.0-620.0-0.0","0","0","61788","","null","","","null","68","","","","","","","","","","","","","","","",""
"","ITI","","html-keyboard-response","442","441837","0.0-1.0-621.0","0","0","61788","","null","","","null","68","","","","","","","","","","","","","","","NaN",""
"","S1","","html-keyboard-response","443","442094","0.0-1.0-623.0","0","0","61788","","null","","","null","69","","","","","","","","","","","","","","","",""
"","ISI","","html-keyboard-response","444","442649","0.0-1.0-624.0","0","0","61788","","null","","","null","69","NaN","","","","","","","","","","","","","","",""
"","S2","","html-keyboard-response","445","442912","0.0-1.0-625.0","0","0","61788","","null","","","null","69","","NaN","","","","","","","","","","","","","",""
"","response","","html-keyboard-response","446","443606","0.0-1.0-626.0-0.0","0","0","61788","","690","","","68","69","","","2","69","training","adjacent","GF","7","6","N.jpg","M.jpg","1","0","0","",""
"","feedback","","html-keyboard-response","447","444615","0.0-1.0-627.0-0.0","0","0","61788","","null","","","null","69","","","","","","","","","","","","","","","",""
"","time_out","","html-keyboard-response","448","446622","0.0-1.0-629.0-0.0","0","0","61788","","null","","","null","69","","","","","","","","","","","","","","","",""
"","ITI","","html-keyboard-response","449","447630","0.0-1.0-630.0","0","0","61788","","null","","","null","69","","","","","","","","","","","","","","","NaN",""
"","S1","","html-keyboard-response","450","447885","0.0-1.0-632.0","0","0","61788","","null","","","null","70","","","","","","","","","","","","","","","",""
"","ISI","","html-keyboard-response","451","448390","0.0-1.0-633.0","0","0","61788","","null","","","null","70","NaN","","","","","","","","","","","","","","",""
"","S2","","html-keyboard-response","452","448644","0.0-1.0-634.0","0","0","61788","","null","","","null","70","","NaN","","","","","","","","","","","","","",""
"","response","","html-keyboard-response","453","449290","0.0-1.0-635.0-0.0","0","0","61788","","642","","","75","70","","","2","70","training","adjacent","DC","4","3","P.jpg","Q.jpg","0","0","1","",""
"","feedback","","html-keyboard-response","454","450303","0.0-1.0-636.0-0.0","0","0","61788","","null","","","null","70","","","","","","","","","","","","","","","",""
"","ITI","","html-keyboard-response","455","451311","0.0-1.0-639.0","0","0","61788","","null","","","null","70","","","","","","","","","","","","","","","NaN",""
"","S1","","html-keyboard-response","456","451574","0.0-1.0-641.0","0","0","61788","","null","","","null","71","","","","","","","","","","","","","","","",""
"","ISI","","html-keyboard-response","457","452078","0.0-1.0-642.0","0","0","61788","","null","","","null","71","NaN","","","","","","","","","","","","","","",""
"","S2","","html-keyboard-response","458","452349","0.0-1.0-643.0","0","0","61788","","null","","","null","71","","NaN","","","","","","","","","","","","","",""
"","response","","html-keyboard-response","459","453298","0.0-1.0-644.0-0.0","0","0","61788","","944","","","75","71","","","2","71","training","adjacent","AB","1","2","R.jpg","L.jpg","0","1","0","",""
"","feedback","","html-keyboard-response","460","454338","0.0-1.0-645.0-0.0","0","0","61788","","null","","","null","71","","","","","","","","","","","","","","","",""
"","time_out","","html-keyboard-response","461","456353","0.0-1.0-647.0-0.0","0","0","61788","","null","","","null","71","","","","","","","","","","","","","","","",""
"","ITI","","html-keyboard-response","462","457369","0.0-1.0-648.0","0","0","61788","","null","","","null","71","","","","","","","","","","","","","","","NaN",""
"","S1","","html-keyboard-response","463","457630","0.0-1.0-650.0","0","0","61788","","null","","","null","72","","","","","","","","","","","","","","","",""
"","ISI","","html-keyboard-response","464","458147","0.0-1.0-651.0","0","0","61788","","null","","","null","72","NaN","","","","","","","","","","","","","","",""
"","S2","","html-keyboard-response","465","458406","0.0-1.0-652.0","0","0","61788","","null","","","null","72","","NaN","","","","","","","","","","","","","",""
"","response","","html-keyboard-response","466","459001","0.0-1.0-653.0-0.0","0","0","61788","","589","","","68","72","","","2","72","training","adjacent","FG","6","7","M.jpg","N.jpg","1","1","1","",""
"","feedback","","html-keyboard-response","467","460014","0.0-1.0-654.0-0.0","0","0","61788","","null","","","null","72","","","","","","","","","","","","","","","",""
"","ITI","","html-keyboard-response","468","461023","0.0-1.0-657.0","0","0","61788","","null","","","null","72","","","","","","","","","","","","","","","NaN",""
"","S1","","html-keyboard-response","469","461278","0.0-1.0-659.0","0","0","61788","","null","","","null","73","","","","","","","","","","","","","","","",""
"","ISI","","html-keyboard-response","470","461782","0.0-1.0-660.0","0","0","61788","","null","","","null","73","NaN","","","","","","","","","","","","","","",""
"","S2","","html-keyboard-response","471","462038","0.0-1.0-661.0","0","0","61788","","null","","","null","73","","NaN","","","","","","","","","","","","","",""
"","response","","html-keyboard-response","472","462745","0.0-1.0-662.0-0.0","0","0","61788","","702","","","68","73","","","2","73","training","adjacent","EF","5","6","O.jpg","M.jpg","1","1","1","",""
"","feedback","","html-keyboard-response","473","463779","0.0-1.0-663.0-0.0","0","0","61788","","null","","","null","73","","","","","","","","","","","","","","","",""
"","ITI","","html-keyboard-response","474","464793","0.0-1.0-666.0","0","0","61788","","null","","","null","73","","","","","","","","","","","","","","","NaN",""
"","S1","","html-keyboard-response","475","465058","0.0-1.0-668.0","0","0","61788","","null","","","null","74","","","","","","","","","","","","","","","",""
"","ISI","","html-keyboard-response","476","465568","0.0-1.0-669.0","0","0","61788","","null","","","null","74","NaN","","","","","","","","","","","","","","",""
"","S2","","html-keyboard-response","477","465842","0.0-1.0-670.0","0","0","61788","","null","","","null","74","","NaN","","","","","","","","","","","","","",""
"","response","","html-keyboard-response","478","466551","0.0-1.0-671.0-0.0","0","0","61788","","705","","","75","74","","","2","74","training","adjacent","AB","1","2","R.jpg","L.jpg","0","1","0","",""
"","feedback","","html-keyboard-response","479","467559","0.0-1.0-672.0-0.0","0","0","61788","","null","","","null","74","","","","","","","","","","","","","","","",""
"","time_out","","html-keyboard-response","480","469566","0.0-1.0-674.0-0.0","0","0","61788","","null","","","null","74","","","","","","","","","","","","","","","",""
"","ITI","","html-keyboard-response","481","470604","0.0-1.0-675.0","0","0","61788","","null","","","null","74","","","","","","","","","","","","","","","NaN",""
"","S1","","html-keyboard-response","482","470869","0.0-1.0-677.0","0","0","61788","","null","","","null","75","","","","","","","","","","","","","","","",""
"","ISI","","html-keyboard-response","483","471375","0.0-1.0-678.0","0","0","61788","","null","","","null","75","NaN","","","","","","","","","","","","","","",""
"","S2","","html-keyboard-response","484","471644","0.0-1.0-679.0","0","0","61788","","null","","","null","75","","NaN","","","","","","","","","","","","","",""
"","response","","html-keyboard-response","485","472427","0.0-1.0-680.0-0.0","0","0","61788","","776","","","68","75","","","2","75","training","adjacent","FE","6","5","M.jpg","O.jpg","1","0","0","",""
"","feedback","","html-keyboard-response","486","473439","0.0-1.0-681.0-0.0","0","0","61788","","null","","","null","75","","","","","","","","","","","","","","","",""
"","time_out","","html-keyboard-response","487","475457","0.0-1.0-683.0-0.0","0","0","61788","","null","","","null","75","","","","","","","","","","","","","","","",""
"","ITI","","html-keyboard-response","488","476463","0.0-1.0-684.0","0","0","61788","","null","","","null","75","","","","","","","","","","","","","","","NaN",""
"","S1","","html-keyboard-response","489","476724","0.0-1.0-686.0","0","0","61788","","null","","","null","76","","","","","","","","","","","","","","","",""
"","ISI","","html-keyboard-response","490","477231","0.0-1.0-687.0","0","0","61788","","null","","","null","76","NaN","","","","","","","","","","","","","","",""
"","S2","","html-keyboard-response","491","477488","0.0-1.0-688.0","0","0","61788","","null","","","null","76","","NaN","","","","","","","","","","","","","",""
"","response","","html-keyboard-response","492","478153","0.0-1.0-689.0-0.0","0","0","61788","","659","","","75","76","","","2","76","training","adjacent","BC","2","3","L.jpg","Q.jpg","0","1","0","",""
"","feedback","","html-keyboard-response","493","479165","0.0-1.0-690.0-0.0","0","0","61788","","null","","","null","76","","","","","","","","","","","","","","","",""
"","time_out","","html-keyboard-response","494","481178","0.0-1.0-692.0-0.0","0","0","61788","","null","","","null","76","","","","","","","","","","","","","","","",""
"","ITI","","html-keyboard-response","495","482206","0.0-1.0-693.0","0","0","61788","","null","","","null","76","","","","","","","","","","","","","","","NaN",""
"","S1","","html-keyboard-response","496","482461","0.0-1.0-695.0","0","0","61788","","null","","","null","77","","","","","","","","","","","","","","","",""
"","ISI","","html-keyboard-response","497","482967","0.0-1.0-696.0","0","0","61788","","null","","","null","77","NaN","","","","","","","","","","","","","","",""
"","S2","","html-keyboard-response","498","483226","0.0-1.0-697.0","0","0","61788","","null","","","null","77","","NaN","","","","","","","","","","","","","",""
"","response","","html-keyboard-response","499","483999","0.0-1.0-698.0-0.0","0","0","61788","","765","","","75","77","","","2","77","training","adjacent","AB","1","2","R.jpg","L.jpg","0","1","0","",""
"","feedback","","html-keyboard-response","500","485005","0.0-1.0-699.0-0.0","0","0","61788","","null","","","null","77","","","","","","","","","","","","","","","",""
"","time_out","","html-keyboard-response","501","487018","0.0-1.0-701.0-0.0","0","0","61788","","null","","","null","77","","","","","","","","","","","","","","","",""
"","ITI","","html-keyboard-response","502","488032","0.0-1.0-702.0","0","0","61788","","null","","","null","77","","","","","","","","","","","","","","","NaN",""
"","S1","","html-keyboard-response","503","488294","0.0-1.0-704.0","0","0","61788","","null","","","null","78","","","","","","","","","","","","","","","",""
"","ISI","","html-keyboard-response","504","488800","0.0-1.0-705.0","0","0","61788","","null","","","null","78","NaN","","","","","","","","","","","","","","",""
"","S2","","html-keyboard-response","505","489060","0.0-1.0-706.0","0","0","61788","","null","","","null","78","","NaN","","","","","","","","","","","","","",""
"","response","","html-keyboard-response","506","490061","0.0-1.0-707.0-0.0","0","0","61788","","996","","","75","78","","","2","78","training","adjacent","FE","6","5","M.jpg","O.jpg","0","0","1","",""
"","feedback","","html-keyboard-response","507","491081","0.0-1.0-708.0-0.0","0","0","61788","","null","","","null","78","","","","","","","","","","","","","","","",""
"","ITI","","html-keyboard-response","508","492095","0.0-1.0-711.0","0","0","61788","","null","","","null","78","","","","","","","","","","","","","","","NaN",""
"","S1","","html-keyboard-response","509","492386","0.0-1.0-713.0","0","0","61788","","null","","","null","79","","","","","","","","","","","","","","","",""
"","ISI","","html-keyboard-response","510","492893","0.0-1.0-714.0","0","0","61788","","null","","","null","79","NaN","","","","","","","","","","","","","","",""
"","S2","","html-keyboard-response","511","493156","0.0-1.0-715.0","0","0","61788","","null","","","null","79","","NaN","","","","","","","","","","","","","",""
"","response","","html-keyboard-response","512","493865","0.0-1.0-716.0-0.0","0","0","61788","","704","","","68","79","","","2","79","training","adjacent","GF","7","6","N.jpg","M.jpg","1","0","0","",""
"","feedback","","html-keyboard-response","513","494873","0.0-1.0-717.0-0.0","0","0","61788","","null","","","null","79","","","","","","","","","","","","","","","",""
"","time_out","","html-keyboard-response","514","497045","0.0-1.0-719.0-0.0","0","0","61788","","null","","","null","79","","","","","","","","","","","","","","","",""
"","ITI","","html-keyboard-response","515","498063","0.0-1.0-720.0","0","0","61788","","null","","","null","79","","","","","","","","","","","","","","","NaN",""
"","S1","","html-keyboard-response","516","498318","0.0-1.0-722.0","0","0","61788","","null","","","null","80","","","","","","","","","","","","","","","",""
"","ISI","","html-keyboard-response","517","498824","0.0-1.0-723.0","0","0","61788","","null","","","null","80","NaN","","","","","","","","","","","","","","",""
"","S2","","html-keyboard-response","518","499086","0.0-1.0-724.0","0","0","61788","","null","","","null","80","","NaN","","","","","","","","","","","","","",""
"","response","","html-keyboard-response","519","499824","0.0-1.0-725.0-0.0","0","0","61788","","730","","","68","80","","","2","80","training","adjacent","DE","4","5","P.jpg","O.jpg","1","1","1","",""
"","feedback","","html-keyboard-response","520","500838","0.0-1.0-726.0-0.0","0","0","61788","","null","","","null","80","","","","","","","","","","","","","","","",""
"","ITI","","html-keyboard-response","521","501878","0.0-1.0-729.0","0","0","61788","","null","","","null","80","","","","","","","","","","","","","","","NaN",""
"","S1","","html-keyboard-response","522","502160","0.0-1.0-731.0","0","0","61788","","null","","","null","81","","","","","","","","","","","","","","","",""
"","ISI","","html-keyboard-response","523","502673","0.0-1.0-732.0","0","0","61788","","null","","","null","81","NaN","","","","","","","","","","","","","","",""
"","S2","","html-keyboard-response","524","502935","0.0-1.0-733.0","0","0","61788","","null","","","null","81","","NaN","","","","","","","","","","","","","",""
"","response","","html-keyboard-response","525","503507","0.0-1.0-734.0-0.0","0","0","61788","","560","","","75","81","","","2","81","training","adjacent","EF","5","6","O.jpg","M.jpg","0","1","0","",""
"","feedback","","html-keyboard-response","526","504519","0.0-1.0-735.0-0.0","0","0","61788","","null","","","null","81","","","","","","","","","","","","","","","",""
"","time_out","","html-keyboard-response","527","506529","0.0-1.0-737.0-0.0","0","0","61788","","null","","","null","81","","","","","","","","","","","","","","","",""
"","ITI","","html-keyboard-response","528","507535","0.0-1.0-738.0","0","0","61788","","null","","","null","81","","","","","","","","","","","","","","","NaN",""
"","S1","","html-keyboard-response","529","507788","0.0-1.0-740.0","0","0","61788","","null","","","null","82","","","","","","","","","","","","","","","",""
"","ISI","","html-keyboard-response","530","508296","0.0-1.0-741.0","0","0","61788","","null","","","null","82","NaN","","","","","","","","","","","","","","",""
"","S2","","html-keyboard-response","531","508558","0.0-1.0-742.0","0","0","61788","","null","","","null","82","","NaN","","","","","","","","","","","","","",""
"","response","","html-keyboard-response","532","509439","0.0-1.0-743.0-0.0","0","0","61788","","873","","","68","82","","","2","82","training","adjacent","ED","5","4","O.jpg","P.jpg","1","0","0","",""
"","feedback","","html-keyboard-response","533","510448","0.0-1.0-744.0-0.0","0","0","61788","","null","","","null","82","","","","","","","","","","","","","","","",""
"","time_out","","html-keyboard-response","534","512468","0.0-1.0-746.0-0.0","0","0","61788","","null","","","null","82","","","","","","","","","","","","","","","",""
"","ITI","","html-keyboard-response","535","513478","0.0-1.0-747.0","0","0","61788","","null","","","null","82","","","","","","","","","","","","","","","NaN",""
"","S1","","html-keyboard-response","536","513734","0.0-1.0-749.0","0","0","61788","","null","","","null","83","","","","","","","","","","","","","","","",""
"","ISI","","html-keyboard-response","537","514239","0.0-1.0-750.0","0","0","61788","","null","","","null","83","NaN","","","","","","","","","","","","","","",""
"","S2","","html-keyboard-response","538","514504","0.0-1.0-751.0","0","0","61788","","null","","","null","83","","NaN","","","","","","","","","","","","","",""
"","response","","html-keyboard-response","539","515119","0.0-1.0-752.0-0.0","0","0","61788","","608","","","75","83","","","2","83","training","adjacent","GF","7","6","N.jpg","M.jpg","0","0","1","",""
"","feedback","","html-keyboard-response","540","516145","0.0-1.0-753.0-0.0","0","0","61788","","null","","","null","83","","","","","","","","","","","","","","","",""
"","ITI","","html-keyboard-response","541","517183","0.0-1.0-756.0","0","0","61788","","null","","","null","83","","","","","","","","","","","","","","","NaN",""
"","S1","","html-keyboard-response","542","517438","0.0-1.0-758.0","0","0","61788","","null","","","null","84","","","","","","","","","","","","","","","",""
"","ISI","","html-keyboard-response","543","517944","0.0-1.0-759.0","0","0","61788","","null","","","null","84","NaN","","","","","","","","","","","","","","",""
"","S2","","html-keyboard-response","544","518207","0.0-1.0-760.0","0","0","61788","","null","","","null","84","","NaN","","","","","","","","","","","","","",""
"","response","","html-keyboard-response","545","518733","0.0-1.0-761.0-0.0","0","0","61788","","522","","","75","84","","","2","84","training","adjacent","DC","4","3","P.jpg","Q.jpg","0","0","1","",""
"","feedback","","html-keyboard-response","546","519745","0.0-1.0-762.0-0.0","0","0","61788","","null","","","null","84","","","","","","","","","","","","","","","",""
"","ITI","","html-keyboard-response","547","520767","0.0-1.0-765.0","0","0","61788","","null","","","null","84","","","","","","","","","","","","","","","NaN",""
"","S1","","html-keyboard-response","548","521022","0.0-1.0-767.0","0","0","61788","","null","","","null","85","","","","","","","","","","","","","","","",""
"","ISI","","html-keyboard-response","549","521529","0.0-1.0-768.0","0","0","61788","","null","","","null","85","NaN","","","","","","","","","","","","","","",""
"","S2","","html-keyboard-response","550","521792","0.0-1.0-769.0","0","0","61788","","null","","","null","85","","NaN","","","","","","","","","","","","","",""
"","response","","html-keyboard-response","551","522640","0.0-1.0-770.0-0.0","0","0","61788","","841","","","75","85","","","2","85","training","adjacent","DE","4","5","P.jpg","O.jpg","0","1","0","",""
"","feedback","","html-keyboard-response","552","523694","0.0-1.0-771.0-0.0","0","0","61788","","null","","","null","85","","","","","","","","","","","","","","","",""
"","time_out","","html-keyboard-response","553","525704","0.0-1.0-773.0-0.0","0","0","61788","","null","","","null","85","","","","","","","","","","","","","","","",""
"","ITI","","html-keyboard-response","554","526720","0.0-1.0-774.0","0","0","61788","","null","","","null","85","","","","","","","","","","","","","","","NaN",""
"","S1","","html-keyboard-response","555","526982","0.0-1.0-776.0","0","0","61788","","null","","","null","86","","","","","","","","","","","","","","","",""
"","ISI","","html-keyboard-response","556","527488","0.0-1.0-777.0","0","0","61788","","null","","","null","86","NaN","","","","","","","","","","","","","","",""
"","S2","","html-keyboard-response","557","527750","0.0-1.0-778.0","0","0","61788","","null","","","null","86","","NaN","","","","","","","","","","","","","",""
"","response","","html-keyboard-response","558","528738","0.0-1.0-779.0-0.0","0","0","61788","","983","","","68","86","","","2","86","training","adjacent","FG","6","7","M.jpg","N.jpg","1","1","1","",""
"","feedback","","html-keyboard-response","559","529752","0.0-1.0-780.0-0.0","0","0","61788","","null","","","null","86","","","","","","","","","","","","","","","",""
"","ITI","","html-keyboard-response","560","530761","0.0-1.0-783.0","0","0","61788","","null","","","null","86","","","","","","","","","","","","","","","NaN",""
"","S1","","html-keyboard-response","561","531028","0.0-1.0-785.0","0","0","61788","","null","","","null","87","","","","","","","","","","","","","","","",""
"","ISI","","html-keyboard-response","562","531541","0.0-1.0-786.0","0","0","61788","","null","","","null","87","NaN","","","","","","","","","","","","","","",""
"","S2","","html-keyboard-response","563","531810","0.0-1.0-787.0","0","0","61788","","null","","","null","87","","NaN","","","","","","","","","","","","","",""
"","response","","html-keyboard-response","564","533047","0.0-1.0-788.0-0.0","0","0","61788","","1231","","","68","87","","","2","87","training","adjacent","ED","5","4","O.jpg","P.jpg","1","0","0","",""
"","feedback","","html-keyboard-response","565","534094","0.0-1.0-789.0-0.0","0","0","61788","","null","","","null","87","","","","","","","","","","","","","","","",""
"","time_out","","html-keyboard-response","566","536103","0.0-1.0-791.0-0.0","0","0","61788","","null","","","null","87","","","","","","","","","","","","","","","",""
"","ITI","","html-keyboard-response","567","537131","0.0-1.0-792.0","0","0","61788","","null","","","null","87","","","","","","","","","","","","","","","NaN",""
"","S1","","html-keyboard-response","568","537396","0.0-1.0-794.0","0","0","61788","","null","","","null","88","","","","","","","","","","","","","","","",""
"","ISI","","html-keyboard-response","569","537900","0.0-1.0-795.0","0","0","61788","","null","","","null","88","NaN","","","","","","","","","","","","","","",""
"","S2","","html-keyboard-response","570","538171","0.0-1.0-796.0","0","0","61788","","null","","","null","88","","NaN","","","","","","","","","","","","","",""
"","response","","html-keyboard-response","571","538782","0.0-1.0-797.0-0.0","0","0","61788","","607","","","68","88","","","2","88","training","adjacent","ED","5","4","O.jpg","P.jpg","1","0","0","",""
"","feedback","","html-keyboard-response","572","539796","0.0-1.0-798.0-0.0","0","0","61788","","null","","","null","88","","","","","","","","","","","","","","","",""
"","time_out","","html-keyboard-response","573","541809","0.0-1.0-800.0-0.0","0","0","61788","","null","","","null","88","","","","","","","","","","","","","","","",""
"","ITI","","html-keyboard-response","574","542820","0.0-1.0-801.0","0","0","61788","","null","","","null","88","","","","","","","","","","","","","","","NaN",""
"","S1","","html-keyboard-response","575","543077","0.0-1.0-803.0","0","0","61788","","null","","","null","89","","","","","","","","","","","","","","","",""
"","ISI","","html-keyboard-response","576","543615","0.0-1.0-804.0","0","0","61788","","null","","","null","89","NaN","","","","","","","","","","","","","","",""
"","S2","","html-keyboard-response","577","543878","0.0-1.0-805.0","0","0","61788","","null","","","null","89","","NaN","","","","","","","","","","","","","",""
"","response","","html-keyboard-response","578","544683","0.0-1.0-806.0-0.0","0","0","61788","","799","","","75","89","","","2","89","training","adjacent","BA","2","1","L.jpg","R.jpg","0","0","1","",""
"","feedback","","html-keyboard-response","579","545696","0.0-1.0-807.0-0.0","0","0","61788","","null","","","null","89","","","","","","","","","","","","","","","",""
"","ITI","","html-keyboard-response","580","546701","0.0-1.0-810.0","0","0","61788","","null","","","null","89","","","","","","","","","","","","","","","NaN",""
"","S1","","html-keyboard-response","581","546957","0.0-1.0-812.0","0","0","61788","","null","","","null","90","","","","","","","","","","","","","","","",""
"","ISI","","html-keyboard-response","582","547461","0.0-1.0-813.0","0","0","61788","","null","","","null","90","NaN","","","","","","","","","","","","","","",""
