"success","ttype","start_time","trial_type","trial_index","time_elapsed","internal_node_id","warning","missed_checkup","PID","view_history","rt","responses","repeat_instructions","key_press","index","keypress_isi","keypress_S2","block","trial_num","phase","group_type","pair_type","S1_stim","S2_stim","S1_img","S2_img","S1_chosen","S1_higher","accuracy","keypress_iti","total_bonus_tally"
"true","full_screen","d08012022hr1924","fullscreen","0","21907","0.0-0.0","0","0","87068","","","","","","","","","","","","","","","","","","","","","",""
"","instructions","","instructions","1","176242","0.0-1.0-0.0-0.0","0","0","87068","[{""page_index"":0,""viewing_time"":123532},{""page_index"":1,""viewing_time"":16630},{""page_index"":2,""viewing_time"":12262},{""page_index"":3,""viewing_time"":1896}]","154321","","","","","","","","","","","","","","","","","","","",""
"","comprehension_check","","survey-multi-choice","2","200496","0.0-1.0-0.0-1.0","0","0","87068","","24245","{""Q0"":""True"",""Q1"":""D"",""Q2"":""While the images are shown"",""Q3"":""Green mark"",""Q4"":""either D or K""}","1","","","","","","","","","","","","","","","","","",""
"","missed_instruction_checkup","","html-keyboard-response","3","203090","0.0-1.0-0.0-2.0-0.0","0","1","87068","","2582","","","32","","","","","","","","","","","","","","","","",""
"","instructions","","instructions","4","224483","0.0-1.0-0.1-0.1","0","0","87068","[{""page_index"":0,""viewing_time"":11396},{""page_index"":1,""viewing_time"":6192},{""page_index"":2,""viewing_time"":2881},{""page_index"":3,""viewing_time"":921}]","21390","","","","","","","","","","","","","","","","","","","",""
"","comprehension_check","","survey-multi-choice","5","253607","0.0-1.0-0.1-1.1","0","0","87068","","29115","{""Q0"":""False"",""Q1"":""D"",""Q2"":""When you see the prompt 'MAKE A CHOICE' after the second image was presented"",""Q3"":""Green mark"",""Q4"":""either D or K""}","1","","","","","","","","","","","","","","","","","",""
"","missed_instruction_checkup","","html-keyboard-response","6","255875","0.0-1.0-0.1-2.1-0.1","0","1","87068","","2263","","","32","","","","","","","","","","","","","","","","",""
"","instructions","","instructions","7","260162","0.0-1.0-0.2-0.2","0","0","87068","[{""page_index"":0,""viewing_time"":1494},{""page_index"":1,""viewing_time"":882},{""page_index"":2,""viewing_time"":826},{""page_index"":3,""viewing_time"":1082}]","4285","","","","","","","","","","","","","","","","","","","",""
"","comprehension_check","","survey-multi-choice","8","281327","0.0-1.0-0.2-1.2","0","0","87068","","21153","{""Q0"":""True"",""Q1"":""D"",""Q2"":""When you see the prompt 'MAKE A CHOICE' after the second image was presented"",""Q3"":""Green mark"",""Q4"":""either D or K""}","0","","","","","","","","","","","","","","","","","",""
"","start_exp","","html-keyboard-response","9","282832","0.0-1.0-1.0","0","0","87068","","1502","","","32","","","","","","","","","","","","","","","","",""
"","S1","","html-keyboard-response","10","283086","0.0-1.0-2.0","0","0","87068","","null","","","null","0","","","","","","","","","","","","","","","",""
"","ISI","","html-keyboard-response","11","285088","0.0-1.0-3.0","0","0","87068","","null","","","null","0","NaN","","","","","","","","","","","","","","",""
"","S2","","html-keyboard-response","12","285345","0.0-1.0-4.0","0","0","87068","","null","","","null","0","","NaN","","","","","","","","","","","","","",""
"","response","","html-keyboard-response","13","287022","0.0-1.0-5.0","0","0","87068","","1674","","","68","0","","","1","0","training","adjacent","FE","6","5","O.jpg","L.jpg","1","0","0","",""
"","feedback","","html-keyboard-response","14","288027","0.0-1.0-6.0-0.0","0","0","87068","","null","","","null","0","","","","","","","","","","","","","","","",""
"","time_out","","html-keyboard-response","15","290030","0.0-1.0-8.0-0.0","0","0","87068","","null","","","null","0","","","","","","","","","","","","","","","",""
"","ITI","","html-keyboard-response","16","291034","0.0-1.0-9.0","0","0","87068","","null","","","null","0","","","","","","","","","","","","","","","NaN",""
"","S1","","html-keyboard-response","17","291288","0.0-1.0-11.0","0","0","87068","","null","","","null","1","","","","","","","","","","","","","","","",""
"","ISI","","html-keyboard-response","18","293291","0.0-1.0-12.0","0","0","87068","","null","","","null","1","NaN","","","","","","","","","","","","","","",""
"","S2","","html-keyboard-response","19","293547","0.0-1.0-13.0","0","0","87068","","null","","","null","1","","NaN","","","","","","","","","","","","","",""
"","response","","html-keyboard-response","20","294871","0.0-1.0-14.0","0","0","87068","","1321","","","75","1","","","1","1","training","adjacent","BA","2","1","R.jpg","P.jpg","0","0","1","",""
"","feedback","","html-keyboard-response","21","295874","0.0-1.0-15.0-0.0","0","0","87068","","null","","","null","1","","","","","","","","","","","","","","","",""
"","ITI","","html-keyboard-response","22","296879","0.0-1.0-18.0","0","0","87068","","null","","","null","1","","","","","","","","","","","","","","","NaN",""
"","S1","","html-keyboard-response","23","297135","0.0-1.0-20.0","0","0","87068","","null","","","null","2","","","","","","","","","","","","","","","",""
"","ISI","","html-keyboard-response","24","299139","0.0-1.0-21.0","0","0","87068","","null","","","null","2","NaN","","","","","","","","","","","","","","",""
"","S2","","html-keyboard-response","25","299393","0.0-1.0-22.0","0","0","87068","","null","","","null","2","","NaN","","","","","","","","","","","","","",""
"","response","","html-keyboard-response","26","300237","0.0-1.0-23.0","0","0","87068","","842","","","68","2","","","1","2","training","adjacent","FG","6","7","O.jpg","N.jpg","1","1","1","",""
"","feedback","","html-keyboard-response","27","301245","0.0-1.0-24.0-0.0","0","0","87068","","null","","","null","2","","","","","","","","","","","","","","","",""
"","ITI","","html-keyboard-response","28","302249","0.0-1.0-27.0","0","0","87068","","null","","","null","2","","","","","","","","","","","","","","","NaN",""
"","S1","","html-keyboard-response","29","302505","0.0-1.0-29.0","0","0","87068","","null","","","null","3","","","","","","","","","","","","","","","",""
"","ISI","","html-keyboard-response","30","304508","0.0-1.0-30.0","0","0","87068","","null","","","null","3","NaN","","","","","","","","","","","","","","",""
"","S2","","html-keyboard-response","31","304762","0.0-1.0-31.0","0","0","87068","","null","","","null","3","","NaN","","","","","","","","","","","","","",""
"","response","","html-keyboard-response","32","305848","0.0-1.0-32.0","0","0","87068","","1084","","","68","3","","","1","3","training","adjacent","BA","2","1","R.jpg","P.jpg","1","0","0","",""
"","feedback","","html-keyboard-response","33","306855","0.0-1.0-33.0-0.0","0","0","87068","","null","","","null","3","","","","","","","","","","","","","","","",""
"","time_out","","html-keyboard-response","34","308861","0.0-1.0-35.0-0.0","0","0","87068","","null","","","null","3","","","","","","","","","","","","","","","",""
"","ITI","","html-keyboard-response","35","309866","0.0-1.0-36.0","0","0","87068","","null","","","null","3","","","","","","","","","","","","","","","NaN",""
"","S1","","html-keyboard-response","36","310120","0.0-1.0-38.0","0","0","87068","","null","","","null","4","","","","","","","","","","","","","","","",""
"","ISI","","html-keyboard-response","37","312123","0.0-1.0-39.0","0","0","87068","","null","","","null","4","NaN","","","","","","","","","","","","","","",""
"","S2","","html-keyboard-response","38","312379","0.0-1.0-40.0","0","0","87068","","null","","","null","4","","NaN","","","","","","","","","","","","","",""
"","response","","html-keyboard-response","39","312998","0.0-1.0-41.0","0","0","87068","","617","","","75","4","","","1","4","training","adjacent","DC","4","3","Q.jpg","M.jpg","0","0","1","",""
"","feedback","","html-keyboard-response","40","314004","0.0-1.0-42.0-0.0","0","0","87068","","null","","","null","4","","","","","","","","","","","","","","","",""
"","ITI","","html-keyboard-response","41","315008","0.0-1.0-45.0","0","0","87068","","null","","","null","4","","","","","","","","","","","","","","","NaN",""
"","S1","","html-keyboard-response","42","315265","0.0-1.0-47.0","0","0","87068","","null","","","null","5","","","","","","","","","","","","","","","",""
"","ISI","","html-keyboard-response","43","317269","0.0-1.0-48.0","0","0","87068","","null","","","null","5","NaN","","","","","","","","","","","","","","",""
"","S2","","html-keyboard-response","44","317522","0.0-1.0-49.0","0","0","87068","","null","","","null","5","","NaN","","","","","","","","","","","","","",""
"","response","","html-keyboard-response","45","318340","0.0-1.0-50.0","0","0","87068","","815","","","68","5","","","1","5","training","adjacent","DC","4","3","Q.jpg","M.jpg","1","0","0","",""
"","feedback","","html-keyboard-response","46","319345","0.0-1.0-51.0-0.0","0","0","87068","","null","","","null","5","","","","","","","","","","","","","","","",""
"","time_out","","html-keyboard-response","47","321348","0.0-1.0-53.0-0.0","0","0","87068","","null","","","null","5","","","","","","","","","","","","","","","",""
"","ITI","","html-keyboard-response","48","322352","0.0-1.0-54.0","0","0","87068","","null","","","null","5","","","","","","","","","","","","","","","NaN",""
"","S1","","html-keyboard-response","49","322607","0.0-1.0-56.0","0","0","87068","","null","","","null","6","","","","","","","","","","","","","","","",""
"","ISI","","html-keyboard-response","50","324610","0.0-1.0-57.0","0","0","87068","","null","","","null","6","NaN","","","","","","","","","","","","","","",""
"","S2","","html-keyboard-response","51","324865","0.0-1.0-58.0","0","0","87068","","null","","","null","6","","NaN","","","","","","","","","","","","","",""
"","response","","html-keyboard-response","52","325732","0.0-1.0-59.0","0","0","87068","","865","","","68","6","","","1","6","training","adjacent","CB","3","2","M.jpg","R.jpg","1","0","0","",""
"","feedback","","html-keyboard-response","53","326737","0.0-1.0-60.0-0.0","0","0","87068","","null","","","null","6","","","","","","","","","","","","","","","",""
"","time_out","","html-keyboard-response","54","328743","0.0-1.0-62.0-0.0","0","0","87068","","null","","","null","6","","","","","","","","","","","","","","","",""
"","ITI","","html-keyboard-response","55","329748","0.0-1.0-63.0","0","0","87068","","null","","","null","6","","","","","","","","","","","","","","","NaN",""
"","S1","","html-keyboard-response","56","330003","0.0-1.0-65.0","0","0","87068","","null","","","null","7","","","","","","","","","","","","","","","",""
"","ISI","","html-keyboard-response","57","332006","0.0-1.0-66.0","0","0","87068","","null","","","null","7","NaN","","","","","","","","","","","","","","",""
"","S2","","html-keyboard-response","58","332262","0.0-1.0-67.0","0","0","87068","","null","","","null","7","","NaN","","","","","","","","","","","","","",""
"","response","","html-keyboard-response","59","332851","0.0-1.0-68.0","0","0","87068","","587","","","68","7","","","1","7","training","adjacent","DE","4","5","Q.jpg","L.jpg","1","1","1","",""
"","feedback","","html-keyboard-response","60","333853","0.0-1.0-69.0-0.0","0","0","87068","","null","","","null","7","","","","","","","","","","","","","","","",""
"","ITI","","html-keyboard-response","61","334856","0.0-1.0-72.0","0","0","87068","","null","","","null","7","","","","","","","","","","","","","","","NaN",""
"","S1","","html-keyboard-response","62","335112","0.0-1.0-74.0","0","0","87068","","null","","","null","8","","","","","","","","","","","","","","","",""
"","ISI","","html-keyboard-response","63","337114","0.0-1.0-75.0","0","0","87068","","null","","","null","8","NaN","","","","","","","","","","","","","","",""
"","S2","","html-keyboard-response","64","337370","0.0-1.0-76.0","0","0","87068","","null","","","null","8","","NaN","","","","","","","","","","","","","",""
"","response","","html-keyboard-response","65","337433","0.0-1.0-77.0","0","0","87068","","60","","","75","8","","","1","8","training","adjacent","ED","5","4","L.jpg","Q.jpg","0","0","1","",""
"","feedback","","html-keyboard-response","66","338439","0.0-1.0-78.0-0.0","0","0","87068","","null","","","null","8","","","","","","","","","","","","","","","",""
"","ITI","","html-keyboard-response","67","339443","0.0-1.0-81.0","0","0","87068","","null","","","null","8","","","","","","","","","","","","","","","NaN",""
"","S1","","html-keyboard-response","68","339698","0.0-1.0-83.0","0","0","87068","","null","","","null","9","","","","","","","","","","","","","","","",""
"","ISI","","html-keyboard-response","69","341701","0.0-1.0-84.0","0","0","87068","","null","","","null","9","NaN","","","","","","","","","","","","","","",""
"","S2","","html-keyboard-response","70","341956","0.0-1.0-85.0","0","0","87068","","null","","","null","9","","NaN","","","","","","","","","","","","","",""
"","response","","html-keyboard-response","71","342384","0.0-1.0-86.0","0","0","87068","","425","","","75","9","","","1","9","training","adjacent","FE","6","5","O.jpg","L.jpg","0","0","1","",""
"","feedback","","html-keyboard-response","72","343389","0.0-1.0-87.0-0.0","0","0","87068","","null","","","null","9","","","","","","","","","","","","","","","",""
"","ITI","","html-keyboard-response","73","344394","0.0-1.0-90.0","0","0","87068","","null","","","null","9","","","","","","","","","","","","","","","NaN",""
"","S1","","html-keyboard-response","74","344649","0.0-1.0-92.0","0","0","87068","","null","","","null","10","","","","","","","","","","","","","","","",""
"","ISI","","html-keyboard-response","75","346652","0.0-1.0-93.0","0","0","87068","","null","","","null","10","NaN","","","","","","","","","","","","","","",""
"","S2","","html-keyboard-response","76","346908","0.0-1.0-94.0","0","0","87068","","null","","","null","10","","NaN","","","","","","","","","","","","","",""
"","response","","html-keyboard-response","77","348092","0.0-1.0-95.0","0","0","87068","","1181","","","68","10","","","1","10","training","adjacent","GF","7","6","N.jpg","O.jpg","1","0","0","",""
"","feedback","","html-keyboard-response","78","349096","0.0-1.0-96.0-0.0","0","0","87068","","null","","","null","10","","","","","","","","","","","","","","","",""
"","time_out","","html-keyboard-response","79","351099","0.0-1.0-98.0-0.0","0","0","87068","","null","","","null","10","","","","","","","","","","","","","","","",""
"","ITI","","html-keyboard-response","80","352104","0.0-1.0-99.0","0","0","87068","","null","","","null","10","","","","","","","","","","","","","","","NaN",""
"","S1","","html-keyboard-response","81","352359","0.0-1.0-101.0","0","0","87068","","null","","","null","11","","","","","","","","","","","","","","","",""
"","ISI","","html-keyboard-response","82","354363","0.0-1.0-102.0","0","0","87068","","null","","","null","11","NaN","","","","","","","","","","","","","","",""
"","S2","","html-keyboard-response","83","354617","0.0-1.0-103.0","0","0","87068","","null","","","null","11","","NaN","","","","","","","","","","","","","",""
"","response","","html-keyboard-response","84","354724","0.0-1.0-104.0","0","0","87068","","106","","","68","11","","","1","11","training","adjacent","CB","3","2","M.jpg","R.jpg","1","0","0","",""
"","feedback","","html-keyboard-response","85","355727","0.0-1.0-105.0-0.0","0","0","87068","","null","","","null","11","","","","","","","","","","","","","","","",""
"","time_out","","html-keyboard-response","86","357729","0.0-1.0-107.0-0.0","0","0","87068","","null","","","null","11","","","","","","","","","","","","","","","",""
"","ITI","","html-keyboard-response","87","358733","0.0-1.0-108.0","0","0","87068","","null","","","null","11","","","","","","","","","","","","","","","NaN",""
"","S1","","html-keyboard-response","88","358989","0.0-1.0-110.0","0","0","87068","","null","","","null","12","","","","","","","","","","","","","","","",""
"","ISI","","html-keyboard-response","89","360992","0.0-1.0-111.0","0","0","87068","","null","","","null","12","NaN","","","","","","","","","","","","","","",""
"","S2","","html-keyboard-response","90","361247","0.0-1.0-112.0","0","0","87068","","null","","","null","12","","NaN","","","","","","","","","","","","","",""
"","response","","html-keyboard-response","91","361561","0.0-1.0-113.0","0","0","87068","","311","","","75","12","","","1","12","training","adjacent","GF","7","6","N.jpg","O.jpg","0","0","1","",""
"","feedback","","html-keyboard-response","92","362565","0.0-1.0-114.0-0.0","0","0","87068","","null","","","null","12","","","","","","","","","","","","","","","",""
"","ITI","","html-keyboard-response","93","363569","0.0-1.0-117.0","0","0","87068","","null","","","null","12","","","","","","","","","","","","","","","NaN",""
"","S1","","html-keyboard-response","94","363824","0.0-1.0-119.0","0","0","87068","","null","","","null","13","","","","","","","","","","","","","","","",""
"","ISI","","html-keyboard-response","95","365826","0.0-1.0-120.0","0","0","87068","","null","","","null","13","NaN","","","","","","","","","","","","","","",""
"","S2","","html-keyboard-response","96","366082","0.0-1.0-121.0","0","0","87068","","null","","","null","13","","NaN","","","","","","","","","","","","","",""
"","response","","html-keyboard-response","97","367102","0.0-1.0-122.0","0","0","87068","","1018","","","68","13","","","1","13","training","adjacent","BC","2","3","R.jpg","M.jpg","1","1","1","",""
"","feedback","","html-keyboard-response","98","368109","0.0-1.0-123.0-0.0","0","0","87068","","null","","","null","13","","","","","","","","","","","","","","","",""
"","ITI","","html-keyboard-response","99","369113","0.0-1.0-126.0","0","0","87068","","null","","","null","13","","","","","","","","","","","","","","","NaN",""
"","S1","","html-keyboard-response","100","369368","0.0-1.0-128.0","0","0","87068","","null","","","null","14","","","","","","","","","","","","","","","",""
"","ISI","","html-keyboard-response","101","371370","0.0-1.0-129.0","0","0","87068","","null","","","null","14","NaN","","","","","","","","","","","","","","",""
"","S2","","html-keyboard-response","102","371626","0.0-1.0-130.0","0","0","87068","","null","","","null","14","","NaN","","","","","","","","","","","","","",""
"","response","","html-keyboard-response","103","373009","0.0-1.0-131.0","0","0","87068","","1380","","","68","14","","","1","14","training","adjacent","FE","6","5","O.jpg","L.jpg","1","0","0","",""
"","feedback","","html-keyboard-response","104","374012","0.0-1.0-132.0-0.0","0","0","87068","","null","","","null","14","","","","","","","","","","","","","","","",""
"","time_out","","html-keyboard-response","105","376015","0.0-1.0-134.0-0.0","0","0","87068","","null","","","null","14","","","","","","","","","","","","","","","",""
"","ITI","","html-keyboard-response","106","377020","0.0-1.0-135.0","0","0","87068","","null","","","null","14","","","","","","","","","","","","","","","NaN",""
"","S1","","html-keyboard-response","107","377276","0.0-1.0-137.0","0","0","87068","","null","","","null","15","","","","","","","","","","","","","","","",""
"","ISI","","html-keyboard-response","108","379279","0.0-1.0-138.0","0","0","87068","","null","","","null","15","NaN","","","","","","","","","","","","","","",""
"","S2","","html-keyboard-response","109","379533","0.0-1.0-139.0","0","0","87068","","null","","","null","15","","NaN","","","","","","","","","","","","","",""
"","response","","html-keyboard-response","110","380260","0.0-1.0-140.0","0","0","87068","","726","","","75","15","","","1","15","training","adjacent","CD","3","4","M.jpg","Q.jpg","0","1","0","",""
"","feedback","","html-keyboard-response","111","381263","0.0-1.0-141.0-0.0","0","0","87068","","null","","","null","15","","","","","","","","","","","","","","","",""
"","time_out","","html-keyboard-response","112","383266","0.0-1.0-143.0-0.0","0","0","87068","","null","","","null","15","","","","","","","","","","","","","","","",""
"","ITI","","html-keyboard-response","113","384269","0.0-1.0-144.0","0","0","87068","","null","","","null","15","","","","","","","","","","","","","","","NaN",""
"","S1","","html-keyboard-response","114","384525","0.0-1.0-146.0","0","0","87068","","null","","","null","16","","","","","","","","","","","","","","","",""
"","ISI","","html-keyboard-response","115","386528","0.0-1.0-147.0","0","0","87068","","null","","","null","16","NaN","","","","","","","","","","","","","","",""
"","S2","","html-keyboard-response","116","386783","0.0-1.0-148.0","0","0","87068","","null","","","null","16","","NaN","","","","","","","","","","","","","",""
"","response","","html-keyboard-response","117","387448","0.0-1.0-149.0","0","0","87068","","662","","","68","16","","","1","16","training","adjacent","AB","1","2","P.jpg","R.jpg","1","1","1","",""
"","feedback","","html-keyboard-response","118","388455","0.0-1.0-150.0-0.0","0","0","87068","","null","","","null","16","","","","","","","","","","","","","","","",""
"","ITI","","html-keyboard-response","119","389459","0.0-1.0-153.0","0","0","87068","","null","","","null","16","","","","","","","","","","","","","","","NaN",""
"","S1","","html-keyboard-response","120","389716","0.0-1.0-155.0","0","0","87068","","null","","","null","17","","","","","","","","","","","","","","","",""
"","ISI","","html-keyboard-response","121","391721","0.0-1.0-156.0","0","0","87068","","null","","","null","17","NaN","","","","","","","","","","","","","","",""
"","S2","","html-keyboard-response","122","391975","0.0-1.0-157.0","0","0","87068","","null","","","null","17","","NaN","","","","","","","","","","","","","",""
"","response","","html-keyboard-response","123","393762","0.0-1.0-158.0","0","0","87068","","1785","","","75","17","","","1","17","training","adjacent","CB","3","2","M.jpg","R.jpg","0","0","1","",""
"","feedback","","html-keyboard-response","124","394765","0.0-1.0-159.0-0.0","0","0","87068","","null","","","null","17","","","","","","","","","","","","","","","",""
"","ITI","","html-keyboard-response","125","395770","0.0-1.0-162.0","0","0","87068","","null","","","null","17","","","","","","","","","","","","","","","NaN",""
"","S1","","html-keyboard-response","126","396025","0.0-1.0-164.0","0","0","87068","","null","","","null","18","","","","","","","","","","","","","","","",""
"","ISI","","html-keyboard-response","127","398030","0.0-1.0-165.0","0","0","87068","","null","","","null","18","NaN","","","","","","","","","","","","","","",""
"","S2","","html-keyboard-response","128","398284","0.0-1.0-166.0","0","0","87068","","null","","","null","18","","NaN","","","","","","","","","","","","","",""
"","response","","html-keyboard-response","129","398869","0.0-1.0-167.0","0","0","87068","","583","","","75","18","","","1","18","training","adjacent","BA","2","1","R.jpg","P.jpg","0","0","1","",""
"","feedback","","html-keyboard-response","130","399874","0.0-1.0-168.0-0.0","0","0","87068","","null","","","null","18","","","","","","","","","","","","","","","",""
"","ITI","","html-keyboard-response","131","400878","0.0-1.0-171.0","0","0","87068","","null","","","null","18","","","","","","","","","","","","","","","NaN",""
"","S1","","html-keyboard-response","132","401134","0.0-1.0-173.0","0","0","87068","","null","","","null","19","","","","","","","","","","","","","","","",""
"","ISI","","html-keyboard-response","133","403138","0.0-1.0-174.0","0","0","87068","","null","","","null","19","NaN","","","","","","","","","","","","","","",""
"","S2","","html-keyboard-response","134","403392","0.0-1.0-175.0","0","0","87068","","null","","","null","19","","NaN","","","","","","","","","","","","","",""
"","response","","html-keyboard-response","135","404226","0.0-1.0-176.0","0","0","87068","","833","","","68","19","","","1","19","training","adjacent","EF","5","6","L.jpg","O.jpg","1","1","1","",""
"","feedback","","html-keyboard-response","136","405232","0.0-1.0-177.0-0.0","0","0","87068","","null","","","null","19","","","","","","","","","","","","","","","",""
"","ITI","","html-keyboard-response","137","406237","0.0-1.0-180.0","0","0","87068","","null","","","null","19","","","","","","","","","","","","","","","NaN",""
"","S1","","html-keyboard-response","138","406492","0.0-1.0-182.0","0","0","87068","","null","","","null","20","","","","","","","","","","","","","","","",""
"","ISI","","html-keyboard-response","139","408494","0.0-1.0-183.0","0","0","87068","","null","","","null","20","NaN","","","","","","","","","","","","","","",""
"","S2","","html-keyboard-response","140","408751","0.0-1.0-184.0","0","0","87068","","null","","","null","20","","NaN","","","","","","","","","","","","","",""
"","response","","html-keyboard-response","141","409669","0.0-1.0-185.0","0","0","87068","","915","","","68","20","","","1","20","training","adjacent","DE","4","5","Q.jpg","L.jpg","1","1","1","",""
"","feedback","","html-keyboard-response","142","410672","0.0-1.0-186.0-0.0","0","0","87068","","null","","","null","20","","","","","","","","","","","","","","","",""
"","ITI","","html-keyboard-response","143","411676","0.0-1.0-189.0","0","0","87068","","null","","","null","20","","","","","","","","","","","","","","","NaN",""
"","S1","","html-keyboard-response","144","411932","0.0-1.0-191.0","0","0","87068","","null","","","null","21","","","","","","","","","","","","","","","",""
"","ISI","","html-keyboard-response","145","413935","0.0-1.0-192.0","0","0","87068","","null","","","null","21","NaN","","","","","","","","","","","","","","",""
"","S2","","html-keyboard-response","146","414190","0.0-1.0-193.0","0","0","87068","","null","","","null","21","","NaN","","","","","","","","","","","","","",""
"","response","","html-keyboard-response","147","415226","0.0-1.0-194.0","0","0","87068","","1034","","","75","21","","","1","21","training","adjacent","FG","6","7","O.jpg","N.jpg","0","1","0","",""
"","feedback","","html-keyboard-response","148","416234","0.0-1.0-195.0-0.0","0","0","87068","","null","","","null","21","","","","","","","","","","","","","","","",""
"","time_out","","html-keyboard-response","149","418237","0.0-1.0-197.0-0.0","0","0","87068","","null","","","null","21","","","","","","","","","","","","","","","",""
"","ITI","","html-keyboard-response","150","419241","0.0-1.0-198.0","0","0","87068","","null","","","null","21","","","","","","","","","","","","","","","NaN",""
"","S1","","html-keyboard-response","151","419496","0.0-1.0-200.0","0","0","87068","","null","","","null","22","","","","","","","","","","","","","","","",""
"","ISI","","html-keyboard-response","152","421500","0.0-1.0-201.0","0","0","87068","","503","","","68","22","d","","","","","","","","","","","","","","",""
"","S2","","html-keyboard-response","153","421755","0.0-1.0-202.0","0","0","87068","","null","","","null","22","","NaN","","","","","","","","","","","","","",""
"","response","","html-keyboard-response","154","422004","0.0-1.0-203.0","0","0","87068","","247","","","68","22","","","1","22","training","adjacent","FG","6","7","O.jpg","N.jpg","1","1","1","",""
"","feedback","","html-keyboard-response","155","423007","0.0-1.0-204.0-0.0","0","0","87068","","null","","","null","22","","","","","","","","","","","","","","","",""
"","ITI","","html-keyboard-response","156","424014","0.0-1.0-207.0","0","0","87068","","null","","","null","22","","","","","","","","","","","","","","","NaN",""
"","S1","","html-keyboard-response","157","424267","0.0-1.0-209.0","0","0","87068","","null","","","null","23","","","","","","","","","","","","","","","",""
"","ISI","","html-keyboard-response","158","426271","0.0-1.0-210.0","0","0","87068","","null","","","null","23","NaN","","","","","","","","","","","","","","",""
"","S2","","html-keyboard-response","159","426525","0.0-1.0-211.0","0","0","87068","","null","","","null","23","","NaN","","","","","","","","","","","","","",""
"","response","","html-keyboard-response","160","426624","0.0-1.0-212.0","0","0","87068","","96","","","75","23","","","1","23","training","adjacent","DE","4","5","Q.jpg","L.jpg","0","1","0","",""
"","feedback","","html-keyboard-response","161","427629","0.0-1.0-213.0-0.0","0","0","87068","","null","","","null","23","","","","","","","","","","","","","","","",""
"","time_out","","html-keyboard-response","162","429636","0.0-1.0-215.0-0.0","0","0","87068","","null","","","null","23","","","","","","","","","","","","","","","",""
"","ITI","","html-keyboard-response","163","430641","0.0-1.0-216.0","0","0","87068","","null","","","null","23","","","","","","","","","","","","","","","NaN",""
"","S1","","html-keyboard-response","164","430898","0.0-1.0-218.0","0","0","87068","","null","","","null","24","","","","","","","","","","","","","","","",""
"","ISI","","html-keyboard-response","165","432903","0.0-1.0-219.0","0","0","87068","","null","","","null","24","NaN","","","","","","","","","","","","","","",""
"","S2","","html-keyboard-response","166","433156","0.0-1.0-220.0","0","0","87068","","null","","","null","24","","NaN","","","","","","","","","","","","","",""
"","response","","html-keyboard-response","167","433723","0.0-1.0-221.0","0","0","87068","","564","","","75","24","","","1","24","training","adjacent","DC","4","3","Q.jpg","M.jpg","0","0","1","",""
"","feedback","","html-keyboard-response","168","434728","0.0-1.0-222.0-0.0","0","0","87068","","null","","","null","24","","","","","","","","","","","","","","","",""
"","ITI","","html-keyboard-response","169","435732","0.0-1.0-225.0","0","0","87068","","null","","","null","24","","","","","","","","","","","","","","","NaN",""
"","S1","","html-keyboard-response","170","435988","0.0-1.0-227.0","0","0","87068","","null","","","null","25","","","","","","","","","","","","","","","",""
"","ISI","","html-keyboard-response","171","437991","0.0-1.0-228.0","0","0","87068","","null","","","null","25","NaN","","","","","","","","","","","","","","",""
"","S2","","html-keyboard-response","172","438246","0.0-1.0-229.0","0","0","87068","","null","","","null","25","","NaN","","","","","","","","","","","","","",""
"","response","","html-keyboard-response","173","440251","0.0-1.0-230.0","0","0","87068","","null","","","null","25","","","1","25","training","adjacent","BA","2","1","R.jpg","P.jpg","NaN","0","0","",""
"","too_slow_prompt","","html-keyboard-response","174","441260","0.0-1.0-232.0-0.0","1","0","87068","","null","","","null","","","","","","","","","","","","","","","","",""
"","time_out","","html-keyboard-response","175","443263","0.0-1.0-233.0-0.0","0","0","87068","","null","","","null","25","","","","","","","","","","","","","","","",""
"","ITI","","html-keyboard-response","176","444266","0.0-1.0-234.0","0","0","87068","","null","","","null","25","","","","","","","","","","","","","","","NaN",""
"","S1","","html-keyboard-response","177","444522","0.0-1.0-236.0","0","0","87068","","null","","","null","26","","","","","","","","","","","","","","","",""
"","ISI","","html-keyboard-response","178","446524","0.0-1.0-237.0","0","0","87068","","1536","","","75","26","k","","","","","","","","","","","","","","",""
"","S2","","html-keyboard-response","179","446780","0.0-1.0-238.0","0","0","87068","","null","","","null","26","","NaN","","","","","","","","","","","","","",""
"","response","","html-keyboard-response","180","448783","0.0-1.0-239.0","0","0","87068","","null","","","null","26","","","1","26","training","adjacent","CD","3","4","M.jpg","Q.jpg","NaN","1","0","",""
"","too_slow_prompt","","html-keyboard-response","181","449787","0.0-1.0-241.0-0.0","1","0","87068","","null","","","null","","","","","","","","","","","","","","","","",""
"","time_out","","html-keyboard-response","182","451790","0.0-1.0-242.0-0.0","0","0","87068","","null","","","null","26","","","","","","","","","","","","","","","",""
"","ITI","","html-keyboard-response","183","452794","0.0-1.0-243.0","0","0","87068","","null","","","null","26","","","","","","","","","","","","","","","NaN",""
"","S1","","html-keyboard-response","184","453050","0.0-1.0-245.0","0","0","87068","","null","","","null","27","","","","","","","","","","","","","","","",""
"","ISI","","html-keyboard-response","185","455054","0.0-1.0-246.0","0","0","87068","","null","","","null","27","NaN","","","","","","","","","","","","","","",""
"","S2","","html-keyboard-response","186","455307","0.0-1.0-247.0","0","0","87068","","null","","","null","27","","NaN","","","","","","","","","","","","","",""
"","response","","html-keyboard-response","187","455387","0.0-1.0-248.0","0","0","87068","","77","","","75","27","","","1","27","training","adjacent","BC","2","3","R.jpg","M.jpg","0","1","0","",""
"","feedback","","html-keyboard-response","188","456393","0.0-1.0-249.0-0.0","0","0","87068","","null","","","null","27","","","","","","","","","","","","","","","",""
"","time_out","","html-keyboard-response","189","458396","0.0-1.0-251.0-0.0","0","0","87068","","null","","","null","27","","","","","","","","","","","","","","","",""
"","ITI","","html-keyboard-response","190","459401","0.0-1.0-252.0","0","0","87068","","null","","","null","27","","","","","","","","","","","","","","","NaN",""
"","S1","","html-keyboard-response","191","459656","0.0-1.0-254.0","0","0","87068","","null","","","null","28","","","","","","","","","","","","","","","",""
"","ISI","","html-keyboard-response","192","461660","0.0-1.0-255.0","0","0","87068","","null","","","null","28","NaN","","","","","","","","","","","","","","",""
"","S2","","html-keyboard-response","193","461915","0.0-1.0-256.0","0","0","87068","","null","","","null","28","","NaN","","","","","","","","","","","","","",""
"","response","","html-keyboard-response","194","462670","0.0-1.0-257.0","0","0","87068","","754","","","68","28","","","1","28","training","adjacent","EF","5","6","L.jpg","O.jpg","1","1","1","",""
"","feedback","","html-keyboard-response","195","463673","0.0-1.0-258.0-0.0","0","0","87068","","null","","","null","28","","","","","","","","","","","","","","","",""
"","ITI","","html-keyboard-response","196","464677","0.0-1.0-261.0","0","0","87068","","null","","","null","28","","","","","","","","","","","","","","","NaN",""
"","S1","","html-keyboard-response","197","464932","0.0-1.0-263.0","0","0","87068","","null","","","null","29","","","","","","","","","","","","","","","",""
"","ISI","","html-keyboard-response","198","466939","0.0-1.0-264.0","0","0","87068","","null","","","null","29","NaN","","","","","","","","","","","","","","",""
"","S2","","html-keyboard-response","199","467192","0.0-1.0-265.0","0","0","87068","","null","","","null","29","","NaN","","","","","","","","","","","","","",""
"","response","","html-keyboard-response","200","468101","0.0-1.0-266.0","0","0","87068","","906","","","75","29","","","1","29","training","adjacent","ED","5","4","L.jpg","Q.jpg","0","0","1","",""
"","feedback","","html-keyboard-response","201","469106","0.0-1.0-267.0-0.0","0","0","87068","","null","","","null","29","","","","","","","","","","","","","","","",""
"","ITI","","html-keyboard-response","202","470110","0.0-1.0-270.0","0","0","87068","","null","","","null","29","","","","","","","","","","","","","","","NaN",""
"","S1","","html-keyboard-response","203","470366","0.0-1.0-272.0","0","0","87068","","null","","","null","30","","","","","","","","","","","","","","","",""
"","ISI","","html-keyboard-response","204","472369","0.0-1.0-273.0","0","0","87068","","null","","","null","30","NaN","","","","","","","","","","","","","","",""
"","S2","","html-keyboard-response","205","472624","0.0-1.0-274.0","0","0","87068","","null","","","null","30","","NaN","","","","","","","","","","","","","",""
"","response","","html-keyboard-response","206","473350","0.0-1.0-275.0","0","0","87068","","724","","","68","30","","","1","30","training","adjacent","BC","2","3","R.jpg","M.jpg","1","1","1","",""
"","feedback","","html-keyboard-response","207","474354","0.0-1.0-276.0-0.0","0","0","87068","","null","","","null","30","","","","","","","","","","","","","","","",""
"","ITI","","html-keyboard-response","208","475358","0.0-1.0-279.0","0","0","87068","","null","","","null","30","","","","","","","","","","","","","","","NaN",""
"","S1","","html-keyboard-response","209","475615","0.0-1.0-281.0","0","0","87068","","null","","","null","31","","","","","","","","","","","","","","","",""
"","ISI","","html-keyboard-response","210","477619","0.0-1.0-282.0","0","0","87068","","null","","","null","31","NaN","","","","","","","","","","","","","","",""
"","S2","","html-keyboard-response","211","477872","0.0-1.0-283.0","0","0","87068","","null","","","null","31","","NaN","","","","","","","","","","","","","",""
"","response","","html-keyboard-response","212","478545","0.0-1.0-284.0","0","0","87068","","670","","","68","31","","","1","31","training","adjacent","ED","5","4","L.jpg","Q.jpg","1","0","0","",""
"","feedback","","html-keyboard-response","213","479550","0.0-1.0-285.0-0.0","0","0","87068","","null","","","null","31","","","","","","","","","","","","","","","",""
"","time_out","","html-keyboard-response","214","481552","0.0-1.0-287.0-0.0","0","0","87068","","null","","","null","31","","","","","","","","","","","","","","","",""
"","ITI","","html-keyboard-response","215","482557","0.0-1.0-288.0","0","0","87068","","null","","","null","31","","","","","","","","","","","","","","","NaN",""
"","S1","","html-keyboard-response","216","482813","0.0-1.0-290.0","0","0","87068","","null","","","null","32","","","","","","","","","","","","","","","",""
"","ISI","","html-keyboard-response","217","484815","0.0-1.0-291.0","0","0","87068","","null","","","null","32","NaN","","","","","","","","","","","","","","",""
"","S2","","html-keyboard-response","218","485071","0.0-1.0-292.0","0","0","87068","","null","","","null","32","","NaN","","","","","","","","","","","","","",""
"","response","","html-keyboard-response","219","485613","0.0-1.0-293.0","0","0","87068","","540","","","68","32","","","1","32","training","adjacent","ED","5","4","L.jpg","Q.jpg","1","0","0","",""
"","feedback","","html-keyboard-response","220","486616","0.0-1.0-294.0-0.0","0","0","87068","","null","","","null","32","","","","","","","","","","","","","","","",""
"","time_out","","html-keyboard-response","221","488623","0.0-1.0-296.0-0.0","0","0","87068","","null","","","null","32","","","","","","","","","","","","","","","",""
"","ITI","","html-keyboard-response","222","489628","0.0-1.0-297.0","0","0","87068","","null","","","null","32","","","","","","","","","","","","","","","NaN",""
"","S1","","html-keyboard-response","223","489883","0.0-1.0-299.0","0","0","87068","","null","","","null","33","","","","","","","","","","","","","","","",""
"","ISI","","html-keyboard-response","224","491889","0.0-1.0-300.0","0","0","87068","","null","","","null","33","NaN","","","","","","","","","","","","","","",""
"","S2","","html-keyboard-response","225","492143","0.0-1.0-301.0","0","0","87068","","null","","","null","33","","NaN","","","","","","","","","","","","","",""
"","response","","html-keyboard-response","226","492762","0.0-1.0-302.0","0","0","87068","","616","","","75","33","","","1","33","training","adjacent","CD","3","4","M.jpg","Q.jpg","0","1","0","",""
"","feedback","","html-keyboard-response","227","493767","0.0-1.0-303.0-0.0","0","0","87068","","null","","","null","33","","","","","","","","","","","","","","","",""
"","time_out","","html-keyboard-response","228","495769","0.0-1.0-305.0-0.0","0","0","87068","","null","","","null","33","","","","","","","","","","","","","","","",""
"","ITI","","html-keyboard-response","229","496775","0.0-1.0-306.0","0","0","87068","","null","","","null","33","","","","","","","","","","","","","","","NaN",""
"","S1","","html-keyboard-response","230","497029","0.0-1.0-308.0","0","0","87068","","null","","","null","34","","","","","","","","","","","","","","","",""
"","ISI","","html-keyboard-response","231","499035","0.0-1.0-309.0","0","0","87068","","null","","","null","34","NaN","","","","","","","","","","","","","","",""
"","S2","","html-keyboard-response","232","499291","0.0-1.0-310.0","0","0","87068","","null","","","null","34","","NaN","","","","","","","","","","","","","",""
"","response","","html-keyboard-response","233","499692","0.0-1.0-311.0","0","0","87068","","399","","","68","34","","","1","34","training","adjacent","FG","6","7","O.jpg","N.jpg","1","1","1","",""
"","feedback","","html-keyboard-response","234","500699","0.0-1.0-312.0-0.0","0","0","87068","","null","","","null","34","","","","","","","","","","","","","","","",""
"","ITI","","html-keyboard-response","235","501702","0.0-1.0-315.0","0","0","87068","","null","","","null","34","","","","","","","","","","","","","","","NaN",""
"","S1","","html-keyboard-response","236","501958","0.0-1.0-317.0","0","0","87068","","null","","","null","35","","","","","","","","","","","","","","","",""
"","ISI","","html-keyboard-response","237","503961","0.0-1.0-318.0","0","0","87068","","null","","","null","35","NaN","","","","","","","","","","","","","","",""
"","S2","","html-keyboard-response","238","504216","0.0-1.0-319.0","0","0","87068","","null","","","null","35","","NaN","","","","","","","","","","","","","",""
"","response","","html-keyboard-response","239","505305","0.0-1.0-320.0","0","0","87068","","1087","","","68","35","","","1","35","training","adjacent","AB","1","2","P.jpg","R.jpg","1","1","1","",""
"","feedback","","html-keyboard-response","240","506311","0.0-1.0-321.0-0.0","0","0","87068","","null","","","null","35","","","","","","","","","","","","","","","",""
"","ITI","","html-keyboard-response","241","507317","0.0-1.0-324.0","0","0","87068","","null","","","null","35","","","","","","","","","","","","","","","NaN",""
"","S1","","html-keyboard-response","242","507572","0.0-1.0-326.0","0","0","87068","","null","","","null","36","","","","","","","","","","","","","","","",""
"","ISI","","html-keyboard-response","243","509575","0.0-1.0-327.0","0","0","87068","","null","","","null","36","NaN","","","","","","","","","","","","","","",""
"","S2","","html-keyboard-response","244","509830","0.0-1.0-328.0","0","0","87068","","null","","","null","36","","NaN","","","","","","","","","","","","","",""
"","response","","html-keyboard-response","245","511274","0.0-1.0-329.0","0","0","87068","","1442","","","75","36","","","1","36","training","adjacent","CB","3","2","M.jpg","R.jpg","0","0","1","",""
"","feedback","","html-keyboard-response","246","512281","0.0-1.0-330.0-0.0","0","0","87068","","null","","","null","36","","","","","","","","","","","","","","","",""
"","ITI","","html-keyboard-response","247","513287","0.0-1.0-333.0","0","0","87068","","null","","","null","36","","","","","","","","","","","","","","","NaN",""
"","S1","","html-keyboard-response","248","513544","0.0-1.0-335.0","0","0","87068","","null","","","null","37","","","","","","","","","","","","","","","",""
"","ISI","","html-keyboard-response","249","515549","0.0-1.0-336.0","0","0","87068","","null","","","null","37","NaN","","","","","","","","","","","","","","",""
"","S2","","html-keyboard-response","250","515803","0.0-1.0-337.0","0","0","87068","","null","","","null","37","","NaN","","","","","","","","","","","","","",""
"","response","","html-keyboard-response","251","516611","0.0-1.0-338.0","0","0","87068","","807","","","75","37","","","1","37","training","adjacent","EF","5","6","L.jpg","O.jpg","0","1","0","",""
"","feedback","","html-keyboard-response","252","517614","0.0-1.0-339.0-0.0","0","0","87068","","null","","","null","37","","","","","","","","","","","","","","","",""
"","time_out","","html-keyboard-response","253","519619","0.0-1.0-341.0-0.0","0","0","87068","","null","","","null","37","","","","","","","","","","","","","","","",""
"","ITI","","html-keyboard-response","254","520625","0.0-1.0-342.0","0","0","87068","","null","","","null","37","","","","","","","","","","","","","","","NaN",""
"","S1","","html-keyboard-response","255","520877","0.0-1.0-344.0","0","0","87068","","null","","","null","38","","","","","","","","","","","","","","","",""
"","ISI","","html-keyboard-response","256","522880","0.0-1.0-345.0","0","0","87068","","null","","","null","38","NaN","","","","","","","","","","","","","","",""
"","S2","","html-keyboard-response","257","523136","0.0-1.0-346.0","0","0","87068","","null","","","null","38","","NaN","","","","","","","","","","","","","",""
"","response","","html-keyboard-response","258","523702","0.0-1.0-347.0","0","0","87068","","565","","","75","38","","","1","38","training","adjacent","FE","6","5","O.jpg","L.jpg","0","0","1","",""
"","feedback","","html-keyboard-response","259","524708","0.0-1.0-348.0-0.0","0","0","87068","","null","","","null","38","","","","","","","","","","","","","","","",""
"","ITI","","html-keyboard-response","260","525713","0.0-1.0-351.0","0","0","87068","","null","","","null","38","","","","","","","","","","","","","","","NaN",""
"","S1","","html-keyboard-response","261","525968","0.0-1.0-353.0","0","0","87068","","null","","","null","39","","","","","","","","","","","","","","","",""
"","ISI","","html-keyboard-response","262","527973","0.0-1.0-354.0","0","0","87068","","null","","","null","39","NaN","","","","","","","","","","","","","","",""
"","S2","","html-keyboard-response","263","528229","0.0-1.0-355.0","0","0","87068","","null","","","null","39","","NaN","","","","","","","","","","","","","",""
"","response","","html-keyboard-response","264","529236","0.0-1.0-356.0","0","0","87068","","1005","","","68","39","","","1","39","training","adjacent","AB","1","2","P.jpg","R.jpg","1","1","1","",""
"","feedback","","html-keyboard-response","265","530239","0.0-1.0-357.0-0.0","0","0","87068","","null","","","null","39","","","","","","","","","","","","","","","",""
"","ITI","","html-keyboard-response","266","531245","0.0-1.0-360.0","0","0","87068","","null","","","null","39","","","","","","","","","","","","","","","NaN",""
"","S1","","html-keyboard-response","267","531501","0.0-1.0-362.0","0","0","87068","","null","","","null","40","","","","","","","","","","","","","","","",""
"","ISI","","html-keyboard-response","268","533504","0.0-1.0-363.0","0","0","87068","","null","","","null","40","NaN","","","","","","","","","","","","","","",""
"","S2","","html-keyboard-response","269","533759","0.0-1.0-364.0","0","0","87068","","null","","","null","40","","NaN","","","","","","","","","","","","","",""
"","response","","html-keyboard-response","270","534537","0.0-1.0-365.0","0","0","87068","","776","","","75","40","","","1","40","training","adjacent","BC","2","3","R.jpg","M.jpg","0","1","0","",""
"","feedback","","html-keyboard-response","271","535542","0.0-1.0-366.0-0.0","0","0","87068","","null","","","null","40","","","","","","","","","","","","","","","",""
"","time_out","","html-keyboard-response","272","537545","0.0-1.0-368.0-0.0","0","0","87068","","null","","","null","40","","","","","","","","","","","","","","","",""
"","ITI","","html-keyboard-response","273","538548","0.0-1.0-369.0","0","0","87068","","null","","","null","40","","","","","","","","","","","","","","","NaN",""
"","S1","","html-keyboard-response","274","538804","0.0-1.0-371.0","0","0","87068","","null","","","null","41","","","","","","","","","","","","","","","",""
"","ISI","","html-keyboard-response","275","540807","0.0-1.0-372.0","0","0","87068","","null","","","null","41","NaN","","","","","","","","","","","","","","",""
"","S2","","html-keyboard-response","276","541061","0.0-1.0-373.0","0","0","87068","","null","","","null","41","","NaN","","","","","","","","","","","","","",""
"","response","","html-keyboard-response","277","541359","0.0-1.0-374.0","0","0","87068","","297","","","68","41","","","1","41","training","adjacent","GF","7","6","N.jpg","O.jpg","1","0","0","",""
"","feedback","","html-keyboard-response","278","542362","0.0-1.0-375.0-0.0","0","0","87068","","null","","","null","41","","","","","","","","","","","","","","","",""
"","time_out","","html-keyboard-response","279","544364","0.0-1.0-377.0-0.0","0","0","87068","","null","","","null","41","","","","","","","","","","","","","","","",""
"","ITI","","html-keyboard-response","280","545370","0.0-1.0-378.0","0","0","87068","","null","","","null","41","","","","","","","","","","","","","","","NaN",""
"","S1","","html-keyboard-response","281","545624","0.0-1.0-380.0","0","0","87068","","null","","","null","42","","","","","","","","","","","","","","","",""
"","ISI","","html-keyboard-response","282","547627","0.0-1.0-381.0","0","0","87068","","null","","","null","42","NaN","","","","","","","","","","","","","","",""
"","S2","","html-keyboard-response","283","547883","0.0-1.0-382.0","0","0","87068","","null","","","null","42","","NaN","","","","","","","","","","","","","",""
"","response","","html-keyboard-response","284","548928","0.0-1.0-383.0","0","0","87068","","1043","","","75","42","","","1","42","training","adjacent","EF","5","6","L.jpg","O.jpg","0","1","0","",""
"","feedback","","html-keyboard-response","285","549932","0.0-1.0-384.0-0.0","0","0","87068","","null","","","null","42","","","","","","","","","","","","","","","",""
"","time_out","","html-keyboard-response","286","551935","0.0-1.0-386.0-0.0","0","0","87068","","null","","","null","42","","","","","","","","","","","","","","","",""
"","ITI","","html-keyboard-response","287","552939","0.0-1.0-387.0","0","0","87068","","null","","","null","42","","","","","","","","","","","","","","","NaN",""
"","S1","","html-keyboard-response","288","553191","0.0-1.0-389.0","0","0","87068","","null","","","null","43","","","","","","","","","","","","","","","",""
"","ISI","","html-keyboard-response","289","555194","0.0-1.0-390.0","0","0","87068","","null","","","null","43","NaN","","","","","","","","","","","","","","",""
"","S2","","html-keyboard-response","290","555447","0.0-1.0-391.0","0","0","87068","","null","","","null","43","","NaN","","","","","","","","","","","","","",""
"","response","","html-keyboard-response","291","556156","0.0-1.0-392.0","0","0","87068","","707","","","75","43","","","1","43","training","adjacent","DC","4","3","Q.jpg","M.jpg","0","0","1","",""
"","feedback","","html-keyboard-response","292","557162","0.0-1.0-393.0-0.0","0","0","87068","","null","","","null","43","","","","","","","","","","","","","","","",""
"","ITI","","html-keyboard-response","293","558169","0.0-1.0-396.0","0","0","87068","","null","","","null","43","","","","","","","","","","","","","","","NaN",""
"","S1","","html-keyboard-response","294","558426","0.0-1.0-398.0","0","0","87068","","null","","","null","44","","","","","","","","","","","","","","","",""
"","ISI","","html-keyboard-response","295","560428","0.0-1.0-399.0","0","0","87068","","null","","","null","44","NaN","","","","","","","","","","","","","","",""
"","S2","","html-keyboard-response","296","560683","0.0-1.0-400.0","0","0","87068","","null","","","null","44","","NaN","","","","","","","","","","","","","",""
"","response","","html-keyboard-response","297","561144","0.0-1.0-401.0","0","0","87068","","460","","","68","44","","","1","44","training","adjacent","CD","3","4","M.jpg","Q.jpg","1","1","1","",""
"","feedback","","html-keyboard-response","298","562152","0.0-1.0-402.0-0.0","0","0","87068","","null","","","null","44","","","","","","","","","","","","","","","",""
"","ITI","","html-keyboard-response","299","563157","0.0-1.0-405.0","0","0","87068","","null","","","null","44","","","","","","","","","","","","","","","NaN",""
"","S1","","html-keyboard-response","300","563411","0.0-1.0-407.0","0","0","87068","","null","","","null","45","","","","","","","","","","","","","","","",""
"","ISI","","html-keyboard-response","301","565414","0.0-1.0-408.0","0","0","87068","","null","","","null","45","NaN","","","","","","","","","","","","","","",""
"","S2","","html-keyboard-response","302","565670","0.0-1.0-409.0","0","0","87068","","null","","","null","45","","NaN","","","","","","","","","","","","","",""
"","response","","html-keyboard-response","303","565890","0.0-1.0-410.0","0","0","87068","","217","","","75","45","","","1","45","training","adjacent","AB","1","2","P.jpg","R.jpg","0","1","0","",""
"","feedback","","html-keyboard-response","304","566894","0.0-1.0-411.0-0.0","0","0","87068","","null","","","null","45","","","","","","","","","","","","","","","",""
"","time_out","","html-keyboard-response","305","568897","0.0-1.0-413.0-0.0","0","0","87068","","null","","","null","45","","","","","","","","","","","","","","","",""
"","ITI","","html-keyboard-response","306","569902","0.0-1.0-414.0","0","0","87068","","null","","","null","45","","","","","","","","","","","","","","","NaN",""
"","S1","","html-keyboard-response","307","570158","0.0-1.0-416.0","0","0","87068","","null","","","null","46","","","","","","","","","","","","","","","",""
"","ISI","","html-keyboard-response","308","572161","0.0-1.0-417.0","0","0","87068","","null","","","null","46","NaN","","","","","","","","","","","","","","",""
"","S2","","html-keyboard-response","309","572414","0.0-1.0-418.0","0","0","87068","","null","","","null","46","","NaN","","","","","","","","","","","","","",""
"","response","","html-keyboard-response","310","572926","0.0-1.0-419.0","0","0","87068","","509","","","68","46","","","1","46","training","adjacent","GF","7","6","N.jpg","O.jpg","1","0","0","",""
"","feedback","","html-keyboard-response","311","573930","0.0-1.0-420.0-0.0","0","0","87068","","null","","","null","46","","","","","","","","","","","","","","","",""
"","time_out","","html-keyboard-response","312","575932","0.0-1.0-422.0-0.0","0","0","87068","","null","","","null","46","","","","","","","","","","","","","","","",""
"","ITI","","html-keyboard-response","313","576937","0.0-1.0-423.0","0","0","87068","","null","","","null","46","","","","","","","","","","","","","","","NaN",""
"","S1","","html-keyboard-response","314","577193","0.0-1.0-425.0","0","0","87068","","null","","","null","47","","","","","","","","","","","","","","","",""
"","ISI","","html-keyboard-response","315","579196","0.0-1.0-426.0","0","0","87068","","null","","","null","47","NaN","","","","","","","","","","","","","","",""
"","S2","","html-keyboard-response","316","579451","0.0-1.0-427.0","0","0","87068","","null","","","null","47","","NaN","","","","","","","","","","","","","",""
"","response","","html-keyboard-response","317","580002","0.0-1.0-428.0","0","0","87068","","548","","","68","47","","","1","47","training","adjacent","DE","4","5","Q.jpg","L.jpg","1","1","1","",""
"","feedback","","html-keyboard-response","318","581006","0.0-1.0-429.0-0.0","0","0","87068","","null","","","null","47","","","","","","","","","","","","","","","",""
"","ITI","","html-keyboard-response","319","582010","0.0-1.0-432.0","0","0","87068","","null","","","null","47","","","","","","","","","","","","","","","NaN",""
"","block_over","","html-keyboard-response","320","587406","0.0-1.0-433.0-0.0","0","0","87068","","5394","","","32","47","","","","","","","","","","","","","","","",""
"","S1","","html-keyboard-response","321","587659","0.0-1.0-434.0","0","0","87068","","null","","","null","48","","","","","","","","","","","","","","","",""
"","ISI","","html-keyboard-response","322","589662","0.0-1.0-435.0","0","0","87068","","null","","","null","48","NaN","","","","","","","","","","","","","","",""
"","S2","","html-keyboard-response","323","589918","0.0-1.0-436.0","0","0","87068","","null","","","null","48","","NaN","","","","","","","","","","","","","",""
"","response","","html-keyboard-response","324","590256","0.0-1.0-437.0","0","0","87068","","335","","","75","48","","","2","48","training","adjacent","EF","5","6","L.jpg","O.jpg","0","1","0","",""
"","feedback","","html-keyboard-response","325","591258","0.0-1.0-438.0-0.0","0","0","87068","","null","","","null","48","","","","","","","","","","","","","","","",""
"","time_out","","html-keyboard-response","326","593261","0.0-1.0-440.0-0.0","0","0","87068","","null","","","null","48","","","","","","","","","","","","","","","",""
"","ITI","","html-keyboard-response","327","594266","0.0-1.0-441.0","0","0","87068","","null","","","null","48","","","","","","","","","","","","","","","NaN",""
"","S1","","html-keyboard-response","328","594521","0.0-1.0-443.0","0","0","87068","","null","","","null","49","","","","","","","","","","","","","","","",""
"","ISI","","html-keyboard-response","329","596524","0.0-1.0-444.0","0","0","87068","","null","","","null","49","NaN","","","","","","","","","","","","","","",""
"","S2","","html-keyboard-response","330","596779","0.0-1.0-445.0","0","0","87068","","null","","","null","49","","NaN","","","","","","","","","","","","","",""
"","response","","html-keyboard-response","331","597361","0.0-1.0-446.0","0","0","87068","","579","","","75","49","","","2","49","training","adjacent","DE","4","5","Q.jpg","L.jpg","0","1","0","",""
"","feedback","","html-keyboard-response","332","598364","0.0-1.0-447.0-0.0","0","0","87068","","null","","","null","49","","","","","","","","","","","","","","","",""
"","time_out","","html-keyboard-response","333","600367","0.0-1.0-449.0-0.0","0","0","87068","","null","","","null","49","","","","","","","","","","","","","","","",""
"","ITI","","html-keyboard-response","334","601369","0.0-1.0-450.0","0","0","87068","","null","","","null","49","","","","","","","","","","","","","","","NaN",""
"","S1","","html-keyboard-response","335","601621","0.0-1.0-452.0","0","0","87068","","null","","","null","50","","","","","","","","","","","","","","","",""
"","ISI","","html-keyboard-response","336","603628","0.0-1.0-453.0","0","0","87068","","null","","","null","50","NaN","","","","","","","","","","","","","","",""
"","S2","","html-keyboard-response","337","603885","0.0-1.0-454.0","0","0","87068","","null","","","null","50","","NaN","","","","","","","","","","","","","",""
"","response","","html-keyboard-response","338","605887","0.0-1.0-455.0","0","0","87068","","null","","","null","50","","","2","50","training","adjacent","ED","5","4","L.jpg","Q.jpg","NaN","0","0","",""
"","too_slow_prompt","","html-keyboard-response","339","606891","0.0-1.0-457.0-0.0","1","0","87068","","null","","","null","","","","","","","","","","","","","","","","",""
"","time_out","","html-keyboard-response","340","608894","0.0-1.0-458.0-0.0","0","0","87068","","null","","","null","50","","","","","","","","","","","","","","","",""
"","ITI","","html-keyboard-response","341","609899","0.0-1.0-459.0","0","0","87068","","null","","","null","50","","","","","","","","","","","","","","","NaN",""
"","S1","","html-keyboard-response","342","610155","0.0-1.0-461.0","0","0","87068","","null","","","null","51","","","","","","","","","","","","","","","",""
"","ISI","","html-keyboard-response","343","612159","0.0-1.0-462.0","0","0","87068","","null","","","null","51","NaN","","","","","","","","","","","","","","",""
"","S2","","html-keyboard-response","344","612412","0.0-1.0-463.0","0","0","87068","","null","","","null","51","","NaN","","","","","","","","","","","","","",""
"","response","","html-keyboard-response","345","612916","0.0-1.0-464.0","0","0","87068","","502","","","68","51","","","2","51","training","adjacent","GF","7","6","N.jpg","O.jpg","1","0","0","",""
"","feedback","","html-keyboard-response","346","613921","0.0-1.0-465.0-0.0","0","0","87068","","null","","","null","51","","","","","","","","","","","","","","","",""
"","time_out","","html-keyboard-response","347","615925","0.0-1.0-467.0-0.0","0","0","87068","","null","","","null","51","","","","","","","","","","","","","","","",""
"","ITI","","html-keyboard-response","348","616929","0.0-1.0-468.0","0","0","87068","","null","","","null","51","","","","","","","","","","","","","","","NaN",""
"","S1","","html-keyboard-response","349","617185","0.0-1.0-470.0","0","0","87068","","null","","","null","52","","","","","","","","","","","","","","","",""
"","ISI","","html-keyboard-response","350","619188","0.0-1.0-471.0","0","0","87068","","null","","","null","52","NaN","","","","","","","","","","","","","","",""
"","S2","","html-keyboard-response","351","619443","0.0-1.0-472.0","0","0","87068","","null","","","null","52","","NaN","","","","","","","","","","","","","",""
"","response","","html-keyboard-response","352","620307","0.0-1.0-473.0","0","0","87068","","862","","","68","52","","","2","52","training","adjacent","CD","3","4","M.jpg","Q.jpg","1","1","1","",""
"","feedback","","html-keyboard-response","353","621312","0.0-1.0-474.0-0.0","0","0","87068","","null","","","null","52","","","","","","","","","","","","","","","",""
"","ITI","","html-keyboard-response","354","622316","0.0-1.0-477.0","0","0","87068","","null","","","null","52","","","","","","","","","","","","","","","NaN",""
"","S1","","html-keyboard-response","355","622572","0.0-1.0-479.0","0","0","87068","","null","","","null","53","","","","","","","","","","","","","","","",""
"","ISI","","html-keyboard-response","356","624574","0.0-1.0-480.0","0","0","87068","","null","","","null","53","NaN","","","","","","","","","","","","","","",""
"","S2","","html-keyboard-response","357","624830","0.0-1.0-481.0","0","0","87068","","null","","","null","53","","NaN","","","","","","","","","","","","","",""
"","response","","html-keyboard-response","358","625730","0.0-1.0-482.0","0","0","87068","","899","","","75","53","","","2","53","training","adjacent","DC","4","3","Q.jpg","M.jpg","0","0","1","",""
"","feedback","","html-keyboard-response","359","626734","0.0-1.0-483.0-0.0","0","0","87068","","null","","","null","53","","","","","","","","","","","","","","","",""
"","ITI","","html-keyboard-response","360","627738","0.0-1.0-486.0","0","0","87068","","null","","","null","53","","","","","","","","","","","","","","","NaN",""
"","S1","","html-keyboard-response","361","627994","0.0-1.0-488.0","0","0","87068","","null","","","null","54","","","","","","","","","","","","","","","",""
"","ISI","","html-keyboard-response","362","630000","0.0-1.0-489.0","0","0","87068","","null","","","null","54","NaN","","","","","","","","","","","","","","",""
"","S2","","html-keyboard-response","363","630253","0.0-1.0-490.0","0","0","87068","","null","","","null","54","","NaN","","","","","","","","","","","","","",""
"","response","","html-keyboard-response","364","630737","0.0-1.0-491.0","0","0","87068","","482","","","75","54","","","2","54","training","adjacent","BC","2","3","R.jpg","M.jpg","0","1","0","",""
"","feedback","","html-keyboard-response","365","631744","0.0-1.0-492.0-0.0","0","0","87068","","null","","","null","54","","","","","","","","","","","","","","","",""
"","time_out","","html-keyboard-response","366","633746","0.0-1.0-494.0-0.0","0","0","87068","","null","","","null","54","","","","","","","","","","","","","","","",""
"","ITI","","html-keyboard-response","367","634751","0.0-1.0-495.0","0","0","87068","","null","","","null","54","","","","","","","","","","","","","","","NaN",""
"","S1","","html-keyboard-response","368","635006","0.0-1.0-497.0","0","0","87068","","null","","","null","55","","","","","","","","","","","","","","","",""
"","ISI","","html-keyboard-response","369","637009","0.0-1.0-498.0","0","0","87068","","null","","","null","55","NaN","","","","","","","","","","","","","","",""
"","S2","","html-keyboard-response","370","637266","0.0-1.0-499.0","0","0","87068","","null","","","null","55","","NaN","","","","","","","","","","","","","",""
"","response","","html-keyboard-response","371","637354","0.0-1.0-500.0","0","0","87068","","86","","","68","55","","","2","55","training","adjacent","BC","2","3","R.jpg","M.jpg","1","1","1","",""
"","feedback","","html-keyboard-response","372","638356","0.0-1.0-501.0-0.0","0","0","87068","","null","","","null","55","","","","","","","","","","","","","","","",""
"","ITI","","html-keyboard-response","373","639360","0.0-1.0-504.0","0","0","87068","","null","","","null","55","","","","","","","","","","","","","","","NaN",""
"","S1","","html-keyboard-response","374","639615","0.0-1.0-506.0","0","0","87068","","null","","","null","56","","","","","","","","","","","","","","","",""
"","ISI","","html-keyboard-response","375","641618","0.0-1.0-507.0","0","0","87068","","null","","","null","56","NaN","","","","","","","","","","","","","","",""
"","S2","","html-keyboard-response","376","641874","0.0-1.0-508.0","0","0","87068","","null","","","null","56","","NaN","","","","","","","","","","","","","",""
"","response","","html-keyboard-response","377","642348","0.0-1.0-509.0","0","0","87068","","473","","","68","56","","","2","56","training","adjacent","FE","6","5","O.jpg","L.jpg","1","0","0","",""
"","feedback","","html-keyboard-response","378","643354","0.0-1.0-510.0-0.0","0","0","87068","","null","","","null","56","","","","","","","","","","","","","","","",""
"","time_out","","html-keyboard-response","379","645356","0.0-1.0-512.0-0.0","0","0","87068","","null","","","null","56","","","","","","","","","","","","","","","",""
"","ITI","","html-keyboard-response","380","646361","0.0-1.0-513.0","0","0","87068","","null","","","null","56","","","","","","","","","","","","","","","NaN",""
"","S1","","html-keyboard-response","381","646616","0.0-1.0-515.0","0","0","87068","","null","","","null","57","","","","","","","","","","","","","","","",""
"","ISI","","html-keyboard-response","382","648619","0.0-1.0-516.0","0","0","87068","","null","","","null","57","NaN","","","","","","","","","","","","","","",""
"","S2","","html-keyboard-response","383","648874","0.0-1.0-517.0","0","0","87068","","null","","","null","57","","NaN","","","","","","","","","","","","","",""
"","response","","html-keyboard-response","384","648916","0.0-1.0-518.0","0","0","87068","","39","","","75","57","","","2","57","training","adjacent","FE","6","5","O.jpg","L.jpg","0","0","1","",""
"","feedback","","html-keyboard-response","385","649919","0.0-1.0-519.0-0.0","0","0","87068","","null","","","null","57","","","","","","","","","","","","","","","",""
"","ITI","","html-keyboard-response","386","650924","0.0-1.0-522.0","0","0","87068","","null","","","null","57","","","","","","","","","","","","","","","NaN",""
"","S1","","html-keyboard-response","387","651180","0.0-1.0-524.0","0","0","87068","","null","","","null","58","","","","","","","","","","","","","","","",""
"","ISI","","html-keyboard-response","388","653183","0.0-1.0-525.0","0","0","87068","","null","","","null","58","NaN","","","","","","","","","","","","","","",""
"","S2","","html-keyboard-response","389","653437","0.0-1.0-526.0","0","0","87068","","null","","","null","58","","NaN","","","","","","","","","","","","","",""
"","response","","html-keyboard-response","390","654309","0.0-1.0-527.0","0","0","87068","","870","","","68","58","","","2","58","training","adjacent","DC","4","3","Q.jpg","M.jpg","1","0","0","",""
"","feedback","","html-keyboard-response","391","655312","0.0-1.0-528.0-0.0","0","0","87068","","null","","","null","58","","","","","","","","","","","","","","","",""
"","time_out","","html-keyboard-response","392","657313","0.0-1.0-530.0-0.0","0","0","87068","","null","","","null","58","","","","","","","","","","","","","","","",""
"","ITI","","html-keyboard-response","393","658320","0.0-1.0-531.0","0","0","87068","","null","","","null","58","","","","","","","","","","","","","","","NaN",""
"","S1","","html-keyboard-response","394","658576","0.0-1.0-533.0","0","0","87068","","null","","","null","59","","","","","","","","","","","","","","","",""
"","ISI","","html-keyboard-response","395","660578","0.0-1.0-534.0","0","0","87068","","null","","","null","59","NaN","","","","","","","","","","","","","","",""
"","S2","","html-keyboard-response","396","660833","0.0-1.0-535.0","0","0","87068","","null","","","null","59","","NaN","","","","","","","","","","","","","",""
"","response","","html-keyboard-response","397","661590","0.0-1.0-536.0","0","0","87068","","755","","","75","59","","","2","59","training","adjacent","FG","6","7","O.jpg","N.jpg","0","1","0","",""
"","feedback","","html-keyboard-response","398","662593","0.0-1.0-537.0-0.0","0","0","87068","","null","","","null","59","","","","","","","","","","","","","","","",""
"","time_out","","html-keyboard-response","399","664597","0.0-1.0-539.0-0.0","0","0","87068","","null","","","null","59","","","","","","","","","","","","","","","",""
"","ITI","","html-keyboard-response","400","665599","0.0-1.0-540.0","0","0","87068","","null","","","null","59","","","","","","","","","","","","","","","NaN",""
"","S1","","html-keyboard-response","401","665855","0.0-1.0-542.0","0","0","87068","","null","","","null","60","","","","","","","","","","","","","","","",""
"","ISI","","html-keyboard-response","402","667858","0.0-1.0-543.0","0","0","87068","","null","","","null","60","NaN","","","","","","","","","","","","","","",""
"","S2","","html-keyboard-response","403","668114","0.0-1.0-544.0","0","0","87068","","null","","","null","60","","NaN","","","","","","","","","","","","","",""
"","response","","html-keyboard-response","404","668690","0.0-1.0-545.0","0","0","87068","","574","","","68","60","","","2","60","training","adjacent","FG","6","7","O.jpg","N.jpg","1","1","1","",""
"","feedback","","html-keyboard-response","405","669697","0.0-1.0-546.0-0.0","0","0","87068","","null","","","null","60","","","","","","","","","","","","","","","",""
"","ITI","","html-keyboard-response","406","670702","0.0-1.0-549.0","0","0","87068","","null","","","null","60","","","","","","","","","","","","","","","NaN",""
"","S1","","html-keyboard-response","407","670957","0.0-1.0-551.0","0","0","87068","","null","","","null","61","","","","","","","","","","","","","","","",""
"","ISI","","html-keyboard-response","408","672960","0.0-1.0-552.0","0","0","87068","","null","","","null","61","NaN","","","","","","","","","","","","","","",""
"","S2","","html-keyboard-response","409","673215","0.0-1.0-553.0","0","0","87068","","null","","","null","61","","NaN","","","","","","","","","","","","","",""
"","response","","html-keyboard-response","410","673691","0.0-1.0-554.0","0","0","87068","","474","","","68","61","","","2","61","training","adjacent","CD","3","4","M.jpg","Q.jpg","1","1","1","",""
"","feedback","","html-keyboard-response","411","674696","0.0-1.0-555.0-0.0","0","0","87068","","null","","","null","61","","","","","","","","","","","","","","","",""
"","ITI","","html-keyboard-response","412","675700","0.0-1.0-558.0","0","0","87068","","null","","","null","61","","","","","","","","","","","","","","","NaN",""
"","S1","","html-keyboard-response","413","675956","0.0-1.0-560.0","0","0","87068","","null","","","null","62","","","","","","","","","","","","","","","",""
"","ISI","","html-keyboard-response","414","677959","0.0-1.0-561.0","0","0","87068","","null","","","null","62","NaN","","","","","","","","","","","","","","",""
"","S2","","html-keyboard-response","415","678214","0.0-1.0-562.0","0","0","87068","","null","","","null","62","","NaN","","","","","","","","","","","","","",""
"","response","","html-keyboard-response","416","678648","0.0-1.0-563.0","0","0","87068","","432","","","75","62","","","2","62","training","adjacent","DC","4","3","Q.jpg","M.jpg","0","0","1","",""
"","feedback","","html-keyboard-response","417","679654","0.0-1.0-564.0-0.0","0","0","87068","","null","","","null","62","","","","","","","","","","","","","","","",""
"","ITI","","html-keyboard-response","418","680658","0.0-1.0-567.0","0","0","87068","","null","","","null","62","","","","","","","","","","","","","","","NaN",""
"","S1","","html-keyboard-response","419","680914","0.0-1.0-569.0","0","0","87068","","null","","","null","63","","","","","","","","","","","","","","","",""
"","ISI","","html-keyboard-response","420","682917","0.0-1.0-570.0","0","0","87068","","null","","","null","63","NaN","","","","","","","","","","","","","","",""
"","S2","","html-keyboard-response","421","683172","0.0-1.0-571.0","0","0","87068","","null","","","null","63","","NaN","","","","","","","","","","","","","",""
"","response","","html-keyboard-response","422","683903","0.0-1.0-572.0","0","0","87068","","729","","","75","63","","","2","63","training","adjacent","FG","6","7","O.jpg","N.jpg","0","1","0","",""
"","feedback","","html-keyboard-response","423","684907","0.0-1.0-573.0-0.0","0","0","87068","","null","","","null","63","","","","","","","","","","","","","","","",""
"","time_out","","html-keyboard-response","424","686910","0.0-1.0-575.0-0.0","0","0","87068","","null","","","null","63","","","","","","","","","","","","","","","",""
"","ITI","","html-keyboard-response","425","687915","0.0-1.0-576.0","0","0","87068","","null","","","null","63","","","","","","","","","","","","","","","NaN",""
"","S1","","html-keyboard-response","426","688170","0.0-1.0-578.0","0","0","87068","","null","","","null","64","","","","","","","","","","","","","","","",""
"","ISI","","html-keyboard-response","427","690173","0.0-1.0-579.0","0","0","87068","","null","","","null","64","NaN","","","","","","","","","","","","","","",""
"","S2","","html-keyboard-response","428","690429","0.0-1.0-580.0","0","0","87068","","null","","","null","64","","NaN","","","","","","","","","","","","","",""
"","response","","html-keyboard-response","429","690840","0.0-1.0-581.0","0","0","87068","","409","","","68","64","","","2","64","training","adjacent","CB","3","2","M.jpg","R.jpg","1","0","0","",""
"","feedback","","html-keyboard-response","430","691844","0.0-1.0-582.0-0.0","0","0","87068","","null","","","null","64","","","","","","","","","","","","","","","",""
"","time_out","","html-keyboard-response","431","693847","0.0-1.0-584.0-0.0","0","0","87068","","null","","","null","64","","","","","","","","","","","","","","","",""
"","ITI","","html-keyboard-response","432","694851","0.0-1.0-585.0","0","0","87068","","null","","","null","64","","","","","","","","","","","","","","","NaN",""
"","S1","","html-keyboard-response","433","695107","0.0-1.0-587.0","0","0","87068","","null","","","null","65","","","","","","","","","","","","","","","",""
"","ISI","","html-keyboard-response","434","697110","0.0-1.0-588.0","0","0","87068","","null","","","null","65","NaN","","","","","","","","","","","","","","",""
"","S2","","html-keyboard-response","435","697364","0.0-1.0-589.0","0","0","87068","","null","","","null","65","","NaN","","","","","","","","","","","","","",""
"","response","","html-keyboard-response","436","698029","0.0-1.0-590.0","0","0","87068","","663","","","75","65","","","2","65","training","adjacent","AB","1","2","P.jpg","R.jpg","0","1","0","",""
"","feedback","","html-keyboard-response","437","699035","0.0-1.0-591.0-0.0","0","0","87068","","null","","","null","65","","","","","","","","","","","","","","","",""
"","time_out","","html-keyboard-response","438","701040","0.0-1.0-593.0-0.0","0","0","87068","","null","","","null","65","","","","","","","","","","","","","","","",""
"","ITI","","html-keyboard-response","439","702045","0.0-1.0-594.0","0","0","87068","","null","","","null","65","","","","","","","","","","","","","","","NaN",""
"","S1","","html-keyboard-response","440","702301","0.0-1.0-596.0","0","0","87068","","null","","","null","66","","","","","","","","","","","","","","","",""
"","ISI","","html-keyboard-response","441","704309","0.0-1.0-597.0","0","0","87068","","null","","","null","66","NaN","","","","","","","","","","","","","","",""
"","S2","","html-keyboard-response","442","704564","0.0-1.0-598.0","0","0","87068","","null","","","null","66","","NaN","","","","","","","","","","","","","",""
"","response","","html-keyboard-response","443","705110","0.0-1.0-599.0","0","0","87068","","543","","","68","66","","","2","66","training","adjacent","FG","6","7","O.jpg","N.jpg","1","1","1","",""
"","feedback","","html-keyboard-response","444","706114","0.0-1.0-600.0-0.0","0","0","87068","","null","","","null","66","","","","","","","","","","","","","","","",""
"","ITI","","html-keyboard-response","445","707118","0.0-1.0-603.0","0","0","87068","","null","","","null","66","","","","","","","","","","","","","","","NaN",""
"","S1","","html-keyboard-response","446","707374","0.0-1.0-605.0","0","0","87068","","null","","","null","67","","","","","","","","","","","","","","","",""
"","ISI","","html-keyboard-response","447","709376","0.0-1.0-606.0","0","0","87068","","null","","","null","67","NaN","","","","","","","","","","","","","","",""
"","S2","","html-keyboard-response","448","709632","0.0-1.0-607.0","0","0","87068","","null","","","null","67","","NaN","","","","","","","","","","","","","",""
"","response","","html-keyboard-response","449","710214","0.0-1.0-608.0","0","0","87068","","581","","","68","67","","","2","67","training","adjacent","AB","1","2","P.jpg","R.jpg","1","1","1","",""
"","feedback","","html-keyboard-response","450","711217","0.0-1.0-609.0-0.0","0","0","87068","","null","","","null","67","","","","","","","","","","","","","","","",""
"","ITI","","html-keyboard-response","451","712221","0.0-1.0-612.0","0","0","87068","","null","","","null","67","","","","","","","","","","","","","","","NaN",""
"","S1","","html-keyboard-response","452","712476","0.0-1.0-614.0","0","0","87068","","null","","","null","68","","","","","","","","","","","","","","","",""
"","ISI","","html-keyboard-response","453","714479","0.0-1.0-615.0","0","0","87068","","null","","","null","68","NaN","","","","","","","","","","","","","","",""
"","S2","","html-keyboard-response","454","714734","0.0-1.0-616.0","0","0","87068","","null","","","null","68","","NaN","","","","","","","","","","","","","",""
"","response","","html-keyboard-response","455","715223","0.0-1.0-617.0","0","0","87068","","487","","","75","68","","","2","68","training","adjacent","BA","2","1","R.jpg","P.jpg","0","0","1","",""
"","feedback","","html-keyboard-response","456","716226","0.0-1.0-618.0-0.0","0","0","87068","","null","","","null","68","","","","","","","","","","","","","","","",""
"","ITI","","html-keyboard-response","457","717231","0.0-1.0-621.0","0","0","87068","","null","","","null","68","","","","","","","","","","","","","","","NaN",""
"","S1","","html-keyboard-response","458","717485","0.0-1.0-623.0","0","0","87068","","null","","","null","69","","","","","","","","","","","","","","","",""
"","ISI","","html-keyboard-response","459","719490","0.0-1.0-624.0","0","0","87068","","null","","","null","69","NaN","","","","","","","","","","","","","","",""
"","S2","","html-keyboard-response","460","719745","0.0-1.0-625.0","0","0","87068","","null","","","null","69","","NaN","","","","","","","","","","","","","",""
"","response","","html-keyboard-response","461","720549","0.0-1.0-626.0","0","0","87068","","801","","","68","69","","","2","69","training","adjacent","FE","6","5","O.jpg","L.jpg","1","0","0","",""
"","feedback","","html-keyboard-response","462","721555","0.0-1.0-627.0-0.0","0","0","87068","","null","","","null","69","","","","","","","","","","","","","","","",""
"","time_out","","html-keyboard-response","463","723560","0.0-1.0-629.0-0.0","0","0","87068","","null","","","null","69","","","","","","","","","","","","","","","",""
"","ITI","","html-keyboard-response","464","724562","0.0-1.0-630.0","0","0","87068","","null","","","null","69","","","","","","","","","","","","","","","NaN",""
"","S1","","html-keyboard-response","465","724817","0.0-1.0-632.0","0","0","87068","","null","","","null","70","","","","","","","","","","","","","","","",""
"","ISI","","html-keyboard-response","466","726821","0.0-1.0-633.0","0","0","87068","","null","","","null","70","NaN","","","","","","","","","","","","","","",""
"","S2","","html-keyboard-response","467","727076","0.0-1.0-634.0","0","0","87068","","null","","","null","70","","NaN","","","","","","","","","","","","","",""
"","response","","html-keyboard-response","468","727888","0.0-1.0-635.0","0","0","87068","","810","","","75","70","","","2","70","training","adjacent","EF","5","6","L.jpg","O.jpg","0","1","0","",""
"","feedback","","html-keyboard-response","469","728893","0.0-1.0-636.0-0.0","0","0","87068","","null","","","null","70","","","","","","","","","","","","","","","",""
"","time_out","","html-keyboard-response","470","730899","0.0-1.0-638.0-0.0","0","0","87068","","null","","","null","70","","","","","","","","","","","","","","","",""
"","ITI","","html-keyboard-response","471","731906","0.0-1.0-639.0","0","0","87068","","null","","","null","70","","","","","","","","","","","","","","","NaN",""
"","S1","","html-keyboard-response","472","732161","0.0-1.0-641.0","0","0","87068","","null","","","null","71","","","","","","","","","","","","","","","",""
"","ISI","","html-keyboard-response","473","734165","0.0-1.0-642.0","0","0","87068","","null","","","null","71","NaN","","","","","","","","","","","","","","",""
"","S2","","html-keyboard-response","474","734425","0.0-1.0-643.0","0","0","87068","","null","","","null","71","","NaN","","","","","","","","","","","","","",""
"","response","","html-keyboard-response","475","734988","0.0-1.0-644.0","0","0","87068","","561","","","68","71","","","2","71","training","adjacent","EF","5","6","L.jpg","O.jpg","1","1","1","",""
"","feedback","","html-keyboard-response","476","735993","0.0-1.0-645.0-0.0","0","0","87068","","null","","","null","71","","","","","","","","","","","","","","","",""
"","ITI","","html-keyboard-response","477","736997","0.0-1.0-648.0","0","0","87068","","null","","","null","71","","","","","","","","","","","","","","","NaN",""
"","S1","","html-keyboard-response","478","737253","0.0-1.0-650.0","0","0","87068","","null","","","null","72","","","","","","","","","","","","","","","",""
"","ISI","","html-keyboard-response","479","739255","0.0-1.0-651.0","0","0","87068","","null","","","null","72","NaN","","","","","","","","","","","","","","",""
"","S2","","html-keyboard-response","480","739510","0.0-1.0-652.0","0","0","87068","","null","","","null","72","","NaN","","","","","","","","","","","","","",""
"","response","","html-keyboard-response","481","741076","0.0-1.0-653.0","0","0","87068","","1564","","","68","72","","","2","72","training","adjacent","CB","3","2","M.jpg","R.jpg","1","0","0","",""
"","feedback","","html-keyboard-response","482","742083","0.0-1.0-654.0-0.0","0","0","87068","","null","","","null","72","","","","","","","","","","","","","","","",""
"","time_out","","html-keyboard-response","483","744091","0.0-1.0-656.0-0.0","0","0","87068","","null","","","null","72","","","","","","","","","","","","","","","",""
"","ITI","","html-keyboard-response","484","745096","0.0-1.0-657.0","0","0","87068","","null","","","null","72","","","","","","","","","","","","","","","NaN",""
"","S1","","html-keyboard-response","485","745352","0.0-1.0-659.0","0","0","87068","","null","","","null","73","","","","","","","","","","","","","","","",""
"","ISI","","html-keyboard-response","486","747358","0.0-1.0-660.0","0","0","87068","","null","","","null","73","NaN","","","","","","","","","","","","","","",""
"","S2","","html-keyboard-response","487","747615","0.0-1.0-661.0","0","0","87068","","null","","","null","73","","NaN","","","","","","","","","","","","","",""
"","response","","html-keyboard-response","488","747869","0.0-1.0-662.0","0","0","87068","","252","","","75","73","","","2","73","training","adjacent","ED","5","4","L.jpg","Q.jpg","0","0","1","",""
"","feedback","","html-keyboard-response","489","748874","0.0-1.0-663.0-0.0","0","0","87068","","null","","","null","73","","","","","","","","","","","","","","","",""
"","ITI","","html-keyboard-response","490","749878","0.0-1.0-666.0","0","0","87068","","null","","","null","73","","","","","","","","","","","","","","","NaN",""
"","S1","","html-keyboard-response","491","750134","0.0-1.0-668.0","0","0","87068","","null","","","null","74","","","","","","","","","","","","","","","",""
"","ISI","","html-keyboard-response","492","752136","0.0-1.0-669.0","0","0","87068","","null","","","null","74","NaN","","","","","","","","","","","","","","",""
"","S2","","html-keyboard-response","493","752394","0.0-1.0-670.0","0","0","87068","","null","","","null","74","","NaN","","","","","","","","","","","","","",""
"","response","","html-keyboard-response","494","752718","0.0-1.0-671.0","0","0","87068","","321","","","68","74","","","2","74","training","adjacent","DE","4","5","Q.jpg","L.jpg","1","1","1","",""
"","feedback","","html-keyboard-response","495","753721","0.0-1.0-672.0-0.0","0","0","87068","","null","","","null","74","","","","","","","","","","","","","","","",""
"","ITI","","html-keyboard-response","496","754726","0.0-1.0-675.0","0","0","87068","","null","","","null","74","","","","","","","","","","","","","","","NaN",""
"","S1","","html-keyboard-response","497","754981","0.0-1.0-677.0","0","0","87068","","null","","","null","75","","","","","","","","","","","","","","","",""
"","ISI","","html-keyboard-response","498","756984","0.0-1.0-678.0","0","0","87068","","null","","","null","75","NaN","","","","","","","","","","","","","","",""
"","S2","","html-keyboard-response","499","757239","0.0-1.0-679.0","0","0","87068","","null","","","null","75","","NaN","","","","","","","","","","","","","",""
"","response","","html-keyboard-response","500","757519","0.0-1.0-680.0","0","0","87068","","277","","","75","75","","","2","75","training","adjacent","BC","2","3","R.jpg","M.jpg","0","1","0","",""
"","feedback","","html-keyboard-response","501","758523","0.0-1.0-681.0-0.0","0","0","87068","","null","","","null","75","","","","","","","","","","","","","","","",""
"","time_out","","html-keyboard-response","502","760526","0.0-1.0-683.0-0.0","0","0","87068","","null","","","null","75","","","","","","","","","","","","","","","",""
"","ITI","","html-keyboard-response","503","761529","0.0-1.0-684.0","0","0","87068","","null","","","null","75","","","","","","","","","","","","","","","NaN",""
"","S1","","html-keyboard-response","504","761785","0.0-1.0-686.0","0","0","87068","","null","","","null","76","","","","","","","","","","","","","","","",""
"","ISI","","html-keyboard-response","505","763788","0.0-1.0-687.0","0","0","87068","","null","","","null","76","NaN","","","","","","","","","","","","","","",""
"","S2","","html-keyboard-response","506","764043","0.0-1.0-688.0","0","0","87068","","null","","","null","76","","NaN","","","","","","","","","","","","","",""
"","response","","html-keyboard-response","507","764355","0.0-1.0-689.0","0","0","87068","","310","","","75","76","","","2","76","training","adjacent","GF","7","6","N.jpg","O.jpg","0","0","1","",""
"","feedback","","html-keyboard-response","508","765361","0.0-1.0-690.0-0.0","0","0","87068","","null","","","null","76","","","","","","","","","","","","","","","",""
"","ITI","","html-keyboard-response","509","766365","0.0-1.0-693.0","0","0","87068","","null","","","null","76","","","","","","","","","","","","","","","NaN",""
"","S1","","html-keyboard-response","510","766622","0.0-1.0-695.0","0","0","87068","","null","","","null","77","","","","","","","","","","","","","","","",""
"","ISI","","html-keyboard-response","511","768626","0.0-1.0-696.0","0","0","87068","","null","","","null","77","NaN","","","","","","","","","","","","","","",""
"","S2","","html-keyboard-response","512","768880","0.0-1.0-697.0","0","0","87068","","null","","","null","77","","NaN","","","","","","","","","","","","","",""
"","response","","html-keyboard-response","513","769430","0.0-1.0-698.0","0","0","87068","","547","","","68","77","","","2","77","training","adjacent","GF","7","6","N.jpg","O.jpg","1","0","0","",""
"","feedback","","html-keyboard-response","514","770435","0.0-1.0-699.0-0.0","0","0","87068","","null","","","null","77","","","","","","","","","","","","","","","",""
"","time_out","","html-keyboard-response","515","772438","0.0-1.0-701.0-0.0","0","0","87068","","null","","","null","77","","","","","","","","","","","","","","","",""
"","ITI","","html-keyboard-response","516","773442","0.0-1.0-702.0","0","0","87068","","null","","","null","77","","","","","","","","","","","","","","","NaN",""
"","S1","","html-keyboard-response","517","773697","0.0-1.0-704.0","0","0","87068","","null","","","null","78","","","","","","","","","","","","","","","",""
"","ISI","","html-keyboard-response","518","775700","0.0-1.0-705.0","0","0","87068","","null","","","null","78","NaN","","","","","","","","","","","","","","",""
"","S2","","html-keyboard-response","519","775955","0.0-1.0-706.0","0","0","87068","","null","","","null","78","","NaN","","","","","","","","","","","","","",""
"","response","","html-keyboard-response","520","776125","0.0-1.0-707.0","0","0","87068","","169","","","75","78","","","2","78","training","adjacent","DE","4","5","Q.jpg","L.jpg","0","1","0","",""
"","feedback","","html-keyboard-response","521","777129","0.0-1.0-708.0-0.0","0","0","87068","","null","","","null","78","","","","","","","","","","","","","","","",""
"","time_out","","html-keyboard-response","522","779132","0.0-1.0-710.0-0.0","0","0","87068","","null","","","null","78","","","","","","","","","","","","","","","",""
"","ITI","","html-keyboard-response","523","780136","0.0-1.0-711.0","0","0","87068","","null","","","null","78","","","","","","","","","","","","","","","NaN",""
"","S1","","html-keyboard-response","524","780390","0.0-1.0-713.0","0","0","87068","","null","","","null","79","","","","","","","","","","","","","","","",""
"","ISI","","html-keyboard-response","525","782396","0.0-1.0-714.0","0","0","87068","","null","","","null","79","NaN","","","","","","","","","","","","","","",""
"","S2","","html-keyboard-response","526","782649","0.0-1.0-715.0","0","0","87068","","null","","","null","79","","NaN","","","","","","","","","","","","","",""
"","response","","html-keyboard-response","527","782696","0.0-1.0-716.0","0","0","87068","","46","","","75","79","","","2","79","training","adjacent","DC","4","3","Q.jpg","M.jpg","0","0","1","",""
"","feedback","","html-keyboard-response","528","783700","0.0-1.0-717.0-0.0","0","0","87068","","null","","","null","79","","","","","","","","","","","","","","","",""
"","ITI","","html-keyboard-response","529","784704","0.0-1.0-720.0","0","0","87068","","null","","","null","79","","","","","","","","","","","","","","","NaN",""
"","S1","","html-keyboard-response","530","784959","0.0-1.0-722.0","0","0","87068","","null","","","null","80","","","","","","","","","","","","","","","",""
"","ISI","","html-keyboard-response","531","786962","0.0-1.0-723.0","0","0","87068","","null","","","null","80","NaN","","","","","","","","","","","","","","",""
"","S2","","html-keyboard-response","532","787217","0.0-1.0-724.0","0","0","87068","","null","","","null","80","","NaN","","","","","","","","","","","","","",""
"","response","","html-keyboard-response","533","787808","0.0-1.0-725.0","0","0","87068","","589","","","68","80","","","2","80","training","adjacent","CD","3","4","M.jpg","Q.jpg","1","1","1","",""
"","feedback","","html-keyboard-response","534","788814","0.0-1.0-726.0-0.0","0","0","87068","","null","","","null","80","","","","","","","","","","","","","","","",""
"","ITI","","html-keyboard-response","535","789819","0.0-1.0-729.0","0","0","87068","","null","","","null","80","","","","","","","","","","","","","","","NaN",""
"","S1","","html-keyboard-response","536","790074","0.0-1.0-731.0","0","0","87068","","null","","","null","81","","","","","","","","","","","","","","","",""
"","ISI","","html-keyboard-response","537","792076","0.0-1.0-732.0","0","0","87068","","null","","","null","81","NaN","","","","","","","","","","","","","","",""
"","S2","","html-keyboard-response","538","792332","0.0-1.0-733.0","0","0","87068","","null","","","null","81","","NaN","","","","","","","","","","","","","",""
"","response","","html-keyboard-response","539","792647","0.0-1.0-734.0","0","0","87068","","312","","","68","81","","","2","81","training","adjacent","ED","5","4","L.jpg","Q.jpg","1","0","0","",""
"","feedback","","html-keyboard-response","540","793653","0.0-1.0-735.0-0.0","0","0","87068","","null","","","null","81","","","","","","","","","","","","","","","",""
"","time_out","","html-keyboard-response","541","795658","0.0-1.0-737.0-0.0","0","0","87068","","null","","","null","81","","","","","","","","","","","","","","","",""
"","ITI","","html-keyboard-response","542","796663","0.0-1.0-738.0","0","0","87068","","null","","","null","81","","","","","","","","","","","","","","","NaN",""
"","S1","","html-keyboard-response","543","796918","0.0-1.0-740.0","0","0","87068","","null","","","null","82","","","","","","","","","","","","","","","",""
"","ISI","","html-keyboard-response","544","798924","0.0-1.0-741.0","0","0","87068","","null","","","null","82","NaN","","","","","","","","","","","","","","",""
"","S2","","html-keyboard-response","545","799180","0.0-1.0-742.0","0","0","87068","","null","","","null","82","","NaN","","","","","","","","","","","","","",""
"","response","","html-keyboard-response","546","799591","0.0-1.0-743.0","0","0","87068","","409","","","75","82","","","2","82","training","adjacent","CB","3","2","M.jpg","R.jpg","0","0","1","",""
"","feedback","","html-keyboard-response","547","800598","0.0-1.0-744.0-0.0","0","0","87068","","null","","","null","82","","","","","","","","","","","","","","","",""
"","ITI","","html-keyboard-response","548","801603","0.0-1.0-747.0","0","0","87068","","null","","","null","82","","","","","","","","","","","","","","","NaN",""
"","S1","","html-keyboard-response","549","801858","0.0-1.0-749.0","0","0","87068","","null","","","null","83","","","","","","","","","","","","","","","",""
"","ISI","","html-keyboard-response","550","803861","0.0-1.0-750.0","0","0","87068","","null","","","null","83","NaN","","","","","","","","","","","","","","",""
"","S2","","html-keyboard-response","551","804117","0.0-1.0-751.0","0","0","87068","","null","","","null","83","","NaN","","","","","","","","","","","","","",""
"","response","","html-keyboard-response","552","804490","0.0-1.0-752.0","0","0","87068","","371","","","75","83","","","2","83","training","adjacent","DE","4","5","Q.jpg","L.jpg","0","1","0","",""
"","feedback","","html-keyboard-response","553","805492","0.0-1.0-753.0-0.0","0","0","87068","","null","","","null","83","","","","","","","","","","","","","","","",""
"","time_out","","html-keyboard-response","554","807495","0.0-1.0-755.0-0.0","0","0","87068","","null","","","null","83","","","","","","","","","","","","","","","",""
"","ITI","","html-keyboard-response","555","808500","0.0-1.0-756.0","0","0","87068","","null","","","null","83","","","","","","","","","","","","","","","NaN",""
"","S1","","html-keyboard-response","556","808756","0.0-1.0-758.0","0","0","87068","","null","","","null","84","","","","","","","","","","","","","","","",""
"","ISI","","html-keyboard-response","557","810763","0.0-1.0-759.0","0","0","87068","","null","","","null","84","NaN","","","","","","","","","","","","","","",""
"","S2","","html-keyboard-response","558","811018","0.0-1.0-760.0","0","0","87068","","null","","","null","84","","NaN","","","","","","","","","","","","","",""
"","response","","html-keyboard-response","559","811253","0.0-1.0-761.0","0","0","87068","","232","","","75","84","","","2","84","training","adjacent","GF","7","6","N.jpg","O.jpg","0","0","1","",""
"","feedback","","html-keyboard-response","560","812257","0.0-1.0-762.0-0.0","0","0","87068","","null","","","null","84","","","","","","","","","","","","","","","",""
"","ITI","","html-keyboard-response","561","813261","0.0-1.0-765.0","0","0","87068","","null","","","null","84","","","","","","","","","","","","","","","NaN",""
"","S1","","html-keyboard-response","562","813515","0.0-1.0-767.0","0","0","87068","","null","","","null","85","","","","","","","","","","","","","","","",""
"","ISI","","html-keyboard-response","563","815518","0.0-1.0-768.0","0","0","87068","","null","","","null","85","NaN","","","","","","","","","","","","","","",""
"","S2","","html-keyboard-response","564","815773","0.0-1.0-769.0","0","0","87068","","null","","","null","85","","NaN","","","","","","","","","","","","","",""
"","response","","html-keyboard-response","565","816653","0.0-1.0-770.0","0","0","87068","","879","","","68","85","","","2","85","training","adjacent","CB","3","2","M.jpg","R.jpg","1","0","0","",""
"","feedback","","html-keyboard-response","566","817660","0.0-1.0-771.0-0.0","0","0","87068","","null","","","null","85","","","","","","","","","","","","","","","",""
"","time_out","","html-keyboard-response","567","819663","0.0-1.0-773.0-0.0","0","0","87068","","null","","","null","85","","","","","","","","","","","","","","","",""
"","ITI","","html-keyboard-response","568","820667","0.0-1.0-774.0","0","0","87068","","null","","","null","85","","","","","","","","","","","","","","","NaN",""
"","S1","","html-keyboard-response","569","820922","0.0-1.0-776.0","0","0","87068","","null","","","null","86","","","","","","","","","","","","","","","",""
"","ISI","","html-keyboard-response","570","822925","0.0-1.0-777.0","0","0","87068","","null","","","null","86","NaN","","","","","","","","","","","","","","",""
"","S2","","html-keyboard-response","571","823181","0.0-1.0-778.0","0","0","87068","","null","","","null","86","","NaN","","","","","","","","","","","","","",""
"","response","","html-keyboard-response","572","823650","0.0-1.0-779.0","0","0","87068","","467","","","68","86","","","2","86","training","adjacent","EF","5","6","L.jpg","O.jpg","1","1","1","",""
"","feedback","","html-keyboard-response","573","824655","0.0-1.0-780.0-0.0","0","0","87068","","null","","","null","86","","","","","","","","","","","","","","","",""
"","ITI","","html-keyboard-response","574","825659","0.0-1.0-783.0","0","0","87068","","null","","","null","86","","","","","","","","","","","","","","","NaN",""
"","S1","","html-keyboard-response","575","825915","0.0-1.0-785.0","0","0","87068","","null","","","null","87","","","","","","","","","","","","","","","",""
"","ISI","","html-keyboard-response","576","827918","0.0-1.0-786.0","0","0","87068","","null","","","null","87","NaN","","","","","","","","","","","","","","",""
"","S2","","html-keyboard-response","577","828173","0.0-1.0-787.0","0","0","87068","","null","","","null","87","","NaN","","","","","","","","","","","","","",""
"","response","","html-keyboard-response","578","829196","0.0-1.0-788.0","0","0","87068","","1021","","","75","87","","","2","87","training","adjacent","CD","3","4","M.jpg","Q.jpg","0","1","0","",""
"","feedback","","html-keyboard-response","579","830199","0.0-1.0-789.0-0.0","0","0","87068","","null","","","null","87","","","","","","","","","","","","","","","",""
"","time_out","","html-keyboard-response","580","832202","0.0-1.0-791.0-0.0","0","0","87068","","null","","","null","87","","","","","","","","","","","","","","","",""
