"success","ttype","start_time","trial_type","trial_index","time_elapsed","internal_node_id","warning","missed_checkup","PID","view_history","rt","responses","repeat_instructions","key_press","index","keypress_isi","keypress_S2","block","trial_num","phase","group_type","pair_type","S1_stim","S2_stim","S1_img","S2_img","S1_chosen","S1_higher","accuracy","keypress_iti","total_bonus_tally"
"true","full_screen","d07292022hr1934","fullscreen","0","17341","0.0-0.0","0","0","61830","","","","","","","","","","","","","","","","","","","","","",""
"","instructions","","instructions","1","134667","0.0-1.0-0.0-0.0","0","0","61830","[{""page_index"":0,""viewing_time"":19966},{""page_index"":1,""viewing_time"":88331},{""page_index"":2,""viewing_time"":7581},{""page_index"":3,""viewing_time"":1447}]","117325","","","","","","","","","","","","","","","","","","","",""
"","comprehension_check","","survey-multi-choice","2","160113","0.0-1.0-0.0-1.0","0","0","61830","","25442","{""Q0"":""True"",""Q1"":""D"",""Q2"":""When you see the prompt 'MAKE A CHOICE' after the second image was presented"",""Q3"":""Green mark"",""Q4"":""either D or K""}","0","","","","","","","","","","","","","","","","","",""
"","start_exp","","html-keyboard-response","3","163078","0.0-1.0-1.0","0","0","61830","","2962","","","32","","","","","","","","","","","","","","","","",""
"","S1","","html-keyboard-response","4","163330","0.0-1.0-2.0","0","0","61830","","null","","","null","0","","","","","","","","","","","","","","","",""
"","ISI","","html-keyboard-response","5","165332","0.0-1.0-3.0","0","0","61830","","null","","","null","0","NaN","","","","","","","","","","","","","","",""
"","S2","","html-keyboard-response","6","165584","0.0-1.0-4.0","0","0","61830","","null","","","null","0","","NaN","","","","","","","","","","","","","",""
"","response","","html-keyboard-response","7","166418","0.0-1.0-5.0","0","0","61830","","832","","","75","0","","","1","0","training","adjacent","BA","2","1","M.jpg","O.jpg","0","0","1","",""
"","feedback","","html-keyboard-response","8","167420","0.0-1.0-6.0-0.0","0","0","61830","","null","","","null","0","","","","","","","","","","","","","","","",""
"","ITI","","html-keyboard-response","9","168422","0.0-1.0-9.0","0","0","61830","","null","","","null","0","","","","","","","","","","","","","","","NaN",""
"","S1","","html-keyboard-response","10","168674","0.0-1.0-11.0","0","0","61830","","null","","","null","1","","","","","","","","","","","","","","","",""
"","ISI","","html-keyboard-response","11","170676","0.0-1.0-12.0","0","0","61830","","null","","","null","1","NaN","","","","","","","","","","","","","","",""
"","S2","","html-keyboard-response","12","170927","0.0-1.0-13.0","0","0","61830","","null","","","null","1","","NaN","","","","","","","","","","","","","",""
"","response","","html-keyboard-response","13","171550","0.0-1.0-14.0","0","0","61830","","622","","","68","1","","","1","1","training","adjacent","FE","6","5","N.jpg","L.jpg","1","0","0","",""
"","feedback","","html-keyboard-response","14","172552","0.0-1.0-15.0-0.0","0","0","61830","","null","","","null","1","","","","","","","","","","","","","","","",""
"","time_out","","html-keyboard-response","15","174554","0.0-1.0-17.0-0.0","0","0","61830","","null","","","null","1","","","","","","","","","","","","","","","",""
"","ITI","","html-keyboard-response","16","175556","0.0-1.0-18.0","0","0","61830","","null","","","null","1","","","","","","","","","","","","","","","NaN",""
"","S1","","html-keyboard-response","17","175807","0.0-1.0-20.0","0","0","61830","","null","","","null","2","","","","","","","","","","","","","","","",""
"","ISI","","html-keyboard-response","18","177809","0.0-1.0-21.0","0","0","61830","","null","","","null","2","NaN","","","","","","","","","","","","","","",""
"","S2","","html-keyboard-response","19","178060","0.0-1.0-22.0","0","0","61830","","null","","","null","2","","NaN","","","","","","","","","","","","","",""
"","response","","html-keyboard-response","20","178416","0.0-1.0-23.0","0","0","61830","","355","","","68","2","","","1","2","training","adjacent","AB","1","2","O.jpg","M.jpg","1","1","1","",""
"","feedback","","html-keyboard-response","21","179418","0.0-1.0-24.0-0.0","0","0","61830","","null","","","null","2","","","","","","","","","","","","","","","",""
"","ITI","","html-keyboard-response","22","180420","0.0-1.0-27.0","0","0","61830","","null","","","null","2","","","","","","","","","","","","","","","NaN",""
"","S1","","html-keyboard-response","23","180672","0.0-1.0-29.0","0","0","61830","","null","","","null","3","","","","","","","","","","","","","","","",""
"","ISI","","html-keyboard-response","24","182673","0.0-1.0-30.0","0","0","61830","","null","","","null","3","NaN","","","","","","","","","","","","","","",""
"","S2","","html-keyboard-response","25","182924","0.0-1.0-31.0","0","0","61830","","null","","","null","3","","NaN","","","","","","","","","","","","","",""
"","response","","html-keyboard-response","26","183507","0.0-1.0-32.0","0","0","61830","","581","","","68","3","","","1","3","training","adjacent","DE","4","5","Q.jpg","L.jpg","1","1","1","",""
"","feedback","","html-keyboard-response","27","184509","0.0-1.0-33.0-0.0","0","0","61830","","null","","","null","3","","","","","","","","","","","","","","","",""
"","ITI","","html-keyboard-response","28","185511","0.0-1.0-36.0","0","0","61830","","null","","","null","3","","","","","","","","","","","","","","","NaN",""
"","S1","","html-keyboard-response","29","185767","0.0-1.0-38.0","0","0","61830","","null","","","null","4","","","","","","","","","","","","","","","",""
"","ISI","","html-keyboard-response","30","187769","0.0-1.0-39.0","0","0","61830","","null","","","null","4","NaN","","","","","","","","","","","","","","",""
"","S2","","html-keyboard-response","31","188021","0.0-1.0-40.0","0","0","61830","","null","","","null","4","","NaN","","","","","","","","","","","","","",""
"","response","","html-keyboard-response","32","188716","0.0-1.0-41.0","0","0","61830","","695","","","68","4","","","1","4","training","adjacent","GF","7","6","R.jpg","N.jpg","1","0","0","",""
"","feedback","","html-keyboard-response","33","189718","0.0-1.0-42.0-0.0","0","0","61830","","null","","","null","4","","","","","","","","","","","","","","","",""
"","time_out","","html-keyboard-response","34","191720","0.0-1.0-44.0-0.0","0","0","61830","","null","","","null","4","","","","","","","","","","","","","","","",""
"","ITI","","html-keyboard-response","35","192721","0.0-1.0-45.0","0","0","61830","","null","","","null","4","","","","","","","","","","","","","","","NaN",""
"","S1","","html-keyboard-response","36","192973","0.0-1.0-47.0","0","0","61830","","null","","","null","5","","","","","","","","","","","","","","","",""
"","ISI","","html-keyboard-response","37","194975","0.0-1.0-48.0","0","0","61830","","null","","","null","5","NaN","","","","","","","","","","","","","","",""
"","S2","","html-keyboard-response","38","195227","0.0-1.0-49.0","0","0","61830","","null","","","null","5","","NaN","","","","","","","","","","","","","",""
"","response","","html-keyboard-response","39","195612","0.0-1.0-50.0","0","0","61830","","385","","","75","5","","","1","5","training","adjacent","BC","2","3","M.jpg","P.jpg","0","1","0","",""
"","feedback","","html-keyboard-response","40","196615","0.0-1.0-51.0-0.0","0","0","61830","","null","","","null","5","","","","","","","","","","","","","","","",""
"","time_out","","html-keyboard-response","41","198617","0.0-1.0-53.0-0.0","0","0","61830","","null","","","null","5","","","","","","","","","","","","","","","",""
"","ITI","","html-keyboard-response","42","199618","0.0-1.0-54.0","0","0","61830","","null","","","null","5","","","","","","","","","","","","","","","NaN",""
"","S1","","html-keyboard-response","43","199870","0.0-1.0-56.0","0","0","61830","","null","","","null","6","","","","","","","","","","","","","","","",""
"","ISI","","html-keyboard-response","44","201872","0.0-1.0-57.0","0","0","61830","","null","","","null","6","NaN","","","","","","","","","","","","","","",""
"","S2","","html-keyboard-response","45","202124","0.0-1.0-58.0","0","0","61830","","null","","","null","6","","NaN","","","","","","","","","","","","","",""
"","response","","html-keyboard-response","46","202424","0.0-1.0-59.0","0","0","61830","","299","","","75","6","","","1","6","training","adjacent","FG","6","7","N.jpg","R.jpg","0","1","0","",""
"","feedback","","html-keyboard-response","47","203427","0.0-1.0-60.0-0.0","0","0","61830","","null","","","null","6","","","","","","","","","","","","","","","",""
"","time_out","","html-keyboard-response","48","205429","0.0-1.0-62.0-0.0","0","0","61830","","null","","","null","6","","","","","","","","","","","","","","","",""
"","ITI","","html-keyboard-response","49","206431","0.0-1.0-63.0","0","0","61830","","null","","","null","6","","","","","","","","","","","","","","","NaN",""
"","S1","","html-keyboard-response","50","206682","0.0-1.0-65.0","0","0","61830","","null","","","null","7","","","","","","","","","","","","","","","",""
"","ISI","","html-keyboard-response","51","208684","0.0-1.0-66.0","0","0","61830","","null","","","null","7","NaN","","","","","","","","","","","","","","",""
"","S2","","html-keyboard-response","52","208951","0.0-1.0-67.0","0","0","61830","","null","","","null","7","","NaN","","","","","","","","","","","","","",""
"","response","","html-keyboard-response","53","209654","0.0-1.0-68.0","0","0","61830","","701","","","68","7","","","1","7","training","adjacent","CD","3","4","P.jpg","Q.jpg","1","1","1","",""
"","feedback","","html-keyboard-response","54","210656","0.0-1.0-69.0-0.0","0","0","61830","","null","","","null","7","","","","","","","","","","","","","","","",""
"","ITI","","html-keyboard-response","55","211658","0.0-1.0-72.0","0","0","61830","","null","","","null","7","","","","","","","","","","","","","","","NaN",""
"","S1","","html-keyboard-response","56","211910","0.0-1.0-74.0","0","0","61830","","null","","","null","8","","","","","","","","","","","","","","","",""
"","ISI","","html-keyboard-response","57","213911","0.0-1.0-75.0","0","0","61830","","null","","","null","8","NaN","","","","","","","","","","","","","","",""
"","S2","","html-keyboard-response","58","214163","0.0-1.0-76.0","0","0","61830","","null","","","null","8","","NaN","","","","","","","","","","","","","",""
"","response","","html-keyboard-response","59","214709","0.0-1.0-77.0","0","0","61830","","546","","","68","8","","","1","8","training","adjacent","DC","4","3","Q.jpg","P.jpg","1","0","0","",""
"","feedback","","html-keyboard-response","60","215712","0.0-1.0-78.0-0.0","0","0","61830","","null","","","null","8","","","","","","","","","","","","","","","",""
"","time_out","","html-keyboard-response","61","217714","0.0-1.0-80.0-0.0","0","0","61830","","null","","","null","8","","","","","","","","","","","","","","","",""
"","ITI","","html-keyboard-response","62","218716","0.0-1.0-81.0","0","0","61830","","null","","","null","8","","","","","","","","","","","","","","","NaN",""
"","S1","","html-keyboard-response","63","218967","0.0-1.0-83.0","0","0","61830","","null","","","null","9","","","","","","","","","","","","","","","",""
"","ISI","","html-keyboard-response","64","220969","0.0-1.0-84.0","0","0","61830","","null","","","null","9","NaN","","","","","","","","","","","","","","",""
"","S2","","html-keyboard-response","65","221221","0.0-1.0-85.0","0","0","61830","","null","","","null","9","","NaN","","","","","","","","","","","","","",""
"","response","","html-keyboard-response","66","221671","0.0-1.0-86.0","0","0","61830","","448","","","68","9","","","1","9","training","adjacent","EF","5","6","L.jpg","N.jpg","1","1","1","",""
"","feedback","","html-keyboard-response","67","222673","0.0-1.0-87.0-0.0","0","0","61830","","null","","","null","9","","","","","","","","","","","","","","","",""
"","ITI","","html-keyboard-response","68","223676","0.0-1.0-90.0","0","0","61830","","null","","","null","9","","","","","","","","","","","","","","","NaN",""
"","S1","","html-keyboard-response","69","223928","0.0-1.0-92.0","0","0","61830","","null","","","null","10","","","","","","","","","","","","","","","",""
"","ISI","","html-keyboard-response","70","225930","0.0-1.0-93.0","0","0","61830","","null","","","null","10","NaN","","","","","","","","","","","","","","",""
"","S2","","html-keyboard-response","71","226182","0.0-1.0-94.0","0","0","61830","","null","","","null","10","","NaN","","","","","","","","","","","","","",""
"","response","","html-keyboard-response","72","226611","0.0-1.0-95.0","0","0","61830","","429","","","68","10","","","1","10","training","adjacent","BC","2","3","M.jpg","P.jpg","1","1","1","",""
"","feedback","","html-keyboard-response","73","227613","0.0-1.0-96.0-0.0","0","0","61830","","null","","","null","10","","","","","","","","","","","","","","","",""
"","ITI","","html-keyboard-response","74","228615","0.0-1.0-99.0","0","0","61830","","null","","","null","10","","","","","","","","","","","","","","","NaN",""
"","S1","","html-keyboard-response","75","228867","0.0-1.0-101.0","0","0","61830","","null","","","null","11","","","","","","","","","","","","","","","",""
"","ISI","","html-keyboard-response","76","230869","0.0-1.0-102.0","0","0","61830","","null","","","null","11","NaN","","","","","","","","","","","","","","",""
"","S2","","html-keyboard-response","77","231121","0.0-1.0-103.0","0","0","61830","","null","","","null","11","","NaN","","","","","","","","","","","","","",""
"","response","","html-keyboard-response","78","231705","0.0-1.0-104.0","0","0","61830","","583","","","68","11","","","1","11","training","adjacent","EF","5","6","L.jpg","N.jpg","1","1","1","",""
"","feedback","","html-keyboard-response","79","232708","0.0-1.0-105.0-0.0","0","0","61830","","null","","","null","11","","","","","","","","","","","","","","","",""
"","ITI","","html-keyboard-response","80","233710","0.0-1.0-108.0","0","0","61830","","null","","","null","11","","","","","","","","","","","","","","","NaN",""
"","S1","","html-keyboard-response","81","233961","0.0-1.0-110.0","0","0","61830","","null","","","null","12","","","","","","","","","","","","","","","",""
"","ISI","","html-keyboard-response","82","235963","0.0-1.0-111.0","0","0","61830","","null","","","null","12","NaN","","","","","","","","","","","","","","",""
"","S2","","html-keyboard-response","83","236222","0.0-1.0-112.0","0","0","61830","","null","","","null","12","","NaN","","","","","","","","","","","","","",""
"","response","","html-keyboard-response","84","237077","0.0-1.0-113.0","0","0","61830","","853","","","75","12","","","1","12","training","adjacent","DE","4","5","Q.jpg","L.jpg","0","1","0","",""
"","feedback","","html-keyboard-response","85","238079","0.0-1.0-114.0-0.0","0","0","61830","","null","","","null","12","","","","","","","","","","","","","","","",""
"","time_out","","html-keyboard-response","86","240080","0.0-1.0-116.0-0.0","0","0","61830","","null","","","null","12","","","","","","","","","","","","","","","",""
"","ITI","","html-keyboard-response","87","241083","0.0-1.0-117.0","0","0","61830","","null","","","null","12","","","","","","","","","","","","","","","NaN",""
"","S1","","html-keyboard-response","88","241335","0.0-1.0-119.0","0","0","61830","","null","","","null","13","","","","","","","","","","","","","","","",""
"","ISI","","html-keyboard-response","89","243337","0.0-1.0-120.0","0","0","61830","","null","","","null","13","NaN","","","","","","","","","","","","","","",""
"","S2","","html-keyboard-response","90","243588","0.0-1.0-121.0","0","0","61830","","null","","","null","13","","NaN","","","","","","","","","","","","","",""
"","response","","html-keyboard-response","91","244106","0.0-1.0-122.0","0","0","61830","","517","","","68","13","","","1","13","training","adjacent","CB","3","2","P.jpg","M.jpg","1","0","0","",""
"","feedback","","html-keyboard-response","92","245118","0.0-1.0-123.0-0.0","0","0","61830","","null","","","null","13","","","","","","","","","","","","","","","",""
"","time_out","","html-keyboard-response","93","247120","0.0-1.0-125.0-0.0","0","0","61830","","null","","","null","13","","","","","","","","","","","","","","","",""
"","ITI","","html-keyboard-response","94","248122","0.0-1.0-126.0","0","0","61830","","null","","","null","13","","","","","","","","","","","","","","","NaN",""
"","S1","","html-keyboard-response","95","248375","0.0-1.0-128.0","0","0","61830","","null","","","null","14","","","","","","","","","","","","","","","",""
"","ISI","","html-keyboard-response","96","250377","0.0-1.0-129.0","0","0","61830","","null","","","null","14","NaN","","","","","","","","","","","","","","",""
"","S2","","html-keyboard-response","97","250629","0.0-1.0-130.0","0","0","61830","","null","","","null","14","","NaN","","","","","","","","","","","","","",""
"","response","","html-keyboard-response","98","251132","0.0-1.0-131.0","0","0","61830","","502","","","68","14","","","1","14","training","adjacent","CB","3","2","P.jpg","M.jpg","1","0","0","",""
"","feedback","","html-keyboard-response","99","252135","0.0-1.0-132.0-0.0","0","0","61830","","null","","","null","14","","","","","","","","","","","","","","","",""
"","time_out","","html-keyboard-response","100","254136","0.0-1.0-134.0-0.0","0","0","61830","","null","","","null","14","","","","","","","","","","","","","","","",""
"","ITI","","html-keyboard-response","101","255138","0.0-1.0-135.0","0","0","61830","","null","","","null","14","","","","","","","","","","","","","","","NaN",""
"","S1","","html-keyboard-response","102","255390","0.0-1.0-137.0","0","0","61830","","null","","","null","15","","","","","","","","","","","","","","","",""
"","ISI","","html-keyboard-response","103","257392","0.0-1.0-138.0","0","0","61830","","null","","","null","15","NaN","","","","","","","","","","","","","","",""
"","S2","","html-keyboard-response","104","257644","0.0-1.0-139.0","0","0","61830","","null","","","null","15","","NaN","","","","","","","","","","","","","",""
"","response","","html-keyboard-response","105","258912","0.0-1.0-140.0","0","0","61830","","1267","","","68","15","","","1","15","training","adjacent","ED","5","4","L.jpg","Q.jpg","1","0","0","",""
"","feedback","","html-keyboard-response","106","259914","0.0-1.0-141.0-0.0","0","0","61830","","null","","","null","15","","","","","","","","","","","","","","","",""
"","time_out","","html-keyboard-response","107","261915","0.0-1.0-143.0-0.0","0","0","61830","","null","","","null","15","","","","","","","","","","","","","","","",""
"","ITI","","html-keyboard-response","108","262918","0.0-1.0-144.0","0","0","61830","","null","","","null","15","","","","","","","","","","","","","","","NaN",""
"","S1","","html-keyboard-response","109","263170","0.0-1.0-146.0","0","0","61830","","null","","","null","16","","","","","","","","","","","","","","","",""
"","ISI","","html-keyboard-response","110","265171","0.0-1.0-147.0","0","0","61830","","null","","","null","16","NaN","","","","","","","","","","","","","","",""
"","S2","","html-keyboard-response","111","265423","0.0-1.0-148.0","0","0","61830","","null","","","null","16","","NaN","","","","","","","","","","","","","",""
"","response","","html-keyboard-response","112","265874","0.0-1.0-149.0","0","0","61830","","449","","","68","16","","","1","16","training","adjacent","AB","1","2","O.jpg","M.jpg","1","1","1","",""
"","feedback","","html-keyboard-response","113","266876","0.0-1.0-150.0-0.0","0","0","61830","","null","","","null","16","","","","","","","","","","","","","","","",""
"","ITI","","html-keyboard-response","114","267877","0.0-1.0-153.0","0","0","61830","","null","","","null","16","","","","","","","","","","","","","","","NaN",""
"","S1","","html-keyboard-response","115","268129","0.0-1.0-155.0","0","0","61830","","null","","","null","17","","","","","","","","","","","","","","","",""
"","ISI","","html-keyboard-response","116","270131","0.0-1.0-156.0","0","0","61830","","null","","","null","17","NaN","","","","","","","","","","","","","","",""
"","S2","","html-keyboard-response","117","270383","0.0-1.0-157.0","0","0","61830","","null","","","null","17","","NaN","","","","","","","","","","","","","",""
"","response","","html-keyboard-response","118","271242","0.0-1.0-158.0","0","0","61830","","857","","","75","17","","","1","17","training","adjacent","CB","3","2","P.jpg","M.jpg","0","0","1","",""
"","feedback","","html-keyboard-response","119","272245","0.0-1.0-159.0-0.0","0","0","61830","","null","","","null","17","","","","","","","","","","","","","","","",""
"","ITI","","html-keyboard-response","120","273247","0.0-1.0-162.0","0","0","61830","","null","","","null","17","","","","","","","","","","","","","","","NaN",""
"","S1","","html-keyboard-response","121","273499","0.0-1.0-164.0","0","0","61830","","null","","","null","18","","","","","","","","","","","","","","","",""
"","ISI","","html-keyboard-response","122","275501","0.0-1.0-165.0","0","0","61830","","null","","","null","18","NaN","","","","","","","","","","","","","","",""
"","S2","","html-keyboard-response","123","275753","0.0-1.0-166.0","0","0","61830","","null","","","null","18","","NaN","","","","","","","","","","","","","",""
"","response","","html-keyboard-response","124","276613","0.0-1.0-167.0","0","0","61830","","858","","","68","18","","","1","18","training","adjacent","DC","4","3","Q.jpg","P.jpg","1","0","0","",""
"","feedback","","html-keyboard-response","125","277615","0.0-1.0-168.0-0.0","0","0","61830","","null","","","null","18","","","","","","","","","","","","","","","",""
"","time_out","","html-keyboard-response","126","279617","0.0-1.0-170.0-0.0","0","0","61830","","null","","","null","18","","","","","","","","","","","","","","","",""
"","ITI","","html-keyboard-response","127","280619","0.0-1.0-171.0","0","0","61830","","null","","","null","18","","","","","","","","","","","","","","","NaN",""
"","S1","","html-keyboard-response","128","280872","0.0-1.0-173.0","0","0","61830","","null","","","null","19","","","","","","","","","","","","","","","",""
"","ISI","","html-keyboard-response","129","282873","0.0-1.0-174.0","0","0","61830","","null","","","null","19","NaN","","","","","","","","","","","","","","",""
"","S2","","html-keyboard-response","130","283125","0.0-1.0-175.0","0","0","61830","","null","","","null","19","","NaN","","","","","","","","","","","","","",""
"","response","","html-keyboard-response","131","284088","0.0-1.0-176.0","0","0","61830","","962","","","68","19","","","1","19","training","adjacent","BC","2","3","M.jpg","P.jpg","1","1","1","",""
"","feedback","","html-keyboard-response","132","285091","0.0-1.0-177.0-0.0","0","0","61830","","null","","","null","19","","","","","","","","","","","","","","","",""
"","ITI","","html-keyboard-response","133","286092","0.0-1.0-180.0","0","0","61830","","null","","","null","19","","","","","","","","","","","","","","","NaN",""
"","S1","","html-keyboard-response","134","286344","0.0-1.0-182.0","0","0","61830","","null","","","null","20","","","","","","","","","","","","","","","",""
"","ISI","","html-keyboard-response","135","288346","0.0-1.0-183.0","0","0","61830","","null","","","null","20","NaN","","","","","","","","","","","","","","",""
"","S2","","html-keyboard-response","136","288598","0.0-1.0-184.0","0","0","61830","","null","","","null","20","","NaN","","","","","","","","","","","","","",""
"","response","","html-keyboard-response","137","289131","0.0-1.0-185.0","0","0","61830","","531","","","75","20","","","1","20","training","adjacent","FE","6","5","N.jpg","L.jpg","0","0","1","",""
"","feedback","","html-keyboard-response","138","290134","0.0-1.0-186.0-0.0","0","0","61830","","null","","","null","20","","","","","","","","","","","","","","","",""
"","ITI","","html-keyboard-response","139","291136","0.0-1.0-189.0","0","0","61830","","null","","","null","20","","","","","","","","","","","","","","","NaN",""
"","S1","","html-keyboard-response","140","291387","0.0-1.0-191.0","0","0","61830","","null","","","null","21","","","","","","","","","","","","","","","",""
"","ISI","","html-keyboard-response","141","293389","0.0-1.0-192.0","0","0","61830","","null","","","null","21","NaN","","","","","","","","","","","","","","",""
"","S2","","html-keyboard-response","142","293641","0.0-1.0-193.0","0","0","61830","","null","","","null","21","","NaN","","","","","","","","","","","","","",""
"","response","","html-keyboard-response","143","294100","0.0-1.0-194.0","0","0","61830","","458","","","75","21","","","1","21","training","adjacent","BA","2","1","M.jpg","O.jpg","0","0","1","",""
"","feedback","","html-keyboard-response","144","295102","0.0-1.0-195.0-0.0","0","0","61830","","null","","","null","21","","","","","","","","","","","","","","","",""
"","ITI","","html-keyboard-response","145","296104","0.0-1.0-198.0","0","0","61830","","null","","","null","21","","","","","","","","","","","","","","","NaN",""
"","S1","","html-keyboard-response","146","296359","0.0-1.0-200.0","0","0","61830","","null","","","null","22","","","","","","","","","","","","","","","",""
"","ISI","","html-keyboard-response","147","298360","0.0-1.0-201.0","0","0","61830","","null","","","null","22","NaN","","","","","","","","","","","","","","",""
"","S2","","html-keyboard-response","148","298612","0.0-1.0-202.0","0","0","61830","","null","","","null","22","","NaN","","","","","","","","","","","","","",""
"","response","","html-keyboard-response","149","299091","0.0-1.0-203.0","0","0","61830","","478","","","68","22","","","1","22","training","adjacent","DE","4","5","Q.jpg","L.jpg","1","1","1","",""
"","feedback","","html-keyboard-response","150","300093","0.0-1.0-204.0-0.0","0","0","61830","","null","","","null","22","","","","","","","","","","","","","","","",""
"","ITI","","html-keyboard-response","151","301095","0.0-1.0-207.0","0","0","61830","","null","","","null","22","","","","","","","","","","","","","","","NaN",""
"","S1","","html-keyboard-response","152","301346","0.0-1.0-209.0","0","0","61830","","null","","","null","23","","","","","","","","","","","","","","","",""
"","ISI","","html-keyboard-response","153","303347","0.0-1.0-210.0","0","0","61830","","null","","","null","23","NaN","","","","","","","","","","","","","","",""
"","S2","","html-keyboard-response","154","303598","0.0-1.0-211.0","0","0","61830","","null","","","null","23","","NaN","","","","","","","","","","","","","",""
"","response","","html-keyboard-response","155","304009","0.0-1.0-212.0","0","0","61830","","409","","","75","23","","","1","23","training","adjacent","FE","6","5","N.jpg","L.jpg","0","0","1","",""
"","feedback","","html-keyboard-response","156","305011","0.0-1.0-213.0-0.0","0","0","61830","","null","","","null","23","","","","","","","","","","","","","","","",""
"","ITI","","html-keyboard-response","157","306013","0.0-1.0-216.0","0","0","61830","","null","","","null","23","","","","","","","","","","","","","","","NaN",""
"","S1","","html-keyboard-response","158","306265","0.0-1.0-218.0","0","0","61830","","null","","","null","24","","","","","","","","","","","","","","","",""
"","ISI","","html-keyboard-response","159","308266","0.0-1.0-219.0","0","0","61830","","null","","","null","24","NaN","","","","","","","","","","","","","","",""
"","S2","","html-keyboard-response","160","308518","0.0-1.0-220.0","0","0","61830","","null","","","null","24","","NaN","","","","","","","","","","","","","",""
"","response","","html-keyboard-response","161","309171","0.0-1.0-221.0","0","0","61830","","652","","","68","24","","","1","24","training","adjacent","BC","2","3","M.jpg","P.jpg","1","1","1","",""
"","feedback","","html-keyboard-response","162","310174","0.0-1.0-222.0-0.0","0","0","61830","","null","","","null","24","","","","","","","","","","","","","","","",""
"","ITI","","html-keyboard-response","163","311176","0.0-1.0-225.0","0","0","61830","","null","","","null","24","","","","","","","","","","","","","","","NaN",""
"","S1","","html-keyboard-response","164","311427","0.0-1.0-227.0","0","0","61830","","null","","","null","25","","","","","","","","","","","","","","","",""
"","ISI","","html-keyboard-response","165","313430","0.0-1.0-228.0","0","0","61830","","null","","","null","25","NaN","","","","","","","","","","","","","","",""
"","S2","","html-keyboard-response","166","313681","0.0-1.0-229.0","0","0","61830","","null","","","null","25","","NaN","","","","","","","","","","","","","",""
"","response","","html-keyboard-response","167","313929","0.0-1.0-230.0","0","0","61830","","246","","","68","25","","","1","25","training","adjacent","AB","1","2","O.jpg","M.jpg","1","1","1","",""
"","feedback","","html-keyboard-response","168","314931","0.0-1.0-231.0-0.0","0","0","61830","","null","","","null","25","","","","","","","","","","","","","","","",""
"","ITI","","html-keyboard-response","169","315933","0.0-1.0-234.0","0","0","61830","","null","","","null","25","","","","","","","","","","","","","","","NaN",""
"","S1","","html-keyboard-response","170","316186","0.0-1.0-236.0","0","0","61830","","null","","","null","26","","","","","","","","","","","","","","","",""
"","ISI","","html-keyboard-response","171","318188","0.0-1.0-237.0","0","0","61830","","null","","","null","26","NaN","","","","","","","","","","","","","","",""
"","S2","","html-keyboard-response","172","318439","0.0-1.0-238.0","0","0","61830","","null","","","null","26","","NaN","","","","","","","","","","","","","",""
"","response","","html-keyboard-response","173","318810","0.0-1.0-239.0","0","0","61830","","369","","","68","26","","","1","26","training","adjacent","CB","3","2","P.jpg","M.jpg","1","0","0","",""
"","feedback","","html-keyboard-response","174","319813","0.0-1.0-240.0-0.0","0","0","61830","","null","","","null","26","","","","","","","","","","","","","","","",""
"","time_out","","html-keyboard-response","175","321814","0.0-1.0-242.0-0.0","0","0","61830","","null","","","null","26","","","","","","","","","","","","","","","",""
"","ITI","","html-keyboard-response","176","322816","0.0-1.0-243.0","0","0","61830","","null","","","null","26","","","","","","","","","","","","","","","NaN",""
"","S1","","html-keyboard-response","177","323068","0.0-1.0-245.0","0","0","61830","","null","","","null","27","","","","","","","","","","","","","","","",""
"","ISI","","html-keyboard-response","178","325070","0.0-1.0-246.0","0","0","61830","","null","","","null","27","NaN","","","","","","","","","","","","","","",""
"","S2","","html-keyboard-response","179","325322","0.0-1.0-247.0","0","0","61830","","null","","","null","27","","NaN","","","","","","","","","","","","","",""
"","response","","html-keyboard-response","180","325700","0.0-1.0-248.0","0","0","61830","","377","","","75","27","","","1","27","training","adjacent","DC","4","3","Q.jpg","P.jpg","0","0","1","",""
"","feedback","","html-keyboard-response","181","326701","0.0-1.0-249.0-0.0","0","0","61830","","null","","","null","27","","","","","","","","","","","","","","","",""
"","ITI","","html-keyboard-response","182","327703","0.0-1.0-252.0","0","0","61830","","null","","","null","27","","","","","","","","","","","","","","","NaN",""
"","S1","","html-keyboard-response","183","327955","0.0-1.0-254.0","0","0","61830","","null","","","null","28","","","","","","","","","","","","","","","",""
"","ISI","","html-keyboard-response","184","329957","0.0-1.0-255.0","0","0","61830","","null","","","null","28","NaN","","","","","","","","","","","","","","",""
"","S2","","html-keyboard-response","185","330208","0.0-1.0-256.0","0","0","61830","","null","","","null","28","","NaN","","","","","","","","","","","","","",""
"","response","","html-keyboard-response","186","330609","0.0-1.0-257.0","0","0","61830","","401","","","75","28","","","1","28","training","adjacent","ED","5","4","L.jpg","Q.jpg","0","0","1","",""
"","feedback","","html-keyboard-response","187","331612","0.0-1.0-258.0-0.0","0","0","61830","","null","","","null","28","","","","","","","","","","","","","","","",""
"","ITI","","html-keyboard-response","188","332613","0.0-1.0-261.0","0","0","61830","","null","","","null","28","","","","","","","","","","","","","","","NaN",""
"","S1","","html-keyboard-response","189","332871","0.0-1.0-263.0","0","0","61830","","null","","","null","29","","","","","","","","","","","","","","","",""
"","ISI","","html-keyboard-response","190","334873","0.0-1.0-264.0","0","0","61830","","null","","","null","29","NaN","","","","","","","","","","","","","","",""
"","S2","","html-keyboard-response","191","335125","0.0-1.0-265.0","0","0","61830","","null","","","null","29","","NaN","","","","","","","","","","","","","",""
"","response","","html-keyboard-response","192","335584","0.0-1.0-266.0","0","0","61830","","457","","","75","29","","","1","29","training","adjacent","FG","6","7","N.jpg","R.jpg","0","1","0","",""
"","feedback","","html-keyboard-response","193","336586","0.0-1.0-267.0-0.0","0","0","61830","","null","","","null","29","","","","","","","","","","","","","","","",""
"","time_out","","html-keyboard-response","194","338588","0.0-1.0-269.0-0.0","0","0","61830","","null","","","null","29","","","","","","","","","","","","","","","",""
"","ITI","","html-keyboard-response","195","339590","0.0-1.0-270.0","0","0","61830","","null","","","null","29","","","","","","","","","","","","","","","NaN",""
"","S1","","html-keyboard-response","196","339842","0.0-1.0-272.0","0","0","61830","","null","","","null","30","","","","","","","","","","","","","","","",""
"","ISI","","html-keyboard-response","197","341844","0.0-1.0-273.0","0","0","61830","","null","","","null","30","NaN","","","","","","","","","","","","","","",""
"","S2","","html-keyboard-response","198","342100","0.0-1.0-274.0","0","0","61830","","null","","","null","30","","NaN","","","","","","","","","","","","","",""
"","response","","html-keyboard-response","199","342470","0.0-1.0-275.0","0","0","61830","","369","","","68","30","","","1","30","training","adjacent","ED","5","4","L.jpg","Q.jpg","1","0","0","",""
"","feedback","","html-keyboard-response","200","343471","0.0-1.0-276.0-0.0","0","0","61830","","null","","","null","30","","","","","","","","","","","","","","","",""
"","time_out","","html-keyboard-response","201","345473","0.0-1.0-278.0-0.0","0","0","61830","","null","","","null","30","","","","","","","","","","","","","","","",""
"","ITI","","html-keyboard-response","202","346475","0.0-1.0-279.0","0","0","61830","","null","","","null","30","","","","","","","","","","","","","","","NaN",""
"","S1","","html-keyboard-response","203","346727","0.0-1.0-281.0","0","0","61830","","null","","","null","31","","","","","","","","","","","","","","","",""
"","ISI","","html-keyboard-response","204","348729","0.0-1.0-282.0","0","0","61830","","null","","","null","31","NaN","","","","","","","","","","","","","","",""
"","S2","","html-keyboard-response","205","348981","0.0-1.0-283.0","0","0","61830","","null","","","null","31","","NaN","","","","","","","","","","","","","",""
"","response","","html-keyboard-response","206","349363","0.0-1.0-284.0","0","0","61830","","382","","","68","31","","","1","31","training","adjacent","AB","1","2","O.jpg","M.jpg","1","1","1","",""
"","feedback","","html-keyboard-response","207","350366","0.0-1.0-285.0-0.0","0","0","61830","","null","","","null","31","","","","","","","","","","","","","","","",""
"","ITI","","html-keyboard-response","208","351367","0.0-1.0-288.0","0","0","61830","","null","","","null","31","","","","","","","","","","","","","","","NaN",""
"","S1","","html-keyboard-response","209","351619","0.0-1.0-290.0","0","0","61830","","null","","","null","32","","","","","","","","","","","","","","","",""
"","ISI","","html-keyboard-response","210","353621","0.0-1.0-291.0","0","0","61830","","null","","","null","32","NaN","","","","","","","","","","","","","","",""
"","S2","","html-keyboard-response","211","353872","0.0-1.0-292.0","0","0","61830","","null","","","null","32","","NaN","","","","","","","","","","","","","",""
"","response","","html-keyboard-response","212","354473","0.0-1.0-293.0","0","0","61830","","599","","","75","32","","","1","32","training","adjacent","DC","4","3","Q.jpg","P.jpg","0","0","1","",""
"","feedback","","html-keyboard-response","213","355475","0.0-1.0-294.0-0.0","0","0","61830","","null","","","null","32","","","","","","","","","","","","","","","",""
"","ITI","","html-keyboard-response","214","356477","0.0-1.0-297.0","0","0","61830","","null","","","null","32","","","","","","","","","","","","","","","NaN",""
"","S1","","html-keyboard-response","215","356729","0.0-1.0-299.0","0","0","61830","","null","","","null","33","","","","","","","","","","","","","","","",""
"","ISI","","html-keyboard-response","216","358731","0.0-1.0-300.0","0","0","61830","","null","","","null","33","NaN","","","","","","","","","","","","","","",""
"","S2","","html-keyboard-response","217","358983","0.0-1.0-301.0","0","0","61830","","null","","","null","33","","NaN","","","","","","","","","","","","","",""
"","response","","html-keyboard-response","218","359363","0.0-1.0-302.0","0","0","61830","","380","","","68","33","","","1","33","training","adjacent","GF","7","6","R.jpg","N.jpg","1","0","0","",""
"","feedback","","html-keyboard-response","219","360366","0.0-1.0-303.0-0.0","0","0","61830","","null","","","null","33","","","","","","","","","","","","","","","",""
"","time_out","","html-keyboard-response","220","362368","0.0-1.0-305.0-0.0","0","0","61830","","null","","","null","33","","","","","","","","","","","","","","","",""
"","ITI","","html-keyboard-response","221","363370","0.0-1.0-306.0","0","0","61830","","null","","","null","33","","","","","","","","","","","","","","","NaN",""
"","S1","","html-keyboard-response","222","363621","0.0-1.0-308.0","0","0","61830","","null","","","null","34","","","","","","","","","","","","","","","",""
"","ISI","","html-keyboard-response","223","365623","0.0-1.0-309.0","0","0","61830","","null","","","null","34","NaN","","","","","","","","","","","","","","",""
"","S2","","html-keyboard-response","224","365875","0.0-1.0-310.0","0","0","61830","","null","","","null","34","","NaN","","","","","","","","","","","","","",""
"","response","","html-keyboard-response","225","366394","0.0-1.0-311.0","0","0","61830","","517","","","75","34","","","1","34","training","adjacent","BA","2","1","M.jpg","O.jpg","0","0","1","",""
"","feedback","","html-keyboard-response","226","367397","0.0-1.0-312.0-0.0","0","0","61830","","null","","","null","34","","","","","","","","","","","","","","","",""
"","ITI","","html-keyboard-response","227","368399","0.0-1.0-315.0","0","0","61830","","null","","","null","34","","","","","","","","","","","","","","","NaN",""
"","S1","","html-keyboard-response","228","368658","0.0-1.0-317.0","0","0","61830","","null","","","null","35","","","","","","","","","","","","","","","",""
"","ISI","","html-keyboard-response","229","370660","0.0-1.0-318.0","0","0","61830","","null","","","null","35","NaN","","","","","","","","","","","","","","",""
"","S2","","html-keyboard-response","230","370912","0.0-1.0-319.0","0","0","61830","","null","","","null","35","","NaN","","","","","","","","","","","","","",""
"","response","","html-keyboard-response","231","371353","0.0-1.0-320.0","0","0","61830","","441","","","75","35","","","1","35","training","adjacent","FG","6","7","N.jpg","R.jpg","0","1","0","",""
"","feedback","","html-keyboard-response","232","372356","0.0-1.0-321.0-0.0","0","0","61830","","null","","","null","35","","","","","","","","","","","","","","","",""
"","time_out","","html-keyboard-response","233","374358","0.0-1.0-323.0-0.0","0","0","61830","","null","","","null","35","","","","","","","","","","","","","","","",""
"","ITI","","html-keyboard-response","234","375360","0.0-1.0-324.0","0","0","61830","","null","","","null","35","","","","","","","","","","","","","","","NaN",""
"","S1","","html-keyboard-response","235","375611","0.0-1.0-326.0","0","0","61830","","null","","","null","36","","","","","","","","","","","","","","","",""
"","ISI","","html-keyboard-response","236","377613","0.0-1.0-327.0","0","0","61830","","null","","","null","36","NaN","","","","","","","","","","","","","","",""
"","S2","","html-keyboard-response","237","377865","0.0-1.0-328.0","0","0","61830","","null","","","null","36","","NaN","","","","","","","","","","","","","",""
"","response","","html-keyboard-response","238","378334","0.0-1.0-329.0","0","0","61830","","468","","","68","36","","","1","36","training","adjacent","CD","3","4","P.jpg","Q.jpg","1","1","1","",""
"","feedback","","html-keyboard-response","239","379337","0.0-1.0-330.0-0.0","0","0","61830","","null","","","null","36","","","","","","","","","","","","","","","",""
"","ITI","","html-keyboard-response","240","380338","0.0-1.0-333.0","0","0","61830","","null","","","null","36","","","","","","","","","","","","","","","NaN",""
"","S1","","html-keyboard-response","241","380591","0.0-1.0-335.0","0","0","61830","","null","","","null","37","","","","","","","","","","","","","","","",""
"","ISI","","html-keyboard-response","242","382592","0.0-1.0-336.0","0","0","61830","","null","","","null","37","NaN","","","","","","","","","","","","","","",""
"","S2","","html-keyboard-response","243","382844","0.0-1.0-337.0","0","0","61830","","null","","","null","37","","NaN","","","","","","","","","","","","","",""
"","response","","html-keyboard-response","244","383251","0.0-1.0-338.0","0","0","61830","","405","","","68","37","","","1","37","training","adjacent","EF","5","6","L.jpg","N.jpg","1","1","1","",""
"","feedback","","html-keyboard-response","245","384252","0.0-1.0-339.0-0.0","0","0","61830","","null","","","null","37","","","","","","","","","","","","","","","",""
"","ITI","","html-keyboard-response","246","385254","0.0-1.0-342.0","0","0","61830","","null","","","null","37","","","","","","","","","","","","","","","NaN",""
"","S1","","html-keyboard-response","247","385507","0.0-1.0-344.0","0","0","61830","","null","","","null","38","","","","","","","","","","","","","","","",""
"","ISI","","html-keyboard-response","248","387510","0.0-1.0-345.0","0","0","61830","","null","","","null","38","NaN","","","","","","","","","","","","","","",""
"","S2","","html-keyboard-response","249","387762","0.0-1.0-346.0","0","0","61830","","null","","","null","38","","NaN","","","","","","","","","","","","","",""
"","response","","html-keyboard-response","250","388110","0.0-1.0-347.0","0","0","61830","","347","","","68","38","","","1","38","training","adjacent","EF","5","6","L.jpg","N.jpg","1","1","1","",""
"","feedback","","html-keyboard-response","251","389113","0.0-1.0-348.0-0.0","0","0","61830","","null","","","null","38","","","","","","","","","","","","","","","",""
"","ITI","","html-keyboard-response","252","390114","0.0-1.0-351.0","0","0","61830","","null","","","null","38","","","","","","","","","","","","","","","NaN",""
"","S1","","html-keyboard-response","253","390367","0.0-1.0-353.0","0","0","61830","","null","","","null","39","","","","","","","","","","","","","","","",""
"","ISI","","html-keyboard-response","254","392369","0.0-1.0-354.0","0","0","61830","","null","","","null","39","NaN","","","","","","","","","","","","","","",""
"","S2","","html-keyboard-response","255","392620","0.0-1.0-355.0","0","0","61830","","null","","","null","39","","NaN","","","","","","","","","","","","","",""
"","response","","html-keyboard-response","256","392861","0.0-1.0-356.0","0","0","61830","","239","","","75","39","","","1","39","training","adjacent","FE","6","5","N.jpg","L.jpg","0","0","1","",""
"","feedback","","html-keyboard-response","257","393864","0.0-1.0-357.0-0.0","0","0","61830","","null","","","null","39","","","","","","","","","","","","","","","",""
"","ITI","","html-keyboard-response","258","394865","0.0-1.0-360.0","0","0","61830","","null","","","null","39","","","","","","","","","","","","","","","NaN",""
"","S1","","html-keyboard-response","259","395117","0.0-1.0-362.0","0","0","61830","","null","","","null","40","","","","","","","","","","","","","","","",""
"","ISI","","html-keyboard-response","260","397119","0.0-1.0-363.0","0","0","61830","","null","","","null","40","NaN","","","","","","","","","","","","","","",""
"","S2","","html-keyboard-response","261","397371","0.0-1.0-364.0","0","0","61830","","null","","","null","40","","NaN","","","","","","","","","","","","","",""
"","response","","html-keyboard-response","262","397803","0.0-1.0-365.0","0","0","61830","","431","","","75","40","","","1","40","training","adjacent","FG","6","7","N.jpg","R.jpg","0","1","0","",""
"","feedback","","html-keyboard-response","263","398806","0.0-1.0-366.0-0.0","0","0","61830","","null","","","null","40","","","","","","","","","","","","","","","",""
"","time_out","","html-keyboard-response","264","400807","0.0-1.0-368.0-0.0","0","0","61830","","null","","","null","40","","","","","","","","","","","","","","","",""
"","ITI","","html-keyboard-response","265","401809","0.0-1.0-369.0","0","0","61830","","null","","","null","40","","","","","","","","","","","","","","","NaN",""
"","S1","","html-keyboard-response","266","402061","0.0-1.0-371.0","0","0","61830","","null","","","null","41","","","","","","","","","","","","","","","",""
"","ISI","","html-keyboard-response","267","404063","0.0-1.0-372.0","0","0","61830","","null","","","null","41","NaN","","","","","","","","","","","","","","",""
"","S2","","html-keyboard-response","268","404315","0.0-1.0-373.0","0","0","61830","","null","","","null","41","","NaN","","","","","","","","","","","","","",""
"","response","","html-keyboard-response","269","405180","0.0-1.0-374.0","0","0","61830","","864","","","68","41","","","1","41","training","adjacent","GF","7","6","R.jpg","N.jpg","1","0","0","",""
"","feedback","","html-keyboard-response","270","406182","0.0-1.0-375.0-0.0","0","0","61830","","null","","","null","41","","","","","","","","","","","","","","","",""
"","time_out","","html-keyboard-response","271","408184","0.0-1.0-377.0-0.0","0","0","61830","","null","","","null","41","","","","","","","","","","","","","","","",""
"","ITI","","html-keyboard-response","272","409199","0.0-1.0-378.0","0","0","61830","","null","","","null","41","","","","","","","","","","","","","","","NaN",""
"","S1","","html-keyboard-response","273","409452","0.0-1.0-380.0","0","0","61830","","null","","","null","42","","","","","","","","","","","","","","","",""
"","ISI","","html-keyboard-response","274","411453","0.0-1.0-381.0","0","0","61830","","null","","","null","42","NaN","","","","","","","","","","","","","","",""
"","S2","","html-keyboard-response","275","411715","0.0-1.0-382.0","0","0","61830","","null","","","null","42","","NaN","","","","","","","","","","","","","",""
"","response","","html-keyboard-response","276","411968","0.0-1.0-383.0","0","0","61830","","251","","","75","42","","","1","42","training","adjacent","DE","4","5","Q.jpg","L.jpg","0","1","0","",""
"","feedback","","html-keyboard-response","277","412970","0.0-1.0-384.0-0.0","0","0","61830","","null","","","null","42","","","","","","","","","","","","","","","",""
"","time_out","","html-keyboard-response","278","414973","0.0-1.0-386.0-0.0","0","0","61830","","null","","","null","42","","","","","","","","","","","","","","","",""
"","ITI","","html-keyboard-response","279","415975","0.0-1.0-387.0","0","0","61830","","null","","","null","42","","","","","","","","","","","","","","","NaN",""
"","S1","","html-keyboard-response","280","416226","0.0-1.0-389.0","0","0","61830","","null","","","null","43","","","","","","","","","","","","","","","",""
"","ISI","","html-keyboard-response","281","418228","0.0-1.0-390.0","0","0","61830","","null","","","null","43","NaN","","","","","","","","","","","","","","",""
"","S2","","html-keyboard-response","282","418481","0.0-1.0-391.0","0","0","61830","","null","","","null","43","","NaN","","","","","","","","","","","","","",""
"","response","","html-keyboard-response","283","418983","0.0-1.0-392.0","0","0","61830","","501","","","68","43","","","1","43","training","adjacent","ED","5","4","L.jpg","Q.jpg","1","0","0","",""
"","feedback","","html-keyboard-response","284","419985","0.0-1.0-393.0-0.0","0","0","61830","","null","","","null","43","","","","","","","","","","","","","","","",""
"","time_out","","html-keyboard-response","285","421987","0.0-1.0-395.0-0.0","0","0","61830","","null","","","null","43","","","","","","","","","","","","","","","",""
"","ITI","","html-keyboard-response","286","422989","0.0-1.0-396.0","0","0","61830","","null","","","null","43","","","","","","","","","","","","","","","NaN",""
"","S1","","html-keyboard-response","287","423241","0.0-1.0-398.0","0","0","61830","","null","","","null","44","","","","","","","","","","","","","","","",""
"","ISI","","html-keyboard-response","288","425243","0.0-1.0-399.0","0","0","61830","","null","","","null","44","NaN","","","","","","","","","","","","","","",""
"","S2","","html-keyboard-response","289","425494","0.0-1.0-400.0","0","0","61830","","null","","","null","44","","NaN","","","","","","","","","","","","","",""
"","response","","html-keyboard-response","290","425764","0.0-1.0-401.0","0","0","61830","","269","","","68","44","","","1","44","training","adjacent","CD","3","4","P.jpg","Q.jpg","1","1","1","",""
"","feedback","","html-keyboard-response","291","426767","0.0-1.0-402.0-0.0","0","0","61830","","null","","","null","44","","","","","","","","","","","","","","","",""
"","ITI","","html-keyboard-response","292","427769","0.0-1.0-405.0","0","0","61830","","null","","","null","44","","","","","","","","","","","","","","","NaN",""
"","S1","","html-keyboard-response","293","428020","0.0-1.0-407.0","0","0","61830","","null","","","null","45","","","","","","","","","","","","","","","",""
"","ISI","","html-keyboard-response","294","430022","0.0-1.0-408.0","0","0","61830","","null","","","null","45","NaN","","","","","","","","","","","","","","",""
"","S2","","html-keyboard-response","295","430273","0.0-1.0-409.0","0","0","61830","","null","","","null","45","","NaN","","","","","","","","","","","","","",""
"","response","","html-keyboard-response","296","430914","0.0-1.0-410.0","0","0","61830","","639","","","68","45","","","1","45","training","adjacent","CD","3","4","P.jpg","Q.jpg","1","1","1","",""
"","feedback","","html-keyboard-response","297","431916","0.0-1.0-411.0-0.0","0","0","61830","","null","","","null","45","","","","","","","","","","","","","","","",""
"","ITI","","html-keyboard-response","298","432918","0.0-1.0-414.0","0","0","61830","","null","","","null","45","","","","","","","","","","","","","","","NaN",""
"","S1","","html-keyboard-response","299","433170","0.0-1.0-416.0","0","0","61830","","null","","","null","46","","","","","","","","","","","","","","","",""
"","ISI","","html-keyboard-response","300","435172","0.0-1.0-417.0","0","0","61830","","null","","","null","46","NaN","","","","","","","","","","","","","","",""
"","S2","","html-keyboard-response","301","435424","0.0-1.0-418.0","0","0","61830","","null","","","null","46","","NaN","","","","","","","","","","","","","",""
"","response","","html-keyboard-response","302","435853","0.0-1.0-419.0","0","0","61830","","429","","","68","46","","","1","46","training","adjacent","GF","7","6","R.jpg","N.jpg","1","0","0","",""
"","feedback","","html-keyboard-response","303","436856","0.0-1.0-420.0-0.0","0","0","61830","","null","","","null","46","","","","","","","","","","","","","","","",""
"","time_out","","html-keyboard-response","304","438858","0.0-1.0-422.0-0.0","0","0","61830","","null","","","null","46","","","","","","","","","","","","","","","",""
"","ITI","","html-keyboard-response","305","439860","0.0-1.0-423.0","0","0","61830","","null","","","null","46","","","","","","","","","","","","","","","NaN",""
"","S1","","html-keyboard-response","306","440111","0.0-1.0-425.0","0","0","61830","","null","","","null","47","","","","","","","","","","","","","","","",""
"","ISI","","html-keyboard-response","307","442113","0.0-1.0-426.0","0","0","61830","","null","","","null","47","NaN","","","","","","","","","","","","","","",""
"","S2","","html-keyboard-response","308","442365","0.0-1.0-427.0","0","0","61830","","null","","","null","47","","NaN","","","","","","","","","","","","","",""
"","response","","html-keyboard-response","309","443236","0.0-1.0-428.0","0","0","61830","","869","","","68","47","","","1","47","training","adjacent","BA","2","1","M.jpg","O.jpg","1","0","0","",""
"","feedback","","html-keyboard-response","310","444238","0.0-1.0-429.0-0.0","0","0","61830","","null","","","null","47","","","","","","","","","","","","","","","",""
"","time_out","","html-keyboard-response","311","446240","0.0-1.0-431.0-0.0","0","0","61830","","null","","","null","47","","","","","","","","","","","","","","","",""
"","ITI","","html-keyboard-response","312","447242","0.0-1.0-432.0","0","0","61830","","null","","","null","47","","","","","","","","","","","","","","","NaN",""
"","block_over","","html-keyboard-response","313","462267","0.0-1.0-433.0-0.0","0","0","61830","","15024","","","32","47","","","","","","","","","","","","","","","",""
"","S1","","html-keyboard-response","314","462519","0.0-1.0-434.0","0","0","61830","","null","","","null","48","","","","","","","","","","","","","","","",""
"","ISI","","html-keyboard-response","315","464521","0.0-1.0-435.0","0","0","61830","","null","","","null","48","NaN","","","","","","","","","","","","","","",""
"","S2","","html-keyboard-response","316","464772","0.0-1.0-436.0","0","0","61830","","null","","","null","48","","NaN","","","","","","","","","","","","","",""
"","response","","html-keyboard-response","317","465299","0.0-1.0-437.0","0","0","61830","","526","","","68","48","","","2","48","training","adjacent","GF","7","6","R.jpg","N.jpg","1","0","0","",""
"","feedback","","html-keyboard-response","318","466301","0.0-1.0-438.0-0.0","0","0","61830","","null","","","null","48","","","","","","","","","","","","","","","",""
"","time_out","","html-keyboard-response","319","468303","0.0-1.0-440.0-0.0","0","0","61830","","null","","","null","48","","","","","","","","","","","","","","","",""
"","ITI","","html-keyboard-response","320","469305","0.0-1.0-441.0","0","0","61830","","null","","","null","48","","","","","","","","","","","","","","","NaN",""
"","S1","","html-keyboard-response","321","469557","0.0-1.0-443.0","0","0","61830","","null","","","null","49","","","","","","","","","","","","","","","",""
"","ISI","","html-keyboard-response","322","471559","0.0-1.0-444.0","0","0","61830","","null","","","null","49","NaN","","","","","","","","","","","","","","",""
"","S2","","html-keyboard-response","323","471811","0.0-1.0-445.0","0","0","61830","","null","","","null","49","","NaN","","","","","","","","","","","","","",""
"","response","","html-keyboard-response","324","472540","0.0-1.0-446.0","0","0","61830","","728","","","68","49","","","2","49","training","adjacent","FG","6","7","N.jpg","R.jpg","1","1","1","",""
"","feedback","","html-keyboard-response","325","473543","0.0-1.0-447.0-0.0","0","0","61830","","null","","","null","49","","","","","","","","","","","","","","","",""
"","ITI","","html-keyboard-response","326","474545","0.0-1.0-450.0","0","0","61830","","null","","","null","49","","","","","","","","","","","","","","","NaN",""
"","S1","","html-keyboard-response","327","474801","0.0-1.0-452.0","0","0","61830","","null","","","null","50","","","","","","","","","","","","","","","",""
"","ISI","","html-keyboard-response","328","476803","0.0-1.0-453.0","0","0","61830","","null","","","null","50","NaN","","","","","","","","","","","","","","",""
"","S2","","html-keyboard-response","329","477054","0.0-1.0-454.0","0","0","61830","","null","","","null","50","","NaN","","","","","","","","","","","","","",""
"","response","","html-keyboard-response","330","477437","0.0-1.0-455.0","0","0","61830","","381","","","75","50","","","2","50","training","adjacent","ED","5","4","L.jpg","Q.jpg","0","0","1","",""
"","feedback","","html-keyboard-response","331","478439","0.0-1.0-456.0-0.0","0","0","61830","","null","","","null","50","","","","","","","","","","","","","","","",""
"","ITI","","html-keyboard-response","332","479441","0.0-1.0-459.0","0","0","61830","","null","","","null","50","","","","","","","","","","","","","","","NaN",""
"","S1","","html-keyboard-response","333","479692","0.0-1.0-461.0","0","0","61830","","null","","","null","51","","","","","","","","","","","","","","","",""
"","ISI","","html-keyboard-response","334","481694","0.0-1.0-462.0","0","0","61830","","null","","","null","51","NaN","","","","","","","","","","","","","","",""
"","S2","","html-keyboard-response","335","481954","0.0-1.0-463.0","0","0","61830","","null","","","null","51","","NaN","","","","","","","","","","","","","",""
"","response","","html-keyboard-response","336","482299","0.0-1.0-464.0","0","0","61830","","343","","","68","51","","","2","51","training","adjacent","DE","4","5","Q.jpg","L.jpg","1","1","1","",""
"","feedback","","html-keyboard-response","337","483301","0.0-1.0-465.0-0.0","0","0","61830","","null","","","null","51","","","","","","","","","","","","","","","",""
"","ITI","","html-keyboard-response","338","484308","0.0-1.0-468.0","0","0","61830","","null","","","null","51","","","","","","","","","","","","","","","NaN",""
"","S1","","html-keyboard-response","339","484560","0.0-1.0-470.0","0","0","61830","","null","","","null","52","","","","","","","","","","","","","","","",""
"","ISI","","html-keyboard-response","340","486562","0.0-1.0-471.0","0","0","61830","","null","","","null","52","NaN","","","","","","","","","","","","","","",""
"","S2","","html-keyboard-response","341","486814","0.0-1.0-472.0","0","0","61830","","null","","","null","52","","NaN","","","","","","","","","","","","","",""
"","response","","html-keyboard-response","342","487141","0.0-1.0-473.0","0","0","61830","","327","","","75","52","","","2","52","training","adjacent","DC","4","3","Q.jpg","P.jpg","0","0","1","",""
"","feedback","","html-keyboard-response","343","488144","0.0-1.0-474.0-0.0","0","0","61830","","null","","","null","52","","","","","","","","","","","","","","","",""
"","ITI","","html-keyboard-response","344","489146","0.0-1.0-477.0","0","0","61830","","null","","","null","52","","","","","","","","","","","","","","","NaN",""
"","S1","","html-keyboard-response","345","489398","0.0-1.0-479.0","0","0","61830","","null","","","null","53","","","","","","","","","","","","","","","",""
"","ISI","","html-keyboard-response","346","491400","0.0-1.0-480.0","0","0","61830","","null","","","null","53","NaN","","","","","","","","","","","","","","",""
"","S2","","html-keyboard-response","347","491652","0.0-1.0-481.0","0","0","61830","","null","","","null","53","","NaN","","","","","","","","","","","","","",""
"","response","","html-keyboard-response","348","492463","0.0-1.0-482.0","0","0","61830","","811","","","68","53","","","2","53","training","adjacent","EF","5","6","L.jpg","N.jpg","1","1","1","",""
"","feedback","","html-keyboard-response","349","493465","0.0-1.0-483.0-0.0","0","0","61830","","null","","","null","53","","","","","","","","","","","","","","","",""
"","ITI","","html-keyboard-response","350","494467","0.0-1.0-486.0","0","0","61830","","null","","","null","53","","","","","","","","","","","","","","","NaN",""
"","S1","","html-keyboard-response","351","494719","0.0-1.0-488.0","0","0","61830","","null","","","null","54","","","","","","","","","","","","","","","",""
"","ISI","","html-keyboard-response","352","496721","0.0-1.0-489.0","0","0","61830","","null","","","null","54","NaN","","","","","","","","","","","","","","",""
"","S2","","html-keyboard-response","353","496972","0.0-1.0-490.0","0","0","61830","","null","","","null","54","","NaN","","","","","","","","","","","","","",""
"","response","","html-keyboard-response","354","497249","0.0-1.0-491.0","0","0","61830","","275","","","68","54","","","2","54","training","adjacent","EF","5","6","L.jpg","N.jpg","1","1","1","",""
"","feedback","","html-keyboard-response","355","498252","0.0-1.0-492.0-0.0","0","0","61830","","null","","","null","54","","","","","","","","","","","","","","","",""
"","ITI","","html-keyboard-response","356","499254","0.0-1.0-495.0","0","0","61830","","null","","","null","54","","","","","","","","","","","","","","","NaN",""
"","S1","","html-keyboard-response","357","499519","0.0-1.0-497.0","0","0","61830","","null","","","null","55","","","","","","","","","","","","","","","",""
"","ISI","","html-keyboard-response","358","501521","0.0-1.0-498.0","0","0","61830","","null","","","null","55","NaN","","","","","","","","","","","","","","",""
"","S2","","html-keyboard-response","359","501773","0.0-1.0-499.0","0","0","61830","","null","","","null","55","","NaN","","","","","","","","","","","","","",""
"","response","","html-keyboard-response","360","502748","0.0-1.0-500.0","0","0","61830","","975","","","68","55","","","2","55","training","adjacent","BC","2","3","M.jpg","P.jpg","1","1","1","",""
"","feedback","","html-keyboard-response","361","503750","0.0-1.0-501.0-0.0","0","0","61830","","null","","","null","55","","","","","","","","","","","","","","","",""
"","ITI","","html-keyboard-response","362","504752","0.0-1.0-504.0","0","0","61830","","null","","","null","55","","","","","","","","","","","","","","","NaN",""
"","S1","","html-keyboard-response","363","505004","0.0-1.0-506.0","0","0","61830","","null","","","null","56","","","","","","","","","","","","","","","",""
"","ISI","","html-keyboard-response","364","507007","0.0-1.0-507.0","0","0","61830","","null","","","null","56","NaN","","","","","","","","","","","","","","",""
"","S2","","html-keyboard-response","365","507259","0.0-1.0-508.0","0","0","61830","","null","","","null","56","","NaN","","","","","","","","","","","","","",""
"","response","","html-keyboard-response","366","508003","0.0-1.0-509.0","0","0","61830","","743","","","75","56","","","2","56","training","adjacent","BC","2","3","M.jpg","P.jpg","0","1","0","",""
"","feedback","","html-keyboard-response","367","509005","0.0-1.0-510.0-0.0","0","0","61830","","null","","","null","56","","","","","","","","","","","","","","","",""
"","time_out","","html-keyboard-response","368","511007","0.0-1.0-512.0-0.0","0","0","61830","","null","","","null","56","","","","","","","","","","","","","","","",""
"","ITI","","html-keyboard-response","369","512008","0.0-1.0-513.0","0","0","61830","","null","","","null","56","","","","","","","","","","","","","","","NaN",""
"","S1","","html-keyboard-response","370","512261","0.0-1.0-515.0","0","0","61830","","null","","","null","57","","","","","","","","","","","","","","","",""
"","ISI","","html-keyboard-response","371","514263","0.0-1.0-516.0","0","0","61830","","null","","","null","57","NaN","","","","","","","","","","","","","","",""
"","S2","","html-keyboard-response","372","514514","0.0-1.0-517.0","0","0","61830","","null","","","null","57","","NaN","","","","","","","","","","","","","",""
"","response","","html-keyboard-response","373","515889","0.0-1.0-518.0","0","0","61830","","1373","","","68","57","","","2","57","training","adjacent","DE","4","5","Q.jpg","L.jpg","1","1","1","",""
"","feedback","","html-keyboard-response","374","516890","0.0-1.0-519.0-0.0","0","0","61830","","null","","","null","57","","","","","","","","","","","","","","","",""
"","ITI","","html-keyboard-response","375","517892","0.0-1.0-522.0","0","0","61830","","null","","","null","57","","","","","","","","","","","","","","","NaN",""
"","S1","","html-keyboard-response","376","518145","0.0-1.0-524.0","0","0","61830","","null","","","null","58","","","","","","","","","","","","","","","",""
"","ISI","","html-keyboard-response","377","520147","0.0-1.0-525.0","0","0","61830","","null","","","null","58","NaN","","","","","","","","","","","","","","",""
"","S2","","html-keyboard-response","378","520398","0.0-1.0-526.0","0","0","61830","","null","","","null","58","","NaN","","","","","","","","","","","","","",""
"","response","","html-keyboard-response","379","521458","0.0-1.0-527.0","0","0","61830","","1060","","","75","58","","","2","58","training","adjacent","DC","4","3","Q.jpg","P.jpg","0","0","1","",""
"","feedback","","html-keyboard-response","380","522459","0.0-1.0-528.0-0.0","0","0","61830","","null","","","null","58","","","","","","","","","","","","","","","",""
"","ITI","","html-keyboard-response","381","523461","0.0-1.0-531.0","0","0","61830","","null","","","null","58","","","","","","","","","","","","","","","NaN",""
"","S1","","html-keyboard-response","382","523713","0.0-1.0-533.0","0","0","61830","","null","","","null","59","","","","","","","","","","","","","","","",""
"","ISI","","html-keyboard-response","383","525715","0.0-1.0-534.0","0","0","61830","","null","","","null","59","NaN","","","","","","","","","","","","","","",""
"","S2","","html-keyboard-response","384","525967","0.0-1.0-535.0","0","0","61830","","null","","","null","59","","NaN","","","","","","","","","","","","","",""
"","response","","html-keyboard-response","385","526823","0.0-1.0-536.0","0","0","61830","","855","","","68","59","","","2","59","training","adjacent","FE","6","5","N.jpg","L.jpg","1","0","0","",""
"","feedback","","html-keyboard-response","386","527825","0.0-1.0-537.0-0.0","0","0","61830","","null","","","null","59","","","","","","","","","","","","","","","",""
"","time_out","","html-keyboard-response","387","529827","0.0-1.0-539.0-0.0","0","0","61830","","null","","","null","59","","","","","","","","","","","","","","","",""
"","ITI","","html-keyboard-response","388","530830","0.0-1.0-540.0","0","0","61830","","null","","","null","59","","","","","","","","","","","","","","","NaN",""
"","S1","","html-keyboard-response","389","531083","0.0-1.0-542.0","0","0","61830","","null","","","null","60","","","","","","","","","","","","","","","",""
"","ISI","","html-keyboard-response","390","533085","0.0-1.0-543.0","0","0","61830","","null","","","null","60","NaN","","","","","","","","","","","","","","",""
"","S2","","html-keyboard-response","391","533337","0.0-1.0-544.0","0","0","61830","","null","","","null","60","","NaN","","","","","","","","","","","","","",""
"","response","","html-keyboard-response","392","534617","0.0-1.0-545.0","0","0","61830","","1279","","","68","60","","","2","60","training","adjacent","CD","3","4","P.jpg","Q.jpg","1","1","1","",""
"","feedback","","html-keyboard-response","393","535619","0.0-1.0-546.0-0.0","0","0","61830","","null","","","null","60","","","","","","","","","","","","","","","",""
"","ITI","","html-keyboard-response","394","536620","0.0-1.0-549.0","0","0","61830","","null","","","null","60","","","","","","","","","","","","","","","NaN",""
"","S1","","html-keyboard-response","395","536873","0.0-1.0-551.0","0","0","61830","","null","","","null","61","","","","","","","","","","","","","","","",""
"","ISI","","html-keyboard-response","396","538873","0.0-1.0-552.0","0","0","61830","","null","","","null","61","NaN","","","","","","","","","","","","","","",""
"","S2","","html-keyboard-response","397","539132","0.0-1.0-553.0","0","0","61830","","null","","","null","61","","NaN","","","","","","","","","","","","","",""
"","response","","html-keyboard-response","398","539846","0.0-1.0-554.0","0","0","61830","","712","","","68","61","","","2","61","training","adjacent","EF","5","6","L.jpg","N.jpg","1","1","1","",""
"","feedback","","html-keyboard-response","399","540848","0.0-1.0-555.0-0.0","0","0","61830","","null","","","null","61","","","","","","","","","","","","","","","",""
"","ITI","","html-keyboard-response","400","541850","0.0-1.0-558.0","0","0","61830","","null","","","null","61","","","","","","","","","","","","","","","NaN",""
"","S1","","html-keyboard-response","401","542102","0.0-1.0-560.0","0","0","61830","","null","","","null","62","","","","","","","","","","","","","","","",""
"","ISI","","html-keyboard-response","402","544104","0.0-1.0-561.0","0","0","61830","","null","","","null","62","NaN","","","","","","","","","","","","","","",""
"","S2","","html-keyboard-response","403","544355","0.0-1.0-562.0","0","0","61830","","null","","","null","62","","NaN","","","","","","","","","","","","","",""
"","response","","html-keyboard-response","404","545053","0.0-1.0-563.0","0","0","61830","","696","","","68","62","","","2","62","training","adjacent","DE","4","5","Q.jpg","L.jpg","1","1","1","",""
"","feedback","","html-keyboard-response","405","546054","0.0-1.0-564.0-0.0","0","0","61830","","null","","","null","62","","","","","","","","","","","","","","","",""
"","ITI","","html-keyboard-response","406","547056","0.0-1.0-567.0","0","0","61830","","null","","","null","62","","","","","","","","","","","","","","","NaN",""
"","S1","","html-keyboard-response","407","547308","0.0-1.0-569.0","0","0","61830","","null","","","null","63","","","","","","","","","","","","","","","",""
"","ISI","","html-keyboard-response","408","549310","0.0-1.0-570.0","0","0","61830","","null","","","null","63","NaN","","","","","","","","","","","","","","",""
"","S2","","html-keyboard-response","409","549562","0.0-1.0-571.0","0","0","61830","","null","","","null","63","","NaN","","","","","","","","","","","","","",""
"","response","","html-keyboard-response","410","550240","0.0-1.0-572.0","0","0","61830","","677","","","68","63","","","2","63","training","adjacent","AB","1","2","O.jpg","M.jpg","1","1","1","",""
"","feedback","","html-keyboard-response","411","551243","0.0-1.0-573.0-0.0","0","0","61830","","null","","","null","63","","","","","","","","","","","","","","","",""
"","ITI","","html-keyboard-response","412","552245","0.0-1.0-576.0","0","0","61830","","null","","","null","63","","","","","","","","","","","","","","","NaN",""
"","S1","","html-keyboard-response","413","552497","0.0-1.0-578.0","0","0","61830","","null","","","null","64","","","","","","","","","","","","","","","",""
"","ISI","","html-keyboard-response","414","554499","0.0-1.0-579.0","0","0","61830","","null","","","null","64","NaN","","","","","","","","","","","","","","",""
"","S2","","html-keyboard-response","415","554752","0.0-1.0-580.0","0","0","61830","","null","","","null","64","","NaN","","","","","","","","","","","","","",""
"","response","","html-keyboard-response","416","555415","0.0-1.0-581.0","0","0","61830","","662","","","75","64","","","2","64","training","adjacent","BA","2","1","M.jpg","O.jpg","0","0","1","",""
"","feedback","","html-keyboard-response","417","556417","0.0-1.0-582.0-0.0","0","0","61830","","null","","","null","64","","","","","","","","","","","","","","","",""
"","ITI","","html-keyboard-response","418","557419","0.0-1.0-585.0","0","0","61830","","null","","","null","64","","","","","","","","","","","","","","","NaN",""
"","S1","","html-keyboard-response","419","557671","0.0-1.0-587.0","0","0","61830","","null","","","null","65","","","","","","","","","","","","","","","",""
"","ISI","","html-keyboard-response","420","559673","0.0-1.0-588.0","0","0","61830","","null","","","null","65","NaN","","","","","","","","","","","","","","",""
"","S2","","html-keyboard-response","421","559925","0.0-1.0-589.0","0","0","61830","","null","","","null","65","","NaN","","","","","","","","","","","","","",""
"","response","","html-keyboard-response","422","561009","0.0-1.0-590.0","0","0","61830","","1084","","","75","65","","","2","65","training","adjacent","BA","2","1","M.jpg","O.jpg","0","0","1","",""
"","feedback","","html-keyboard-response","423","562011","0.0-1.0-591.0-0.0","0","0","61830","","null","","","null","65","","","","","","","","","","","","","","","",""
"","ITI","","html-keyboard-response","424","563012","0.0-1.0-594.0","0","0","61830","","null","","","null","65","","","","","","","","","","","","","","","NaN",""
"","S1","","html-keyboard-response","425","563264","0.0-1.0-596.0","0","0","61830","","null","","","null","66","","","","","","","","","","","","","","","",""
"","ISI","","html-keyboard-response","426","565266","0.0-1.0-597.0","0","0","61830","","null","","","null","66","NaN","","","","","","","","","","","","","","",""
"","S2","","html-keyboard-response","427","565518","0.0-1.0-598.0","0","0","61830","","null","","","null","66","","NaN","","","","","","","","","","","","","",""
"","response","","html-keyboard-response","428","566363","0.0-1.0-599.0","0","0","61830","","844","","","75","66","","","2","66","training","adjacent","CB","3","2","P.jpg","M.jpg","0","0","1","",""
"","feedback","","html-keyboard-response","429","567366","0.0-1.0-600.0-0.0","0","0","61830","","null","","","null","66","","","","","","","","","","","","","","","",""
"","ITI","","html-keyboard-response","430","568367","0.0-1.0-603.0","0","0","61830","","null","","","null","66","","","","","","","","","","","","","","","NaN",""
"","S1","","html-keyboard-response","431","568619","0.0-1.0-605.0","0","0","61830","","null","","","null","67","","","","","","","","","","","","","","","",""
"","ISI","","html-keyboard-response","432","570621","0.0-1.0-606.0","0","0","61830","","null","","","null","67","NaN","","","","","","","","","","","","","","",""
"","S2","","html-keyboard-response","433","570873","0.0-1.0-607.0","0","0","61830","","null","","","null","67","","NaN","","","","","","","","","","","","","",""
"","response","","html-keyboard-response","434","571282","0.0-1.0-608.0","0","0","61830","","408","","","75","67","","","2","67","training","adjacent","CB","3","2","P.jpg","M.jpg","0","0","1","",""
"","feedback","","html-keyboard-response","435","572285","0.0-1.0-609.0-0.0","0","0","61830","","null","","","null","67","","","","","","","","","","","","","","","",""
"","ITI","","html-keyboard-response","436","573287","0.0-1.0-612.0","0","0","61830","","null","","","null","67","","","","","","","","","","","","","","","NaN",""
"","S1","","html-keyboard-response","437","573539","0.0-1.0-614.0","0","0","61830","","null","","","null","68","","","","","","","","","","","","","","","",""
"","ISI","","html-keyboard-response","438","575541","0.0-1.0-615.0","0","0","61830","","null","","","null","68","NaN","","","","","","","","","","","","","","",""
"","S2","","html-keyboard-response","439","575793","0.0-1.0-616.0","0","0","61830","","null","","","null","68","","NaN","","","","","","","","","","","","","",""
"","response","","html-keyboard-response","440","576721","0.0-1.0-617.0","0","0","61830","","926","","","75","68","","","2","68","training","adjacent","FG","6","7","N.jpg","R.jpg","0","1","0","",""
"","feedback","","html-keyboard-response","441","577723","0.0-1.0-618.0-0.0","0","0","61830","","null","","","null","68","","","","","","","","","","","","","","","",""
"","time_out","","html-keyboard-response","442","579724","0.0-1.0-620.0-0.0","0","0","61830","","null","","","null","68","","","","","","","","","","","","","","","",""
"","ITI","","html-keyboard-response","443","580727","0.0-1.0-621.0","0","0","61830","","null","","","null","68","","","","","","","","","","","","","","","NaN",""
"","S1","","html-keyboard-response","444","580979","0.0-1.0-623.0","0","0","61830","","null","","","null","69","","","","","","","","","","","","","","","",""
"","ISI","","html-keyboard-response","445","582981","0.0-1.0-624.0","0","0","61830","","null","","","null","69","NaN","","","","","","","","","","","","","","",""
"","S2","","html-keyboard-response","446","583233","0.0-1.0-625.0","0","0","61830","","null","","","null","69","","NaN","","","","","","","","","","","","","",""
"","response","","html-keyboard-response","447","584107","0.0-1.0-626.0","0","0","61830","","873","","","68","69","","","2","69","training","adjacent","AB","1","2","O.jpg","M.jpg","1","1","1","",""
"","feedback","","html-keyboard-response","448","585109","0.0-1.0-627.0-0.0","0","0","61830","","null","","","null","69","","","","","","","","","","","","","","","",""
"","ITI","","html-keyboard-response","449","586110","0.0-1.0-630.0","0","0","61830","","null","","","null","69","","","","","","","","","","","","","","","NaN",""
"","S1","","html-keyboard-response","450","586362","0.0-1.0-632.0","0","0","61830","","null","","","null","70","","","","","","","","","","","","","","","",""
"","ISI","","html-keyboard-response","451","588364","0.0-1.0-633.0","0","0","61830","","null","","","null","70","NaN","","","","","","","","","","","","","","",""
"","S2","","html-keyboard-response","452","588623","0.0-1.0-634.0","0","0","61830","","null","","","null","70","","NaN","","","","","","","","","","","","","",""
"","response","","html-keyboard-response","453","590049","0.0-1.0-635.0","0","0","61830","","1425","","","75","70","","","2","70","training","adjacent","BC","2","3","M.jpg","P.jpg","0","1","0","",""
"","feedback","","html-keyboard-response","454","591052","0.0-1.0-636.0-0.0","0","0","61830","","null","","","null","70","","","","","","","","","","","","","","","",""
"","time_out","","html-keyboard-response","455","593054","0.0-1.0-638.0-0.0","0","0","61830","","null","","","null","70","","","","","","","","","","","","","","","",""
"","ITI","","html-keyboard-response","456","594069","0.0-1.0-639.0","0","0","61830","","null","","","null","70","","","","","","","","","","","","","","","NaN",""
"","S1","","html-keyboard-response","457","594321","0.0-1.0-641.0","0","0","61830","","null","","","null","71","","","","","","","","","","","","","","","",""
"","ISI","","html-keyboard-response","458","596323","0.0-1.0-642.0","0","0","61830","","null","","","null","71","NaN","","","","","","","","","","","","","","",""
"","S2","","html-keyboard-response","459","596575","0.0-1.0-643.0","0","0","61830","","null","","","null","71","","NaN","","","","","","","","","","","","","",""
"","response","","html-keyboard-response","460","597432","0.0-1.0-644.0","0","0","61830","","856","","","68","71","","","2","71","training","adjacent","FG","6","7","N.jpg","R.jpg","1","1","1","",""
"","feedback","","html-keyboard-response","461","598433","0.0-1.0-645.0-0.0","0","0","61830","","null","","","null","71","","","","","","","","","","","","","","","",""
"","ITI","","html-keyboard-response","462","599435","0.0-1.0-648.0","0","0","61830","","null","","","null","71","","","","","","","","","","","","","","","NaN",""
"","S1","","html-keyboard-response","463","599687","0.0-1.0-650.0","0","0","61830","","null","","","null","72","","","","","","","","","","","","","","","",""
"","ISI","","html-keyboard-response","464","601689","0.0-1.0-651.0","0","0","61830","","null","","","null","72","NaN","","","","","","","","","","","","","","",""
"","S2","","html-keyboard-response","465","601941","0.0-1.0-652.0","0","0","61830","","null","","","null","72","","NaN","","","","","","","","","","","","","",""
"","response","","html-keyboard-response","466","602184","0.0-1.0-653.0","0","0","61830","","241","","","75","72","","","2","72","training","adjacent","GF","7","6","R.jpg","N.jpg","0","0","1","",""
"","feedback","","html-keyboard-response","467","603186","0.0-1.0-654.0-0.0","0","0","61830","","null","","","null","72","","","","","","","","","","","","","","","",""
"","ITI","","html-keyboard-response","468","604188","0.0-1.0-657.0","0","0","61830","","null","","","null","72","","","","","","","","","","","","","","","NaN",""
"","S1","","html-keyboard-response","469","604439","0.0-1.0-659.0","0","0","61830","","null","","","null","73","","","","","","","","","","","","","","","",""
"","ISI","","html-keyboard-response","470","606441","0.0-1.0-660.0","0","0","61830","","null","","","null","73","NaN","","","","","","","","","","","","","","",""
"","S2","","html-keyboard-response","471","606694","0.0-1.0-661.0","0","0","61830","","null","","","null","73","","NaN","","","","","","","","","","","","","",""
"","response","","html-keyboard-response","472","607086","0.0-1.0-662.0","0","0","61830","","391","","","75","73","","","2","73","training","adjacent","ED","5","4","L.jpg","Q.jpg","0","0","1","",""
"","feedback","","html-keyboard-response","473","608089","0.0-1.0-663.0-0.0","0","0","61830","","null","","","null","73","","","","","","","","","","","","","","","",""
"","ITI","","html-keyboard-response","474","609091","0.0-1.0-666.0","0","0","61830","","null","","","null","73","","","","","","","","","","","","","","","NaN",""
"","S1","","html-keyboard-response","475","609343","0.0-1.0-668.0","0","0","61830","","null","","","null","74","","","","","","","","","","","","","","","",""
"","ISI","","html-keyboard-response","476","611345","0.0-1.0-669.0","0","0","61830","","null","","","null","74","NaN","","","","","","","","","","","","","","",""
"","S2","","html-keyboard-response","477","611598","0.0-1.0-670.0","0","0","61830","","null","","","null","74","","NaN","","","","","","","","","","","","","",""
"","response","","html-keyboard-response","478","612320","0.0-1.0-671.0","0","0","61830","","721","","","75","74","","","2","74","training","adjacent","DC","4","3","Q.jpg","P.jpg","0","0","1","",""
"","feedback","","html-keyboard-response","479","613322","0.0-1.0-672.0-0.0","0","0","61830","","null","","","null","74","","","","","","","","","","","","","","","",""
"","ITI","","html-keyboard-response","480","614324","0.0-1.0-675.0","0","0","61830","","null","","","null","74","","","","","","","","","","","","","","","NaN",""
"","S1","","html-keyboard-response","481","614576","0.0-1.0-677.0","0","0","61830","","null","","","null","75","","","","","","","","","","","","","","","",""
"","ISI","","html-keyboard-response","482","616577","0.0-1.0-678.0","0","0","61830","","null","","","null","75","NaN","","","","","","","","","","","","","","",""
"","S2","","html-keyboard-response","483","616830","0.0-1.0-679.0","0","0","61830","","null","","","null","75","","NaN","","","","","","","","","","","","","",""
"","response","","html-keyboard-response","484","617300","0.0-1.0-680.0","0","0","61830","","470","","","75","75","","","2","75","training","adjacent","CB","3","2","P.jpg","M.jpg","0","0","1","",""
"","feedback","","html-keyboard-response","485","618302","0.0-1.0-681.0-0.0","0","0","61830","","null","","","null","75","","","","","","","","","","","","","","","",""
"","ITI","","html-keyboard-response","486","619304","0.0-1.0-684.0","0","0","61830","","null","","","null","75","","","","","","","","","","","","","","","NaN",""
"","S1","","html-keyboard-response","487","619557","0.0-1.0-686.0","0","0","61830","","null","","","null","76","","","","","","","","","","","","","","","",""
"","ISI","","html-keyboard-response","488","621559","0.0-1.0-687.0","0","0","61830","","null","","","null","76","NaN","","","","","","","","","","","","","","",""
"","S2","","html-keyboard-response","489","621810","0.0-1.0-688.0","0","0","61830","","null","","","null","76","","NaN","","","","","","","","","","","","","",""
"","response","","html-keyboard-response","490","622479","0.0-1.0-689.0","0","0","61830","","667","","","75","76","","","2","76","training","adjacent","DC","4","3","Q.jpg","P.jpg","0","0","1","",""
"","feedback","","html-keyboard-response","491","623481","0.0-1.0-690.0-0.0","0","0","61830","","null","","","null","76","","","","","","","","","","","","","","","",""
"","ITI","","html-keyboard-response","492","624483","0.0-1.0-693.0","0","0","61830","","null","","","null","76","","","","","","","","","","","","","","","NaN",""
"","S1","","html-keyboard-response","493","624735","0.0-1.0-695.0","0","0","61830","","null","","","null","77","","","","","","","","","","","","","","","",""
"","ISI","","html-keyboard-response","494","626737","0.0-1.0-696.0","0","0","61830","","null","","","null","77","NaN","","","","","","","","","","","","","","",""
"","S2","","html-keyboard-response","495","626989","0.0-1.0-697.0","0","0","61830","","null","","","null","77","","NaN","","","","","","","","","","","","","",""
"","response","","html-keyboard-response","496","627693","0.0-1.0-698.0","0","0","61830","","704","","","75","77","","","2","77","training","adjacent","FE","6","5","N.jpg","L.jpg","0","0","1","",""
"","feedback","","html-keyboard-response","497","628695","0.0-1.0-699.0-0.0","0","0","61830","","null","","","null","77","","","","","","","","","","","","","","","",""
"","ITI","","html-keyboard-response","498","629697","0.0-1.0-702.0","0","0","61830","","null","","","null","77","","","","","","","","","","","","","","","NaN",""
"","S1","","html-keyboard-response","499","629949","0.0-1.0-704.0","0","0","61830","","null","","","null","78","","","","","","","","","","","","","","","",""
"","ISI","","html-keyboard-response","500","631950","0.0-1.0-705.0","0","0","61830","","null","","","null","78","NaN","","","","","","","","","","","","","","",""
"","S2","","html-keyboard-response","501","632202","0.0-1.0-706.0","0","0","61830","","null","","","null","78","","NaN","","","","","","","","","","","","","",""
"","response","","html-keyboard-response","502","633121","0.0-1.0-707.0","0","0","61830","","918","","","68","78","","","2","78","training","adjacent","CD","3","4","P.jpg","Q.jpg","1","1","1","",""
"","feedback","","html-keyboard-response","503","634122","0.0-1.0-708.0-0.0","0","0","61830","","null","","","null","78","","","","","","","","","","","","","","","",""
"","ITI","","html-keyboard-response","504","635124","0.0-1.0-711.0","0","0","61830","","null","","","null","78","","","","","","","","","","","","","","","NaN",""
"","S1","","html-keyboard-response","505","635383","0.0-1.0-713.0","0","0","61830","","null","","","null","79","","","","","","","","","","","","","","","",""
"","ISI","","html-keyboard-response","506","637385","0.0-1.0-714.0","0","0","61830","","null","","","null","79","NaN","","","","","","","","","","","","","","",""
"","S2","","html-keyboard-response","507","637637","0.0-1.0-715.0","0","0","61830","","null","","","null","79","","NaN","","","","","","","","","","","","","",""
"","response","","html-keyboard-response","508","638057","0.0-1.0-716.0","0","0","61830","","420","","","68","79","","","2","79","training","adjacent","CD","3","4","P.jpg","Q.jpg","1","1","1","",""
"","feedback","","html-keyboard-response","509","639059","0.0-1.0-717.0-0.0","0","0","61830","","null","","","null","79","","","","","","","","","","","","","","","",""
"","ITI","","html-keyboard-response","510","640061","0.0-1.0-720.0","0","0","61830","","null","","","null","79","","","","","","","","","","","","","","","NaN",""
"","S1","","html-keyboard-response","511","640313","0.0-1.0-722.0","0","0","61830","","null","","","null","80","","","","","","","","","","","","","","","",""
"","ISI","","html-keyboard-response","512","642315","0.0-1.0-723.0","0","0","61830","","null","","","null","80","NaN","","","","","","","","","","","","","","",""
"","S2","","html-keyboard-response","513","642567","0.0-1.0-724.0","0","0","61830","","null","","","null","80","","NaN","","","","","","","","","","","","","",""
"","response","","html-keyboard-response","514","643734","0.0-1.0-725.0","0","0","61830","","1165","","","75","80","","","2","80","training","adjacent","ED","5","4","L.jpg","Q.jpg","0","0","1","",""
"","feedback","","html-keyboard-response","515","644735","0.0-1.0-726.0-0.0","0","0","61830","","null","","","null","80","","","","","","","","","","","","","","","",""
"","ITI","","html-keyboard-response","516","645737","0.0-1.0-729.0","0","0","61830","","null","","","null","80","","","","","","","","","","","","","","","NaN",""
"","S1","","html-keyboard-response","517","645989","0.0-1.0-731.0","0","0","61830","","null","","","null","81","","","","","","","","","","","","","","","",""
"","ISI","","html-keyboard-response","518","647991","0.0-1.0-732.0","0","0","61830","","null","","","null","81","NaN","","","","","","","","","","","","","","",""
"","S2","","html-keyboard-response","519","648242","0.0-1.0-733.0","0","0","61830","","null","","","null","81","","NaN","","","","","","","","","","","","","",""
"","response","","html-keyboard-response","520","648733","0.0-1.0-734.0","0","0","61830","","490","","","68","81","","","2","81","training","adjacent","AB","1","2","O.jpg","M.jpg","1","1","1","",""
"","feedback","","html-keyboard-response","521","649736","0.0-1.0-735.0-0.0","0","0","61830","","null","","","null","81","","","","","","","","","","","","","","","",""
"","ITI","","html-keyboard-response","522","650738","0.0-1.0-738.0","0","0","61830","","null","","","null","81","","","","","","","","","","","","","","","NaN",""
"","S1","","html-keyboard-response","523","650990","0.0-1.0-740.0","0","0","61830","","null","","","null","82","","","","","","","","","","","","","","","",""
"","ISI","","html-keyboard-response","524","652991","0.0-1.0-741.0","0","0","61830","","null","","","null","82","NaN","","","","","","","","","","","","","","",""
"","S2","","html-keyboard-response","525","653243","0.0-1.0-742.0","0","0","61830","","null","","","null","82","","NaN","","","","","","","","","","","","","",""
"","response","","html-keyboard-response","526","654068","0.0-1.0-743.0","0","0","61830","","824","","","68","82","","","2","82","training","adjacent","GF","7","6","R.jpg","N.jpg","1","0","0","",""
"","feedback","","html-keyboard-response","527","655071","0.0-1.0-744.0-0.0","0","0","61830","","null","","","null","82","","","","","","","","","","","","","","","",""
"","time_out","","html-keyboard-response","528","657073","0.0-1.0-746.0-0.0","0","0","61830","","null","","","null","82","","","","","","","","","","","","","","","",""
"","ITI","","html-keyboard-response","529","658075","0.0-1.0-747.0","0","0","61830","","null","","","null","82","","","","","","","","","","","","","","","NaN",""
"","S1","","html-keyboard-response","530","658327","0.0-1.0-749.0","0","0","61830","","null","","","null","83","","","","","","","","","","","","","","","",""
"","ISI","","html-keyboard-response","531","660329","0.0-1.0-750.0","0","0","61830","","null","","","null","83","NaN","","","","","","","","","","","","","","",""
"","S2","","html-keyboard-response","532","660581","0.0-1.0-751.0","0","0","61830","","null","","","null","83","","NaN","","","","","","","","","","","","","",""
"","response","","html-keyboard-response","533","661769","0.0-1.0-752.0","0","0","61830","","1186","","","75","83","","","2","83","training","adjacent","DE","4","5","Q.jpg","L.jpg","0","1","0","",""
"","feedback","","html-keyboard-response","534","662770","0.0-1.0-753.0-0.0","0","0","61830","","null","","","null","83","","","","","","","","","","","","","","","",""
"","time_out","","html-keyboard-response","535","664785","0.0-1.0-755.0-0.0","0","0","61830","","null","","","null","83","","","","","","","","","","","","","","","",""
"","ITI","","html-keyboard-response","536","665788","0.0-1.0-756.0","0","0","61830","","null","","","null","83","","","","","","","","","","","","","","","NaN",""
"","S1","","html-keyboard-response","537","666041","0.0-1.0-758.0","0","0","61830","","null","","","null","84","","","","","","","","","","","","","","","",""
"","ISI","","html-keyboard-response","538","668043","0.0-1.0-759.0","0","0","61830","","null","","","null","84","NaN","","","","","","","","","","","","","","",""
"","S2","","html-keyboard-response","539","668295","0.0-1.0-760.0","0","0","61830","","null","","","null","84","","NaN","","","","","","","","","","","","","",""
"","response","","html-keyboard-response","540","668858","0.0-1.0-761.0","0","0","61830","","563","","","68","84","","","2","84","training","adjacent","BA","2","1","M.jpg","O.jpg","1","0","0","",""
"","feedback","","html-keyboard-response","541","669862","0.0-1.0-762.0-0.0","0","0","61830","","null","","","null","84","","","","","","","","","","","","","","","",""
"","time_out","","html-keyboard-response","542","671863","0.0-1.0-764.0-0.0","0","0","61830","","null","","","null","84","","","","","","","","","","","","","","","",""
"","ITI","","html-keyboard-response","543","672865","0.0-1.0-765.0","0","0","61830","","null","","","null","84","","","","","","","","","","","","","","","NaN",""
"","S1","","html-keyboard-response","544","673117","0.0-1.0-767.0","0","0","61830","","null","","","null","85","","","","","","","","","","","","","","","",""
"","ISI","","html-keyboard-response","545","675119","0.0-1.0-768.0","0","0","61830","","null","","","null","85","NaN","","","","","","","","","","","","","","",""
"","S2","","html-keyboard-response","546","675371","0.0-1.0-769.0","0","0","61830","","null","","","null","85","","NaN","","","","","","","","","","","","","",""
"","response","","html-keyboard-response","547","675842","0.0-1.0-770.0","0","0","61830","","471","","","75","85","","","2","85","training","adjacent","ED","5","4","L.jpg","Q.jpg","0","0","1","",""
"","feedback","","html-keyboard-response","548","676844","0.0-1.0-771.0-0.0","0","0","61830","","null","","","null","85","","","","","","","","","","","","","","","",""
"","ITI","","html-keyboard-response","549","677847","0.0-1.0-774.0","0","0","61830","","null","","","null","85","","","","","","","","","","","","","","","NaN",""
"","S1","","html-keyboard-response","550","678099","0.0-1.0-776.0","0","0","61830","","null","","","null","86","","","","","","","","","","","","","","","",""
"","ISI","","html-keyboard-response","551","680101","0.0-1.0-777.0","0","0","61830","","null","","","null","86","NaN","","","","","","","","","","","","","","",""
"","S2","","html-keyboard-response","552","680353","0.0-1.0-778.0","0","0","61830","","null","","","null","86","","NaN","","","","","","","","","","","","","",""
"","response","","html-keyboard-response","553","681117","0.0-1.0-779.0","0","0","61830","","763","","","68","86","","","2","86","training","adjacent","FE","6","5","N.jpg","L.jpg","1","0","0","",""
"","feedback","","html-keyboard-response","554","682119","0.0-1.0-780.0-0.0","0","0","61830","","null","","","null","86","","","","","","","","","","","","","","","",""
"","time_out","","html-keyboard-response","555","684121","0.0-1.0-782.0-0.0","0","0","61830","","null","","","null","86","","","","","","","","","","","","","","","",""
"","ITI","","html-keyboard-response","556","685123","0.0-1.0-783.0","0","0","61830","","null","","","null","86","","","","","","","","","","","","","","","NaN",""
"","S1","","html-keyboard-response","557","685375","0.0-1.0-785.0","0","0","61830","","null","","","null","87","","","","","","","","","","","","","","","",""
"","ISI","","html-keyboard-response","558","687377","0.0-1.0-786.0","0","0","61830","","null","","","null","87","NaN","","","","","","","","","","","","","","",""
"","S2","","html-keyboard-response","559","687628","0.0-1.0-787.0","0","0","61830","","null","","","null","87","","NaN","","","","","","","","","","","","","",""
"","response","","html-keyboard-response","560","688461","0.0-1.0-788.0","0","0","61830","","831","","","75","87","","","2","87","training","adjacent","FE","6","5","N.jpg","L.jpg","0","0","1","",""
"","feedback","","html-keyboard-response","561","689463","0.0-1.0-789.0-0.0","0","0","61830","","null","","","null","87","","","","","","","","","","","","","","","",""
"","ITI","","html-keyboard-response","562","690465","0.0-1.0-792.0","0","0","61830","","null","","","null","87","","","","","","","","","","","","","","","NaN",""
"","S1","","html-keyboard-response","563","690717","0.0-1.0-794.0","0","0","61830","","null","","","null","88","","","","","","","","","","","","","","","",""
"","ISI","","html-keyboard-response","564","692719","0.0-1.0-795.0","0","0","61830","","null","","","null","88","NaN","","","","","","","","","","","","","","",""
"","S2","","html-keyboard-response","565","692970","0.0-1.0-796.0","0","0","61830","","null","","","null","88","","NaN","","","","","","","","","","","","","",""
"","response","","html-keyboard-response","566","693537","0.0-1.0-797.0","0","0","61830","","565","","","75","88","","","2","88","training","adjacent","BA","2","1","M.jpg","O.jpg","0","0","1","",""
"","feedback","","html-keyboard-response","567","694541","0.0-1.0-798.0-0.0","0","0","61830","","null","","","null","88","","","","","","","","","","","","","","","",""
"","ITI","","html-keyboard-response","568","695543","0.0-1.0-801.0","0","0","61830","","null","","","null","88","","","","","","","","","","","","","","","NaN",""
"","S1","","html-keyboard-response","569","695795","0.0-1.0-803.0","0","0","61830","","null","","","null","89","","","","","","","","","","","","","","","",""
"","ISI","","html-keyboard-response","570","697797","0.0-1.0-804.0","0","0","61830","","null","","","null","89","NaN","","","","","","","","","","","","","","",""
"","S2","","html-keyboard-response","571","698050","0.0-1.0-805.0","0","0","61830","","null","","","null","89","","NaN","","","","","","","","","","","","","",""
"","response","","html-keyboard-response","572","698875","0.0-1.0-806.0","0","0","61830","","824","","","68","89","","","2","89","training","adjacent","CD","3","4","P.jpg","Q.jpg","1","1","1","",""
"","feedback","","html-keyboard-response","573","699876","0.0-1.0-807.0-0.0","0","0","61830","","null","","","null","89","","","","","","","","","","","","","","","",""
"","ITI","","html-keyboard-response","574","700878","0.0-1.0-810.0","0","0","61830","","null","","","null","89","","","","","","","","","","","","","","","NaN",""
"","S1","","html-keyboard-response","575","701130","0.0-1.0-812.0","0","0","61830","","null","","","null","90","","","","","","","","","","","","","","","",""
"","ISI","","html-keyboard-response","576","703132","0.0-1.0-813.0","0","0","61830","","null","","","null","90","NaN","","","","","","","","","","","","","","",""
"","S2","","html-keyboard-response","577","703384","0.0-1.0-814.0","0","0","61830","","null","","","null","90","","NaN","","","","","","","","","","","","","",""
"","response","","html-keyboard-response","578","703533","0.0-1.0-815.0","0","0","61830","","148","","","75","90","","","2","90","training","adjacent","GF","7","6","R.jpg","N.jpg","0","0","1","",""
"","feedback","","html-keyboard-response","579","704537","0.0-1.0-816.0-0.0","0","0","61830","","null","","","null","90","","","","","","","","","","","","","","","",""
"","ITI","","html-keyboard-response","580","705539","0.0-1.0-819.0","0","0","61830","","null","","","null","90","","","","","","","","","","","","","","","NaN",""
"","S1","","html-keyboard-response","581","705790","0.0-1.0-821.0","0","0","61830","","null","","","null","91","","","","","","","","","","","","","","","",""
"","ISI","","html-keyboard-response","582","707792","0.0-1.0-822.0","0","0","61830","","null","","","null","91","NaN","","","","","","","","","","","","","","",""
"","S2","","html-keyboard-response","583","708044","0.0-1.0-823.0","0","0","61830","","null","","","null","91","","NaN","","","","","","","","","","","","","",""
"","response","","html-keyboard-response","584","708410","0.0-1.0-824.0","0","0","61830","","364","","","68","91","","","2","91","training","adjacent","FG","6","7","N.jpg","R.jpg","1","1","1","",""
