"success","ttype","start_time","trial_type","trial_index","time_elapsed","internal_node_id","warning","missed_checkup","PID","view_history","rt","responses","repeat_instructions","key_press","index","keypress_isi","keypress_S2","block","trial_num","phase","group_type","pair_type","S1_stim","S2_stim","S1_img","S2_img","S1_chosen","S1_higher","accuracy","keypress_iti","total_bonus_tally"
"true","full_screen","d04142023hr0548","fullscreen","0","9882","0.0-0.0","0","0","22559","","","","","","","","","","","","","","","","","","","","","",""
"","instructions","","instructions","1","36721","0.0-1.0-0.0-0.0","0","0","22559","[{""page_index"":0,""viewing_time"":3790},{""page_index"":1,""viewing_time"":18175},{""page_index"":2,""viewing_time"":2721},{""page_index"":3,""viewing_time"":2152}]","26838","","","","","","","","","","","","","","","","","","","",""
"","comprehension_check","","survey-multi-choice","2","61169","0.0-1.0-0.0-1.0","0","0","22559","","24445","{""Q0"":""True"",""Q1"":""K"",""Q2"":""Once the second image appears and while the screen 'MAKE A CHOICE' is shown"",""Q3"":""Green mark"",""Q4"":""either D or K""}","0","","","","","","","","","","","","","","","","","",""
"","start_exp","","html-keyboard-response","3","63392","0.0-1.0-1.0","0","0","22559","","2222","","","32","","","","","","","","","","","","","","","","",""
"","S1","","html-keyboard-response","4","63644","0.0-1.0-2.0","0","0","22559","","null","","","null","0","","","","","","","","","","","","","","","",""
"","ISI","","html-keyboard-response","5","64646","0.0-1.0-3.0","0","0","22559","","null","","","null","0","NaN","","","","","","","","","","","","","","",""
"","S2","","html-keyboard-response","6","64898","0.0-1.0-4.0","0","0","22559","","null","","","null","0","","NaN","","","","","","","","","","","","","",""
"","response","","html-keyboard-response","7","66650","0.0-1.0-5.0-0.0","0","0","22559","","null","","","null","0","","","1","0","training","adjacent","EF","5","6","Q.jpg","L.jpg","NaN","1","0","",""
"","too_slow_prompt","","html-keyboard-response","8","67653","0.0-1.0-7.0-0.0","1","0","22559","","null","","","null","","","","","","","","","","","","","","","","",""
"","time_out","","html-keyboard-response","9","69655","0.0-1.0-8.0-0.0","0","0","22559","","null","","","null","0","","","","","","","","","","","","","","","",""
"","ITI","","html-keyboard-response","10","70656","0.0-1.0-9.0","0","0","22559","","null","","","null","0","","","","","","","","","","","","","","","NaN",""
"","S1","","html-keyboard-response","11","70908","0.0-1.0-11.0","0","0","22559","","null","","","null","1","","","","","","","","","","","","","","","",""
"","ISI","","html-keyboard-response","12","71910","0.0-1.0-12.0","0","0","22559","","null","","","null","1","NaN","","","","","","","","","","","","","","",""
"","S2","","html-keyboard-response","13","72162","0.0-1.0-13.0","0","0","22559","","null","","","null","1","","NaN","","","","","","","","","","","","","",""
"","response","","html-keyboard-response","14","73913","0.0-1.0-14.0-0.0","0","0","22559","","null","","","null","1","","","1","1","training","adjacent","AB","1","2","P.jpg","O.jpg","NaN","1","0","",""
"","too_slow_prompt","","html-keyboard-response","15","74915","0.0-1.0-16.0-0.0","1","0","22559","","null","","","null","","","","","","","","","","","","","","","","",""
"","time_out","","html-keyboard-response","16","76918","0.0-1.0-17.0-0.0","0","0","22559","","null","","","null","1","","","","","","","","","","","","","","","",""
"","ITI","","html-keyboard-response","17","77927","0.0-1.0-18.0","0","0","22559","","null","","","null","1","","","","","","","","","","","","","","","NaN",""
"","S1","","html-keyboard-response","18","78179","0.0-1.0-20.0","0","0","22559","","null","","","null","2","","","","","","","","","","","","","","","",""
"","ISI","","html-keyboard-response","19","79188","0.0-1.0-21.0","0","0","22559","","null","","","null","2","NaN","","","","","","","","","","","","","","",""
"","S2","","html-keyboard-response","20","79440","0.0-1.0-22.0","0","0","22559","","null","","","null","2","","NaN","","","","","","","","","","","","","",""
"","response","","html-keyboard-response","21","79953","0.0-1.0-23.0-0.0","0","0","22559","","511","","","75","2","","","1","2","training","adjacent","AB","1","2","P.jpg","O.jpg","1","1","1","",""
"","feedback","","html-keyboard-response","22","80955","0.0-1.0-24.0-0.0","0","0","22559","","null","","","null","2","","","","","","","","","","","","","","","",""
"","ITI","","html-keyboard-response","23","81957","0.0-1.0-27.0","0","0","22559","","null","","","null","2","","","","","","","","","","","","","","","NaN",""
"","S1","","html-keyboard-response","24","82208","0.0-1.0-29.0","0","0","22559","","null","","","null","3","","","","","","","","","","","","","","","",""
"","ISI","","html-keyboard-response","25","83210","0.0-1.0-30.0","0","0","22559","","null","","","null","3","NaN","","","","","","","","","","","","","","",""
"","S2","","html-keyboard-response","26","83461","0.0-1.0-31.0","0","0","22559","","null","","","null","3","","NaN","","","","","","","","","","","","","",""
"","response","","html-keyboard-response","27","83888","0.0-1.0-32.0-0.0","0","0","22559","","426","","","75","3","","","1","3","training","adjacent","BC","2","3","O.jpg","R.jpg","1","1","1","",""
"","feedback","","html-keyboard-response","28","84890","0.0-1.0-33.0-0.0","0","0","22559","","null","","","null","3","","","","","","","","","","","","","","","",""
"","ITI","","html-keyboard-response","29","85892","0.0-1.0-36.0","0","0","22559","","null","","","null","3","","","","","","","","","","","","","","","NaN",""
"","S1","","html-keyboard-response","30","86144","0.0-1.0-38.0","0","0","22559","","null","","","null","4","","","","","","","","","","","","","","","",""
"","ISI","","html-keyboard-response","31","87146","0.0-1.0-39.0","0","0","22559","","null","","","null","4","NaN","","","","","","","","","","","","","","",""
"","S2","","html-keyboard-response","32","87216","0.0-1.0-40.0","0","0","22559","","68","","","68","4","","d","1","4","training","adjacent","BC","2","3","O.jpg","R.jpg","0","1","0","",""
"","feedback","","html-keyboard-response","33","88219","0.0-1.0-42.0-0.0","0","0","22559","","null","","","null","4","","","","","","","","","","","","","","","",""
"","time_out","","html-keyboard-response","34","90221","0.0-1.0-44.0-0.0","0","0","22559","","null","","","null","4","","","","","","","","","","","","","","","",""
"","ITI","","html-keyboard-response","35","91223","0.0-1.0-45.0","0","0","22559","","282","","","75","4","","","","","","","","","","","","","","","k",""
"","S1","","html-keyboard-response","36","91475","0.0-1.0-47.0","0","0","22559","","null","","","null","5","","","","","","","","","","","","","","","",""
"","ISI","","html-keyboard-response","37","92477","0.0-1.0-48.0","0","0","22559","","null","","","null","5","NaN","","","","","","","","","","","","","","",""
"","S2","","html-keyboard-response","38","92729","0.0-1.0-49.0","0","0","22559","","null","","","null","5","","NaN","","","","","","","","","","","","","",""
"","response","","html-keyboard-response","39","93032","0.0-1.0-50.0-0.0","0","0","22559","","302","","","75","5","","","1","5","training","adjacent","AB","1","2","P.jpg","O.jpg","1","1","1","",""
"","feedback","","html-keyboard-response","40","94035","0.0-1.0-51.0-0.0","0","0","22559","","null","","","null","5","","","","","","","","","","","","","","","",""
"","ITI","","html-keyboard-response","41","95037","0.0-1.0-54.0","0","0","22559","","null","","","null","5","","","","","","","","","","","","","","","NaN",""
"","S1","","html-keyboard-response","42","95289","0.0-1.0-56.0","0","0","22559","","null","","","null","6","","","","","","","","","","","","","","","",""
"","ISI","","html-keyboard-response","43","96291","0.0-1.0-57.0","0","0","22559","","null","","","null","6","NaN","","","","","","","","","","","","","","",""
"","S2","","html-keyboard-response","44","96544","0.0-1.0-58.0","0","0","22559","","null","","","null","6","","NaN","","","","","","","","","","","","","",""
"","response","","html-keyboard-response","45","96728","0.0-1.0-59.0-0.0","0","0","22559","","183","","","75","6","","","1","6","training","adjacent","BA","2","1","O.jpg","P.jpg","1","0","0","",""
"","feedback","","html-keyboard-response","46","97729","0.0-1.0-60.0-0.0","0","0","22559","","null","","","null","6","","","","","","","","","","","","","","","",""
"","time_out","","html-keyboard-response","47","99731","0.0-1.0-62.0-0.0","0","0","22559","","null","","","null","6","","","","","","","","","","","","","","","",""
"","ITI","","html-keyboard-response","48","100733","0.0-1.0-63.0","0","0","22559","","null","","","null","6","","","","","","","","","","","","","","","NaN",""
"","S1","","html-keyboard-response","49","100986","0.0-1.0-65.0","0","0","22559","","null","","","null","7","","","","","","","","","","","","","","","",""
"","ISI","","html-keyboard-response","50","101988","0.0-1.0-66.0","0","0","22559","","null","","","null","7","NaN","","","","","","","","","","","","","","",""
"","S2","","html-keyboard-response","51","102240","0.0-1.0-67.0","0","0","22559","","null","","","null","7","","NaN","","","","","","","","","","","","","",""
"","response","","html-keyboard-response","52","102920","0.0-1.0-68.0-0.0","0","0","22559","","679","","","75","7","","","1","7","training","adjacent","CB","3","2","R.jpg","O.jpg","1","0","0","",""
"","feedback","","html-keyboard-response","53","103923","0.0-1.0-69.0-0.0","0","0","22559","","null","","","null","7","","","","","","","","","","","","","","","",""
"","time_out","","html-keyboard-response","54","105925","0.0-1.0-71.0-0.0","0","0","22559","","null","","","null","7","","","","","","","","","","","","","","","",""
"","ITI","","html-keyboard-response","55","106927","0.0-1.0-72.0","0","0","22559","","null","","","null","7","","","","","","","","","","","","","","","NaN",""
"","S1","","html-keyboard-response","56","107178","0.0-1.0-74.0","0","0","22559","","null","","","null","8","","","","","","","","","","","","","","","",""
"","ISI","","html-keyboard-response","57","108181","0.0-1.0-75.0","0","0","22559","","null","","","null","8","NaN","","","","","","","","","","","","","","",""
"","S2","","html-keyboard-response","58","108434","0.0-1.0-76.0","0","0","22559","","null","","","null","8","","NaN","","","","","","","","","","","","","",""
"","response","","html-keyboard-response","59","109344","0.0-1.0-77.0-0.0","0","0","22559","","909","","","68","8","","","1","8","training","adjacent","DE","4","5","N.jpg","Q.jpg","0","1","0","",""
"","feedback","","html-keyboard-response","60","110346","0.0-1.0-78.0-0.0","0","0","22559","","null","","","null","8","","","","","","","","","","","","","","","",""
"","time_out","","html-keyboard-response","61","112348","0.0-1.0-80.0-0.0","0","0","22559","","null","","","null","8","","","","","","","","","","","","","","","",""
"","ITI","","html-keyboard-response","62","113350","0.0-1.0-81.0","0","0","22559","","null","","","null","8","","","","","","","","","","","","","","","NaN",""
"","S1","","html-keyboard-response","63","113603","0.0-1.0-83.0","0","0","22559","","null","","","null","9","","","","","","","","","","","","","","","",""
"","ISI","","html-keyboard-response","64","114605","0.0-1.0-84.0","0","0","22559","","null","","","null","9","NaN","","","","","","","","","","","","","","",""
"","S2","","html-keyboard-response","65","114857","0.0-1.0-85.0","0","0","22559","","null","","","null","9","","NaN","","","","","","","","","","","","","",""
"","response","","html-keyboard-response","66","115320","0.0-1.0-86.0-0.0","0","0","22559","","462","","","68","9","","","1","9","training","adjacent","BC","2","3","O.jpg","R.jpg","0","1","0","",""
"","feedback","","html-keyboard-response","67","116323","0.0-1.0-87.0-0.0","0","0","22559","","null","","","null","9","","","","","","","","","","","","","","","",""
"","time_out","","html-keyboard-response","68","118326","0.0-1.0-89.0-0.0","0","0","22559","","null","","","null","9","","","","","","","","","","","","","","","",""
"","ITI","","html-keyboard-response","69","119327","0.0-1.0-90.0","0","0","22559","","null","","","null","9","","","","","","","","","","","","","","","NaN",""
"","S1","","html-keyboard-response","70","119578","0.0-1.0-92.0","0","0","22559","","null","","","null","10","","","","","","","","","","","","","","","",""
"","ISI","","html-keyboard-response","71","120581","0.0-1.0-93.0","0","0","22559","","null","","","null","10","NaN","","","","","","","","","","","","","","",""
"","S2","","html-keyboard-response","72","120833","0.0-1.0-94.0","0","0","22559","","null","","","null","10","","NaN","","","","","","","","","","","","","",""
"","response","","html-keyboard-response","73","121072","0.0-1.0-95.0-0.0","0","0","22559","","238","","","75","10","","","1","10","training","adjacent","BA","2","1","O.jpg","P.jpg","1","0","0","",""
"","feedback","","html-keyboard-response","74","122073","0.0-1.0-96.0-0.0","0","0","22559","","null","","","null","10","","","","","","","","","","","","","","","",""
"","time_out","","html-keyboard-response","75","124075","0.0-1.0-98.0-0.0","0","0","22559","","null","","","null","10","","","","","","","","","","","","","","","",""
"","ITI","","html-keyboard-response","76","125076","0.0-1.0-99.0","0","0","22559","","null","","","null","10","","","","","","","","","","","","","","","NaN",""
"","S1","","html-keyboard-response","77","125327","0.0-1.0-101.0","0","0","22559","","null","","","null","11","","","","","","","","","","","","","","","",""
"","ISI","","html-keyboard-response","78","126329","0.0-1.0-102.0","0","0","22559","","null","","","null","11","NaN","","","","","","","","","","","","","","",""
"","S2","","html-keyboard-response","79","126581","0.0-1.0-103.0","0","0","22559","","null","","","null","11","","NaN","","","","","","","","","","","","","",""
"","response","","html-keyboard-response","80","127392","0.0-1.0-104.0-0.0","0","0","22559","","810","","","75","11","","","1","11","training","adjacent","DC","4","3","N.jpg","R.jpg","1","0","0","",""
"","feedback","","html-keyboard-response","81","128394","0.0-1.0-105.0-0.0","0","0","22559","","null","","","null","11","","","","","","","","","","","","","","","",""
"","time_out","","html-keyboard-response","82","130396","0.0-1.0-107.0-0.0","0","0","22559","","null","","","null","11","","","","","","","","","","","","","","","",""
"","ITI","","html-keyboard-response","83","131404","0.0-1.0-108.0","0","0","22559","","null","","","null","11","","","","","","","","","","","","","","","NaN",""
"","S1","","html-keyboard-response","84","131655","0.0-1.0-110.0","0","0","22559","","null","","","null","12","","","","","","","","","","","","","","","",""
"","ISI","","html-keyboard-response","85","132658","0.0-1.0-111.0","0","0","22559","","null","","","null","12","NaN","","","","","","","","","","","","","","",""
"","S2","","html-keyboard-response","86","132910","0.0-1.0-112.0","0","0","22559","","null","","","null","12","","NaN","","","","","","","","","","","","","",""
"","response","","html-keyboard-response","87","133632","0.0-1.0-113.0-0.0","0","0","22559","","721","","","68","12","","","1","12","training","adjacent","CD","3","4","R.jpg","N.jpg","0","1","0","",""
"","feedback","","html-keyboard-response","88","134633","0.0-1.0-114.0-0.0","0","0","22559","","null","","","null","12","","","","","","","","","","","","","","","",""
"","time_out","","html-keyboard-response","89","136636","0.0-1.0-116.0-0.0","0","0","22559","","null","","","null","12","","","","","","","","","","","","","","","",""
"","ITI","","html-keyboard-response","90","137638","0.0-1.0-117.0","0","0","22559","","null","","","null","12","","","","","","","","","","","","","","","NaN",""
"","S1","","html-keyboard-response","91","137890","0.0-1.0-119.0","0","0","22559","","null","","","null","13","","","","","","","","","","","","","","","",""
"","ISI","","html-keyboard-response","92","138893","0.0-1.0-120.0","0","0","22559","","null","","","null","13","NaN","","","","","","","","","","","","","","",""
"","S2","","html-keyboard-response","93","139152","0.0-1.0-121.0","0","0","22559","","null","","","null","13","","NaN","","","","","","","","","","","","","",""
"","response","","html-keyboard-response","94","140032","0.0-1.0-122.0-0.0","0","0","22559","","878","","","75","13","","","1","13","training","adjacent","CD","3","4","R.jpg","N.jpg","1","1","1","",""
"","feedback","","html-keyboard-response","95","141034","0.0-1.0-123.0-0.0","0","0","22559","","null","","","null","13","","","","","","","","","","","","","","","",""
"","ITI","","html-keyboard-response","96","142036","0.0-1.0-126.0","0","0","22559","","null","","","null","13","","","","","","","","","","","","","","","NaN",""
"","S1","","html-keyboard-response","97","142288","0.0-1.0-128.0","0","0","22559","","null","","","null","14","","","","","","","","","","","","","","","",""
"","ISI","","html-keyboard-response","98","143289","0.0-1.0-129.0","0","0","22559","","null","","","null","14","NaN","","","","","","","","","","","","","","",""
"","S2","","html-keyboard-response","99","143540","0.0-1.0-130.0","0","0","22559","","null","","","null","14","","NaN","","","","","","","","","","","","","",""
"","response","","html-keyboard-response","100","144336","0.0-1.0-131.0-0.0","0","0","22559","","794","","","75","14","","","1","14","training","adjacent","CD","3","4","R.jpg","N.jpg","1","1","1","",""
"","feedback","","html-keyboard-response","101","145337","0.0-1.0-132.0-0.0","0","0","22559","","null","","","null","14","","","","","","","","","","","","","","","",""
"","ITI","","html-keyboard-response","102","146338","0.0-1.0-135.0","0","0","22559","","null","","","null","14","","","","","","","","","","","","","","","NaN",""
"","S1","","html-keyboard-response","103","146589","0.0-1.0-137.0","0","0","22559","","null","","","null","15","","","","","","","","","","","","","","","",""
"","ISI","","html-keyboard-response","104","147591","0.0-1.0-138.0","0","0","22559","","null","","","null","15","NaN","","","","","","","","","","","","","","",""
"","S2","","html-keyboard-response","105","147844","0.0-1.0-139.0","0","0","22559","","null","","","null","15","","NaN","","","","","","","","","","","","","",""
"","response","","html-keyboard-response","106","148424","0.0-1.0-140.0-0.0","0","0","22559","","579","","","68","15","","","1","15","training","adjacent","DE","4","5","N.jpg","Q.jpg","0","1","0","",""
"","feedback","","html-keyboard-response","107","149426","0.0-1.0-141.0-0.0","0","0","22559","","null","","","null","15","","","","","","","","","","","","","","","",""
"","time_out","","html-keyboard-response","108","151427","0.0-1.0-143.0-0.0","0","0","22559","","null","","","null","15","","","","","","","","","","","","","","","",""
"","ITI","","html-keyboard-response","109","152429","0.0-1.0-144.0","0","0","22559","","null","","","null","15","","","","","","","","","","","","","","","NaN",""
"","S1","","html-keyboard-response","110","152680","0.0-1.0-146.0","0","0","22559","","null","","","null","16","","","","","","","","","","","","","","","",""
"","ISI","","html-keyboard-response","111","153682","0.0-1.0-147.0","0","0","22559","","null","","","null","16","NaN","","","","","","","","","","","","","","",""
"","S2","","html-keyboard-response","112","153933","0.0-1.0-148.0","0","0","22559","","null","","","null","16","","NaN","","","","","","","","","","","","","",""
"","response","","html-keyboard-response","113","154216","0.0-1.0-149.0-0.0","0","0","22559","","281","","","75","16","","","1","16","training","adjacent","FE","6","5","L.jpg","Q.jpg","1","0","0","",""
"","feedback","","html-keyboard-response","114","155218","0.0-1.0-150.0-0.0","0","0","22559","","null","","","null","16","","","","","","","","","","","","","","","",""
"","time_out","","html-keyboard-response","115","157221","0.0-1.0-152.0-0.0","0","0","22559","","null","","","null","16","","","","","","","","","","","","","","","",""
"","ITI","","html-keyboard-response","116","158223","0.0-1.0-153.0","0","0","22559","","null","","","null","16","","","","","","","","","","","","","","","NaN",""
"","S1","","html-keyboard-response","117","158475","0.0-1.0-155.0","0","0","22559","","null","","","null","17","","","","","","","","","","","","","","","",""
"","ISI","","html-keyboard-response","118","159477","0.0-1.0-156.0","0","0","22559","","null","","","null","17","NaN","","","","","","","","","","","","","","",""
"","S2","","html-keyboard-response","119","159729","0.0-1.0-157.0","0","0","22559","","null","","","null","17","","NaN","","","","","","","","","","","","","",""
"","response","","html-keyboard-response","120","160200","0.0-1.0-158.0-0.0","0","0","22559","","470","","","68","17","","","1","17","training","adjacent","CB","3","2","R.jpg","O.jpg","0","0","1","",""
"","feedback","","html-keyboard-response","121","161201","0.0-1.0-159.0-0.0","0","0","22559","","null","","","null","17","","","","","","","","","","","","","","","",""
"","ITI","","html-keyboard-response","122","162203","0.0-1.0-162.0","0","0","22559","","null","","","null","17","","","","","","","","","","","","","","","NaN",""
"","S1","","html-keyboard-response","123","162455","0.0-1.0-164.0","0","0","22559","","null","","","null","18","","","","","","","","","","","","","","","",""
"","ISI","","html-keyboard-response","124","163456","0.0-1.0-165.0","0","0","22559","","null","","","null","18","NaN","","","","","","","","","","","","","","",""
"","S2","","html-keyboard-response","125","163708","0.0-1.0-166.0","0","0","22559","","null","","","null","18","","NaN","","","","","","","","","","","","","",""
"","response","","html-keyboard-response","126","164464","0.0-1.0-167.0-0.0","0","0","22559","","755","","","75","18","","","1","18","training","adjacent","CD","3","4","R.jpg","N.jpg","1","1","1","",""
"","feedback","","html-keyboard-response","127","165466","0.0-1.0-168.0-0.0","0","0","22559","","null","","","null","18","","","","","","","","","","","","","","","",""
"","ITI","","html-keyboard-response","128","166467","0.0-1.0-171.0","0","0","22559","","null","","","null","18","","","","","","","","","","","","","","","NaN",""
"","S1","","html-keyboard-response","129","166719","0.0-1.0-173.0","0","0","22559","","null","","","null","19","","","","","","","","","","","","","","","",""
"","ISI","","html-keyboard-response","130","167721","0.0-1.0-174.0","0","0","22559","","null","","","null","19","NaN","","","","","","","","","","","","","","",""
"","S2","","html-keyboard-response","131","167973","0.0-1.0-175.0","0","0","22559","","null","","","null","19","","NaN","","","","","","","","","","","","","",""
"","response","","html-keyboard-response","132","168568","0.0-1.0-176.0-0.0","0","0","22559","","593","","","68","19","","","1","19","training","adjacent","BA","2","1","O.jpg","P.jpg","0","0","1","",""
"","feedback","","html-keyboard-response","133","169569","0.0-1.0-177.0-0.0","0","0","22559","","null","","","null","19","","","","","","","","","","","","","","","",""
"","ITI","","html-keyboard-response","134","170570","0.0-1.0-180.0","0","0","22559","","null","","","null","19","","","","","","","","","","","","","","","NaN",""
"","S1","","html-keyboard-response","135","170822","0.0-1.0-182.0","0","0","22559","","null","","","null","20","","","","","","","","","","","","","","","",""
"","ISI","","html-keyboard-response","136","171823","0.0-1.0-183.0","0","0","22559","","null","","","null","20","NaN","","","","","","","","","","","","","","",""
"","S2","","html-keyboard-response","137","172075","0.0-1.0-184.0","0","0","22559","","null","","","null","20","","NaN","","","","","","","","","","","","","",""
"","response","","html-keyboard-response","138","172888","0.0-1.0-185.0-0.0","0","0","22559","","812","","","75","20","","","1","20","training","adjacent","FG","6","7","L.jpg","M.jpg","1","1","1","",""
"","feedback","","html-keyboard-response","139","173890","0.0-1.0-186.0-0.0","0","0","22559","","null","","","null","20","","","","","","","","","","","","","","","",""
"","ITI","","html-keyboard-response","140","174893","0.0-1.0-189.0","0","0","22559","","null","","","null","20","","","","","","","","","","","","","","","NaN",""
"","S1","","html-keyboard-response","141","175145","0.0-1.0-191.0","0","0","22559","","null","","","null","21","","","","","","","","","","","","","","","",""
"","ISI","","html-keyboard-response","142","176147","0.0-1.0-192.0","0","0","22559","","null","","","null","21","NaN","","","","","","","","","","","","","","",""
"","S2","","html-keyboard-response","143","176406","0.0-1.0-193.0","0","0","22559","","null","","","null","21","","NaN","","","","","","","","","","","","","",""
"","response","","html-keyboard-response","144","176808","0.0-1.0-194.0-0.0","0","0","22559","","401","","","75","21","","","1","21","training","adjacent","EF","5","6","Q.jpg","L.jpg","1","1","1","",""
"","feedback","","html-keyboard-response","145","177811","0.0-1.0-195.0-0.0","0","0","22559","","null","","","null","21","","","","","","","","","","","","","","","",""
"","ITI","","html-keyboard-response","146","178843","0.0-1.0-198.0","0","0","22559","","null","","","null","21","","","","","","","","","","","","","","","NaN",""
"","S1","","html-keyboard-response","147","179097","0.0-1.0-200.0","0","0","22559","","null","","","null","22","","","","","","","","","","","","","","","",""
"","ISI","","html-keyboard-response","148","180101","0.0-1.0-201.0","0","0","22559","","null","","","null","22","NaN","","","","","","","","","","","","","","",""
"","S2","","html-keyboard-response","149","180353","0.0-1.0-202.0","0","0","22559","","null","","","null","22","","NaN","","","","","","","","","","","","","",""
"","response","","html-keyboard-response","150","181831","0.0-1.0-203.0-0.0","0","0","22559","","1478","","","75","22","","","1","22","training","adjacent","ED","5","4","Q.jpg","N.jpg","1","0","0","",""
"","feedback","","html-keyboard-response","151","182834","0.0-1.0-204.0-0.0","0","0","22559","","null","","","null","22","","","","","","","","","","","","","","","",""
"","time_out","","html-keyboard-response","152","184837","0.0-1.0-206.0-0.0","0","0","22559","","null","","","null","22","","","","","","","","","","","","","","","",""
"","ITI","","html-keyboard-response","153","185839","0.0-1.0-207.0","0","0","22559","","null","","","null","22","","","","","","","","","","","","","","","NaN",""
"","S1","","html-keyboard-response","154","186090","0.0-1.0-209.0","0","0","22559","","null","","","null","23","","","","","","","","","","","","","","","",""
"","ISI","","html-keyboard-response","155","187093","0.0-1.0-210.0","0","0","22559","","null","","","null","23","NaN","","","","","","","","","","","","","","",""
"","S2","","html-keyboard-response","156","187345","0.0-1.0-211.0","0","0","22559","","null","","","null","23","","NaN","","","","","","","","","","","","","",""
"","response","","html-keyboard-response","157","187495","0.0-1.0-212.0-0.0","0","0","22559","","149","","","68","23","","","1","23","training","adjacent","DE","4","5","N.jpg","Q.jpg","0","1","0","",""
"","feedback","","html-keyboard-response","158","188497","0.0-1.0-213.0-0.0","0","0","22559","","null","","","null","23","","","","","","","","","","","","","","","",""
"","time_out","","html-keyboard-response","159","190498","0.0-1.0-215.0-0.0","0","0","22559","","null","","","null","23","","","","","","","","","","","","","","","",""
"","ITI","","html-keyboard-response","160","191500","0.0-1.0-216.0","0","0","22559","","null","","","null","23","","","","","","","","","","","","","","","NaN",""
"","S1","","html-keyboard-response","161","191753","0.0-1.0-218.0","0","0","22559","","null","","","null","24","","","","","","","","","","","","","","","",""
"","ISI","","html-keyboard-response","162","192755","0.0-1.0-219.0","0","0","22559","","null","","","null","24","NaN","","","","","","","","","","","","","","",""
"","S2","","html-keyboard-response","163","193006","0.0-1.0-220.0","0","0","22559","","null","","","null","24","","NaN","","","","","","","","","","","","","",""
"","response","","html-keyboard-response","164","194758","0.0-1.0-221.0-0.0","0","0","22559","","null","","","null","24","","","1","24","training","adjacent","DC","4","3","N.jpg","R.jpg","NaN","0","0","",""
"","too_slow_prompt","","html-keyboard-response","165","195760","0.0-1.0-223.0-0.0","1","0","22559","","null","","","null","","","","","","","","","","","","","","","","",""
"","time_out","","html-keyboard-response","166","197763","0.0-1.0-224.0-0.0","0","0","22559","","null","","","null","24","","","","","","","","","","","","","","","",""
"","ITI","","html-keyboard-response","167","198764","0.0-1.0-225.0","0","0","22559","","null","","","null","24","","","","","","","","","","","","","","","NaN",""
"","S1","","html-keyboard-response","168","199017","0.0-1.0-227.0","0","0","22559","","null","","","null","25","","","","","","","","","","","","","","","",""
"","ISI","","html-keyboard-response","169","200019","0.0-1.0-228.0","0","0","22559","","null","","","null","25","NaN","","","","","","","","","","","","","","",""
"","S2","","html-keyboard-response","170","200270","0.0-1.0-229.0","0","0","22559","","null","","","null","25","","NaN","","","","","","","","","","","","","",""
"","response","","html-keyboard-response","171","202022","0.0-1.0-230.0-0.0","0","0","22559","","null","","","null","25","","","1","25","training","adjacent","GF","7","6","M.jpg","L.jpg","NaN","0","0","",""
"","too_slow_prompt","","html-keyboard-response","172","203032","0.0-1.0-232.0-0.0","1","0","22559","","null","","","null","","","","","","","","","","","","","","","","",""
"","time_out","","html-keyboard-response","173","205033","0.0-1.0-233.0-0.0","0","0","22559","","null","","","null","25","","","","","","","","","","","","","","","",""
"","ITI","","html-keyboard-response","174","206034","0.0-1.0-234.0","0","0","22559","","null","","","null","25","","","","","","","","","","","","","","","NaN",""
"","S1","","html-keyboard-response","175","206287","0.0-1.0-236.0","0","0","22559","","null","","","null","26","","","","","","","","","","","","","","","",""
"","ISI","","html-keyboard-response","176","207288","0.0-1.0-237.0","0","0","22559","","null","","","null","26","NaN","","","","","","","","","","","","","","",""
"","S2","","html-keyboard-response","177","207540","0.0-1.0-238.0","0","0","22559","","null","","","null","26","","NaN","","","","","","","","","","","","","",""
"","response","","html-keyboard-response","178","209291","0.0-1.0-239.0-0.0","0","0","22559","","null","","","null","26","","","1","26","training","adjacent","BA","2","1","O.jpg","P.jpg","NaN","0","0","",""
"","too_slow_prompt","","html-keyboard-response","179","210293","0.0-1.0-241.0-0.0","1","0","22559","","null","","","null","","","","","","","","","","","","","","","","",""
"","time_out","","html-keyboard-response","180","212294","0.0-1.0-242.0-0.0","0","0","22559","","null","","","null","26","","","","","","","","","","","","","","","",""
"","ITI","","html-keyboard-response","181","213304","0.0-1.0-243.0","0","0","22559","","null","","","null","26","","","","","","","","","","","","","","","NaN",""
"","S1","","html-keyboard-response","182","213556","0.0-1.0-245.0","0","0","22559","","null","","","null","27","","","","","","","","","","","","","","","",""
"","ISI","","html-keyboard-response","183","214558","0.0-1.0-246.0","0","0","22559","","null","","","null","27","NaN","","","","","","","","","","","","","","",""
"","S2","","html-keyboard-response","184","214809","0.0-1.0-247.0","0","0","22559","","null","","","null","27","","NaN","","","","","","","","","","","","","",""
"","response","","html-keyboard-response","185","216561","0.0-1.0-248.0-0.0","0","0","22559","","null","","","null","27","","","1","27","training","adjacent","DE","4","5","N.jpg","Q.jpg","NaN","1","0","",""
"","too_slow_prompt","","html-keyboard-response","186","217563","0.0-1.0-250.0-0.0","1","0","22559","","null","","","null","","","","","","","","","","","","","","","","",""
"","time_out","","html-keyboard-response","187","219566","0.0-1.0-251.0-0.0","0","0","22559","","null","","","null","27","","","","","","","","","","","","","","","",""
"","ITI","","html-keyboard-response","188","220568","0.0-1.0-252.0","0","0","22559","","null","","","null","27","","","","","","","","","","","","","","","NaN",""
"","S1","","html-keyboard-response","189","220820","0.0-1.0-254.0","0","0","22559","","null","","","null","28","","","","","","","","","","","","","","","",""
"","ISI","","html-keyboard-response","190","221822","0.0-1.0-255.0","0","0","22559","","null","","","null","28","NaN","","","","","","","","","","","","","","",""
"","S2","","html-keyboard-response","191","222074","0.0-1.0-256.0","0","0","22559","","null","","","null","28","","NaN","","","","","","","","","","","","","",""
"","response","","html-keyboard-response","192","223826","0.0-1.0-257.0-0.0","0","0","22559","","null","","","null","28","","","1","28","training","adjacent","ED","5","4","Q.jpg","N.jpg","NaN","0","0","",""
"","too_slow_prompt","","html-keyboard-response","193","224828","0.0-1.0-259.0-0.0","1","0","22559","","null","","","null","","","","","","","","","","","","","","","","",""
"","time_out","","html-keyboard-response","194","226830","0.0-1.0-260.0-0.0","0","0","22559","","null","","","null","28","","","","","","","","","","","","","","","",""
"","ITI","","html-keyboard-response","195","227831","0.0-1.0-261.0","0","0","22559","","null","","","null","28","","","","","","","","","","","","","","","NaN",""
"","S1","","html-keyboard-response","196","228083","0.0-1.0-263.0","0","0","22559","","null","","","null","29","","","","","","","","","","","","","","","",""
"","ISI","","html-keyboard-response","197","229085","0.0-1.0-264.0","0","0","22559","","null","","","null","29","NaN","","","","","","","","","","","","","","",""
"","S2","","html-keyboard-response","198","229337","0.0-1.0-265.0","0","0","22559","","null","","","null","29","","NaN","","","","","","","","","","","","","",""
"","response","","html-keyboard-response","199","231089","0.0-1.0-266.0-0.0","0","0","22559","","null","","","null","29","","","1","29","training","adjacent","CB","3","2","R.jpg","O.jpg","NaN","0","0","",""
"","too_slow_prompt","","html-keyboard-response","200","232090","0.0-1.0-268.0-0.0","1","0","22559","","null","","","null","","","","","","","","","","","","","","","","",""
"","time_out","","html-keyboard-response","201","234093","0.0-1.0-269.0-0.0","0","0","22559","","null","","","null","29","","","","","","","","","","","","","","","",""
"","ITI","","html-keyboard-response","202","235094","0.0-1.0-270.0","0","0","22559","","null","","","null","29","","","","","","","","","","","","","","","NaN",""
"","S1","","html-keyboard-response","203","235346","0.0-1.0-272.0","0","0","22559","","null","","","null","30","","","","","","","","","","","","","","","",""
"","ISI","","html-keyboard-response","204","236350","0.0-1.0-273.0","0","0","22559","","null","","","null","30","NaN","","","","","","","","","","","","","","",""
"","S2","","html-keyboard-response","205","236601","0.0-1.0-274.0","0","0","22559","","null","","","null","30","","NaN","","","","","","","","","","","","","",""
"","response","","html-keyboard-response","206","238354","0.0-1.0-275.0-0.0","0","0","22559","","null","","","null","30","","","1","30","training","adjacent","CB","3","2","R.jpg","O.jpg","NaN","0","0","",""
"","too_slow_prompt","","html-keyboard-response","207","239356","0.0-1.0-277.0-0.0","1","0","22559","","null","","","null","","","","","","","","","","","","","","","","",""
"","time_out","","html-keyboard-response","208","241358","0.0-1.0-278.0-0.0","0","0","22559","","null","","","null","30","","","","","","","","","","","","","","","",""
"","ITI","","html-keyboard-response","209","242360","0.0-1.0-279.0","0","0","22559","","null","","","null","30","","","","","","","","","","","","","","","NaN",""
"","S1","","html-keyboard-response","210","242612","0.0-1.0-281.0","0","0","22559","","null","","","null","31","","","","","","","","","","","","","","","",""
"","ISI","","html-keyboard-response","211","243615","0.0-1.0-282.0","0","0","22559","","null","","","null","31","NaN","","","","","","","","","","","","","","",""
"","S2","","html-keyboard-response","212","243867","0.0-1.0-283.0","0","0","22559","","null","","","null","31","","NaN","","","","","","","","","","","","","",""
"","response","","html-keyboard-response","213","245431","0.0-1.0-284.0-0.0","0","0","22559","","1563","","","68","31","","","1","31","training","adjacent","GF","7","6","M.jpg","L.jpg","0","0","1","",""
"","feedback","","html-keyboard-response","214","246434","0.0-1.0-285.0-0.0","0","0","22559","","null","","","null","31","","","","","","","","","","","","","","","",""
"","ITI","","html-keyboard-response","215","247436","0.0-1.0-288.0","0","0","22559","","null","","","null","31","","","","","","","","","","","","","","","NaN",""
"","S1","","html-keyboard-response","216","247688","0.0-1.0-290.0","0","0","22559","","null","","","null","32","","","","","","","","","","","","","","","",""
"","ISI","","html-keyboard-response","217","248690","0.0-1.0-291.0","0","0","22559","","null","","","null","32","NaN","","","","","","","","","","","","","","",""
"","S2","","html-keyboard-response","218","248942","0.0-1.0-292.0","0","0","22559","","null","","","null","32","","NaN","","","","","","","","","","","","","",""
"","response","","html-keyboard-response","219","250694","0.0-1.0-293.0-0.0","0","0","22559","","null","","","null","32","","","1","32","training","adjacent","FG","6","7","L.jpg","M.jpg","NaN","1","0","",""
"","too_slow_prompt","","html-keyboard-response","220","251696","0.0-1.0-295.0-0.0","1","0","22559","","null","","","null","","","","","","","","","","","","","","","","",""
"","time_out","","html-keyboard-response","221","253698","0.0-1.0-296.0-0.0","0","0","22559","","null","","","null","32","","","","","","","","","","","","","","","",""
"","ITI","","html-keyboard-response","222","254700","0.0-1.0-297.0","0","0","22559","","884","","","75","32","","","","","","","","","","","","","","","k",""
"","S1","","html-keyboard-response","223","254952","0.0-1.0-299.0","0","0","22559","","null","","","null","33","","","","","","","","","","","","","","","",""
"","ISI","","html-keyboard-response","224","255955","0.0-1.0-300.0","0","0","22559","","null","","","null","33","NaN","","","","","","","","","","","","","","",""
"","S2","","html-keyboard-response","225","256207","0.0-1.0-301.0","0","0","22559","","null","","","null","33","","NaN","","","","","","","","","","","","","",""
"","response","","html-keyboard-response","226","256535","0.0-1.0-302.0-0.0","0","0","22559","","327","","","68","33","","","1","33","training","adjacent","DC","4","3","N.jpg","R.jpg","0","0","1","",""
"","feedback","","html-keyboard-response","227","257537","0.0-1.0-303.0-0.0","0","0","22559","","null","","","null","33","","","","","","","","","","","","","","","",""
"","ITI","","html-keyboard-response","228","258539","0.0-1.0-306.0","0","0","22559","","null","","","null","33","","","","","","","","","","","","","","","NaN",""
"","S1","","html-keyboard-response","229","258790","0.0-1.0-308.0","0","0","22559","","null","","","null","34","","","","","","","","","","","","","","","",""
"","ISI","","html-keyboard-response","230","259791","0.0-1.0-309.0","0","0","22559","","null","","","null","34","NaN","","","","","","","","","","","","","","",""
"","S2","","html-keyboard-response","231","260043","0.0-1.0-310.0","0","0","22559","","null","","","null","34","","NaN","","","","","","","","","","","","","",""
"","response","","html-keyboard-response","232","260216","0.0-1.0-311.0-0.0","0","0","22559","","172","","","75","34","","","1","34","training","adjacent","FE","6","5","L.jpg","Q.jpg","1","0","0","",""
"","feedback","","html-keyboard-response","233","261220","0.0-1.0-312.0-0.0","0","0","22559","","null","","","null","34","","","","","","","","","","","","","","","",""
"","time_out","","html-keyboard-response","234","263223","0.0-1.0-314.0-0.0","0","0","22559","","null","","","null","34","","","","","","","","","","","","","","","",""
"","ITI","","html-keyboard-response","235","264225","0.0-1.0-315.0","0","0","22559","","null","","","null","34","","","","","","","","","","","","","","","NaN",""
"","S1","","html-keyboard-response","236","264476","0.0-1.0-317.0","0","0","22559","","null","","","null","35","","","","","","","","","","","","","","","",""
"","ISI","","html-keyboard-response","237","265478","0.0-1.0-318.0","0","0","22559","","null","","","null","35","NaN","","","","","","","","","","","","","","",""
"","S2","","html-keyboard-response","238","265730","0.0-1.0-319.0","0","0","22559","","null","","","null","35","","NaN","","","","","","","","","","","","","",""
"","response","","html-keyboard-response","239","265888","0.0-1.0-320.0-0.0","0","0","22559","","157","","","68","35","","","1","35","training","adjacent","FE","6","5","L.jpg","Q.jpg","0","0","1","",""
"","feedback","","html-keyboard-response","240","266891","0.0-1.0-321.0-0.0","0","0","22559","","null","","","null","35","","","","","","","","","","","","","","","",""
"","ITI","","html-keyboard-response","241","267893","0.0-1.0-324.0","0","0","22559","","null","","","null","35","","","","","","","","","","","","","","","NaN",""
"","S1","","html-keyboard-response","242","268145","0.0-1.0-326.0","0","0","22559","","null","","","null","36","","","","","","","","","","","","","","","",""
"","ISI","","html-keyboard-response","243","269147","0.0-1.0-327.0","0","0","22559","","null","","","null","36","NaN","","","","","","","","","","","","","","",""
"","S2","","html-keyboard-response","244","269399","0.0-1.0-328.0","0","0","22559","","null","","","null","36","","NaN","","","","","","","","","","","","","",""
"","response","","html-keyboard-response","245","269760","0.0-1.0-329.0-0.0","0","0","22559","","360","","","68","36","","","1","36","training","adjacent","FG","6","7","L.jpg","M.jpg","0","1","0","",""
"","feedback","","html-keyboard-response","246","270762","0.0-1.0-330.0-0.0","0","0","22559","","null","","","null","36","","","","","","","","","","","","","","","",""
"","time_out","","html-keyboard-response","247","272764","0.0-1.0-332.0-0.0","0","0","22559","","null","","","null","36","","","","","","","","","","","","","","","",""
"","ITI","","html-keyboard-response","248","273765","0.0-1.0-333.0","0","0","22559","","null","","","null","36","","","","","","","","","","","","","","","NaN",""
"","S1","","html-keyboard-response","249","274017","0.0-1.0-335.0","0","0","22559","","null","","","null","37","","","","","","","","","","","","","","","",""
"","ISI","","html-keyboard-response","250","275020","0.0-1.0-336.0","0","0","22559","","null","","","null","37","NaN","","","","","","","","","","","","","","",""
"","S2","","html-keyboard-response","251","275272","0.0-1.0-337.0","0","0","22559","","null","","","null","37","","NaN","","","","","","","","","","","","","",""
"","response","","html-keyboard-response","252","275768","0.0-1.0-338.0-0.0","0","0","22559","","495","","","68","37","","","1","37","training","adjacent","GF","7","6","M.jpg","L.jpg","0","0","1","",""
"","feedback","","html-keyboard-response","253","276769","0.0-1.0-339.0-0.0","0","0","22559","","null","","","null","37","","","","","","","","","","","","","","","",""
"","ITI","","html-keyboard-response","254","277771","0.0-1.0-342.0","0","0","22559","","null","","","null","37","","","","","","","","","","","","","","","NaN",""
"","S1","","html-keyboard-response","255","278023","0.0-1.0-344.0","0","0","22559","","null","","","null","38","","","","","","","","","","","","","","","",""
"","ISI","","html-keyboard-response","256","279025","0.0-1.0-345.0","0","0","22559","","null","","","null","38","NaN","","","","","","","","","","","","","","",""
"","S2","","html-keyboard-response","257","279277","0.0-1.0-346.0","0","0","22559","","null","","","null","38","","NaN","","","","","","","","","","","","","",""
"","response","","html-keyboard-response","258","279592","0.0-1.0-347.0-0.0","0","0","22559","","314","","","75","38","","","1","38","training","adjacent","FG","6","7","L.jpg","M.jpg","1","1","1","",""
"","feedback","","html-keyboard-response","259","280594","0.0-1.0-348.0-0.0","0","0","22559","","null","","","null","38","","","","","","","","","","","","","","","",""
"","ITI","","html-keyboard-response","260","281595","0.0-1.0-351.0","0","0","22559","","null","","","null","38","","","","","","","","","","","","","","","NaN",""
"","S1","","html-keyboard-response","261","281848","0.0-1.0-353.0","0","0","22559","","null","","","null","39","","","","","","","","","","","","","","","",""
"","ISI","","html-keyboard-response","262","282849","0.0-1.0-354.0","0","0","22559","","null","","","null","39","NaN","","","","","","","","","","","","","","",""
"","S2","","html-keyboard-response","263","283101","0.0-1.0-355.0","0","0","22559","","null","","","null","39","","NaN","","","","","","","","","","","","","",""
"","response","","html-keyboard-response","264","283520","0.0-1.0-356.0-0.0","0","0","22559","","418","","","68","39","","","1","39","training","adjacent","GF","7","6","M.jpg","L.jpg","0","0","1","",""
"","feedback","","html-keyboard-response","265","284521","0.0-1.0-357.0-0.0","0","0","22559","","null","","","null","39","","","","","","","","","","","","","","","",""
"","ITI","","html-keyboard-response","266","285524","0.0-1.0-360.0","0","0","22559","","null","","","null","39","","","","","","","","","","","","","","","NaN",""
"","S1","","html-keyboard-response","267","285776","0.0-1.0-362.0","0","0","22559","","null","","","null","40","","","","","","","","","","","","","","","",""
"","ISI","","html-keyboard-response","268","286777","0.0-1.0-363.0","0","0","22559","","null","","","null","40","NaN","","","","","","","","","","","","","","",""
"","S2","","html-keyboard-response","269","287029","0.0-1.0-364.0","0","0","22559","","null","","","null","40","","NaN","","","","","","","","","","","","","",""
"","response","","html-keyboard-response","270","287248","0.0-1.0-365.0-0.0","0","0","22559","","218","","","75","40","","","1","40","training","adjacent","DC","4","3","N.jpg","R.jpg","1","0","0","",""
"","feedback","","html-keyboard-response","271","288249","0.0-1.0-366.0-0.0","0","0","22559","","null","","","null","40","","","","","","","","","","","","","","","",""
"","time_out","","html-keyboard-response","272","290251","0.0-1.0-368.0-0.0","0","0","22559","","null","","","null","40","","","","","","","","","","","","","","","",""
"","ITI","","html-keyboard-response","273","291254","0.0-1.0-369.0","0","0","22559","","null","","","null","40","","","","","","","","","","","","","","","NaN",""
"","S1","","html-keyboard-response","274","291518","0.0-1.0-371.0","0","0","22559","","null","","","null","41","","","","","","","","","","","","","","","",""
"","ISI","","html-keyboard-response","275","292520","0.0-1.0-372.0","0","0","22559","","null","","","null","41","NaN","","","","","","","","","","","","","","",""
"","S2","","html-keyboard-response","276","292772","0.0-1.0-373.0","0","0","22559","","null","","","null","41","","NaN","","","","","","","","","","","","","",""
"","response","","html-keyboard-response","277","293120","0.0-1.0-374.0-0.0","0","0","22559","","347","","","75","41","","","1","41","training","adjacent","BC","2","3","O.jpg","R.jpg","1","1","1","",""
"","feedback","","html-keyboard-response","278","294122","0.0-1.0-375.0-0.0","0","0","22559","","null","","","null","41","","","","","","","","","","","","","","","",""
"","ITI","","html-keyboard-response","279","295124","0.0-1.0-378.0","0","0","22559","","null","","","null","41","","","","","","","","","","","","","","","NaN",""
"","S1","","html-keyboard-response","280","295377","0.0-1.0-380.0","0","0","22559","","null","","","null","42","","","","","","","","","","","","","","","",""
"","ISI","","html-keyboard-response","281","296378","0.0-1.0-381.0","0","0","22559","","null","","","null","42","NaN","","","","","","","","","","","","","","",""
"","S2","","html-keyboard-response","282","296630","0.0-1.0-382.0","0","0","22559","","null","","","null","42","","NaN","","","","","","","","","","","","","",""
"","response","","html-keyboard-response","283","297136","0.0-1.0-383.0-0.0","0","0","22559","","505","","","68","42","","","1","42","training","adjacent","ED","5","4","Q.jpg","N.jpg","0","0","1","",""
"","feedback","","html-keyboard-response","284","298137","0.0-1.0-384.0-0.0","0","0","22559","","null","","","null","42","","","","","","","","","","","","","","","",""
"","ITI","","html-keyboard-response","285","299139","0.0-1.0-387.0","0","0","22559","","null","","","null","42","","","","","","","","","","","","","","","NaN",""
"","S1","","html-keyboard-response","286","299391","0.0-1.0-389.0","0","0","22559","","null","","","null","43","","","","","","","","","","","","","","","",""
"","ISI","","html-keyboard-response","287","300393","0.0-1.0-390.0","0","0","22559","","null","","","null","43","NaN","","","","","","","","","","","","","","",""
"","S2","","html-keyboard-response","288","300645","0.0-1.0-391.0","0","0","22559","","null","","","null","43","","NaN","","","","","","","","","","","","","",""
"","response","","html-keyboard-response","289","301192","0.0-1.0-392.0-0.0","0","0","22559","","546","","","68","43","","","1","43","training","adjacent","FE","6","5","L.jpg","Q.jpg","0","0","1","",""
"","feedback","","html-keyboard-response","290","302193","0.0-1.0-393.0-0.0","0","0","22559","","null","","","null","43","","","","","","","","","","","","","","","",""
"","ITI","","html-keyboard-response","291","303196","0.0-1.0-396.0","0","0","22559","","null","","","null","43","","","","","","","","","","","","","","","NaN",""
"","S1","","html-keyboard-response","292","303448","0.0-1.0-398.0","0","0","22559","","null","","","null","44","","","","","","","","","","","","","","","",""
"","ISI","","html-keyboard-response","293","304449","0.0-1.0-399.0","0","0","22559","","null","","","null","44","NaN","","","","","","","","","","","","","","",""
"","S2","","html-keyboard-response","294","304701","0.0-1.0-400.0","0","0","22559","","null","","","null","44","","NaN","","","","","","","","","","","","","",""
"","response","","html-keyboard-response","295","305272","0.0-1.0-401.0-0.0","0","0","22559","","570","","","68","44","","","1","44","training","adjacent","AB","1","2","P.jpg","O.jpg","0","1","0","",""
"","feedback","","html-keyboard-response","296","306274","0.0-1.0-402.0-0.0","0","0","22559","","null","","","null","44","","","","","","","","","","","","","","","",""
"","time_out","","html-keyboard-response","297","308276","0.0-1.0-404.0-0.0","0","0","22559","","null","","","null","44","","","","","","","","","","","","","","","",""
"","ITI","","html-keyboard-response","298","309278","0.0-1.0-405.0","0","0","22559","","null","","","null","44","","","","","","","","","","","","","","","NaN",""
"","S1","","html-keyboard-response","299","309531","0.0-1.0-407.0","0","0","22559","","null","","","null","45","","","","","","","","","","","","","","","",""
"","ISI","","html-keyboard-response","300","310533","0.0-1.0-408.0","0","0","22559","","null","","","null","45","NaN","","","","","","","","","","","","","","",""
"","S2","","html-keyboard-response","301","310786","0.0-1.0-409.0","0","0","22559","","null","","","null","45","","NaN","","","","","","","","","","","","","",""
"","response","","html-keyboard-response","302","311247","0.0-1.0-410.0-0.0","0","0","22559","","461","","","75","45","","","1","45","training","adjacent","EF","5","6","Q.jpg","L.jpg","1","1","1","",""
"","feedback","","html-keyboard-response","303","312251","0.0-1.0-411.0-0.0","0","0","22559","","null","","","null","45","","","","","","","","","","","","","","","",""
"","ITI","","html-keyboard-response","304","313253","0.0-1.0-414.0","0","0","22559","","null","","","null","45","","","","","","","","","","","","","","","NaN",""
"","S1","","html-keyboard-response","305","313505","0.0-1.0-416.0","0","0","22559","","null","","","null","46","","","","","","","","","","","","","","","",""
"","ISI","","html-keyboard-response","306","314507","0.0-1.0-417.0","0","0","22559","","null","","","null","46","NaN","","","","","","","","","","","","","","",""
"","S2","","html-keyboard-response","307","314758","0.0-1.0-418.0","0","0","22559","","null","","","null","46","","NaN","","","","","","","","","","","","","",""
"","response","","html-keyboard-response","308","315256","0.0-1.0-419.0-0.0","0","0","22559","","496","","","68","46","","","1","46","training","adjacent","ED","5","4","Q.jpg","N.jpg","0","0","1","",""
"","feedback","","html-keyboard-response","309","316258","0.0-1.0-420.0-0.0","0","0","22559","","null","","","null","46","","","","","","","","","","","","","","","",""
"","ITI","","html-keyboard-response","310","317261","0.0-1.0-423.0","0","0","22559","","null","","","null","46","","","","","","","","","","","","","","","NaN",""
"","S1","","html-keyboard-response","311","317513","0.0-1.0-425.0","0","0","22559","","null","","","null","47","","","","","","","","","","","","","","","",""
"","ISI","","html-keyboard-response","312","318518","0.0-1.0-426.0","0","0","22559","","null","","","null","47","NaN","","","","","","","","","","","","","","",""
"","S2","","html-keyboard-response","313","318770","0.0-1.0-427.0","0","0","22559","","null","","","null","47","","NaN","","","","","","","","","","","","","",""
"","response","","html-keyboard-response","314","319256","0.0-1.0-428.0-0.0","0","0","22559","","485","","","75","47","","","1","47","training","adjacent","EF","5","6","Q.jpg","L.jpg","1","1","1","",""
"","feedback","","html-keyboard-response","315","320257","0.0-1.0-429.0-0.0","0","0","22559","","null","","","null","47","","","","","","","","","","","","","","","",""
"","ITI","","html-keyboard-response","316","321260","0.0-1.0-432.0","0","0","22559","","null","","","null","47","","","","","","","","","","","","","","","NaN",""
"","block_over","","html-keyboard-response","317","328207","0.0-1.0-433.0-0.0","0","0","22559","","6947","","","32","47","","","","","","","","","","","","","","","",""
"","S1","","html-keyboard-response","318","328460","0.0-1.0-434.0","0","0","22559","","null","","","null","48","","","","","","","","","","","","","","","",""
"","ISI","","html-keyboard-response","319","329462","0.0-1.0-435.0","0","0","22559","","null","","","null","48","NaN","","","","","","","","","","","","","","",""
"","S2","","html-keyboard-response","320","329714","0.0-1.0-436.0","0","0","22559","","null","","","null","48","","NaN","","","","","","","","","","","","","",""
"","response","","html-keyboard-response","321","331466","0.0-1.0-437.0-0.0","0","0","22559","","null","","","null","48","","","2","48","training","adjacent","AB","1","2","P.jpg","O.jpg","NaN","1","0","",""
"","too_slow_prompt","","html-keyboard-response","322","332468","0.0-1.0-439.0-0.0","1","0","22559","","null","","","null","","","","","","","","","","","","","","","","",""
"","time_out","","html-keyboard-response","323","334469","0.0-1.0-440.0-0.0","0","0","22559","","null","","","null","48","","","","","","","","","","","","","","","",""
"","ITI","","html-keyboard-response","324","335472","0.0-1.0-441.0","0","0","22559","","null","","","null","48","","","","","","","","","","","","","","","NaN",""
"","S1","","html-keyboard-response","325","335724","0.0-1.0-443.0","0","0","22559","","null","","","null","49","","","","","","","","","","","","","","","",""
"","ISI","","html-keyboard-response","326","336725","0.0-1.0-444.0","0","0","22559","","546","","","75","49","k","","","","","","","","","","","","","","",""
"","S2","","html-keyboard-response","327","336977","0.0-1.0-445.0","0","0","22559","","null","","","null","49","","NaN","","","","","","","","","","","","","",""
"","response","","html-keyboard-response","328","337656","0.0-1.0-446.0-0.0","0","0","22559","","677","","","68","49","","","2","49","training","adjacent","AB","1","2","P.jpg","O.jpg","0","1","0","",""
"","feedback","","html-keyboard-response","329","338657","0.0-1.0-447.0-0.0","0","0","22559","","null","","","null","49","","","","","","","","","","","","","","","",""
"","time_out","","html-keyboard-response","330","340659","0.0-1.0-449.0-0.0","0","0","22559","","null","","","null","49","","","","","","","","","","","","","","","",""
"","ITI","","html-keyboard-response","331","341662","0.0-1.0-450.0","0","0","22559","","null","","","null","49","","","","","","","","","","","","","","","NaN",""
"","S1","","html-keyboard-response","332","341913","0.0-1.0-452.0","0","0","22559","","null","","","null","50","","","","","","","","","","","","","","","",""
"","ISI","","html-keyboard-response","333","342916","0.0-1.0-453.0","0","0","22559","","null","","","null","50","NaN","","","","","","","","","","","","","","",""
"","S2","","html-keyboard-response","334","343176","0.0-1.0-454.0","0","0","22559","","null","","","null","50","","NaN","","","","","","","","","","","","","",""
"","response","","html-keyboard-response","335","343663","0.0-1.0-455.0-0.0","0","0","22559","","486","","","68","50","","","2","50","training","adjacent","FE","6","5","L.jpg","Q.jpg","0","0","1","",""
"","feedback","","html-keyboard-response","336","344665","0.0-1.0-456.0-0.0","0","0","22559","","null","","","null","50","","","","","","","","","","","","","","","",""
"","ITI","","html-keyboard-response","337","345666","0.0-1.0-459.0","0","0","22559","","null","","","null","50","","","","","","","","","","","","","","","NaN",""
"","S1","","html-keyboard-response","338","345919","0.0-1.0-461.0","0","0","22559","","null","","","null","51","","","","","","","","","","","","","","","",""
"","ISI","","html-keyboard-response","339","346922","0.0-1.0-462.0","0","0","22559","","null","","","null","51","NaN","","","","","","","","","","","","","","",""
"","S2","","html-keyboard-response","340","347174","0.0-1.0-463.0","0","0","22559","","null","","","null","51","","NaN","","","","","","","","","","","","","",""
"","response","","html-keyboard-response","341","347584","0.0-1.0-464.0-0.0","0","0","22559","","409","","","68","51","","","2","51","training","adjacent","GF","7","6","M.jpg","L.jpg","0","0","1","",""
"","feedback","","html-keyboard-response","342","348587","0.0-1.0-465.0-0.0","0","0","22559","","null","","","null","51","","","","","","","","","","","","","","","",""
"","ITI","","html-keyboard-response","343","349589","0.0-1.0-468.0","0","0","22559","","null","","","null","51","","","","","","","","","","","","","","","NaN",""
"","S1","","html-keyboard-response","344","349841","0.0-1.0-470.0","0","0","22559","","null","","","null","52","","","","","","","","","","","","","","","",""
"","ISI","","html-keyboard-response","345","350843","0.0-1.0-471.0","0","0","22559","","null","","","null","52","NaN","","","","","","","","","","","","","","",""
"","S2","","html-keyboard-response","346","351094","0.0-1.0-472.0","0","0","22559","","null","","","null","52","","NaN","","","","","","","","","","","","","",""
"","response","","html-keyboard-response","347","351359","0.0-1.0-473.0-0.0","0","0","22559","","264","","","75","52","","","2","52","training","adjacent","DC","4","3","N.jpg","R.jpg","1","0","0","",""
"","feedback","","html-keyboard-response","348","352361","0.0-1.0-474.0-0.0","0","0","22559","","null","","","null","52","","","","","","","","","","","","","","","",""
"","time_out","","html-keyboard-response","349","354362","0.0-1.0-476.0-0.0","0","0","22559","","null","","","null","52","","","","","","","","","","","","","","","",""
"","ITI","","html-keyboard-response","350","355367","0.0-1.0-477.0","0","0","22559","","null","","","null","52","","","","","","","","","","","","","","","NaN",""
"","S1","","html-keyboard-response","351","355619","0.0-1.0-479.0","0","0","22559","","null","","","null","53","","","","","","","","","","","","","","","",""
"","ISI","","html-keyboard-response","352","356622","0.0-1.0-480.0","0","0","22559","","null","","","null","53","NaN","","","","","","","","","","","","","","",""
"","S2","","html-keyboard-response","353","356874","0.0-1.0-481.0","0","0","22559","","null","","","null","53","","NaN","","","","","","","","","","","","","",""
"","response","","html-keyboard-response","354","357727","0.0-1.0-482.0-0.0","0","0","22559","","853","","","75","53","","","2","53","training","adjacent","BA","2","1","O.jpg","P.jpg","1","0","0","",""
"","feedback","","html-keyboard-response","355","358730","0.0-1.0-483.0-0.0","0","0","22559","","null","","","null","53","","","","","","","","","","","","","","","",""
"","time_out","","html-keyboard-response","356","360732","0.0-1.0-485.0-0.0","0","0","22559","","null","","","null","53","","","","","","","","","","","","","","","",""
"","ITI","","html-keyboard-response","357","361734","0.0-1.0-486.0","0","0","22559","","null","","","null","53","","","","","","","","","","","","","","","NaN",""
"","S1","","html-keyboard-response","358","361986","0.0-1.0-488.0","0","0","22559","","null","","","null","54","","","","","","","","","","","","","","","",""
"","ISI","","html-keyboard-response","359","362989","0.0-1.0-489.0","0","0","22559","","null","","","null","54","NaN","","","","","","","","","","","","","","",""
"","S2","","html-keyboard-response","360","363241","0.0-1.0-490.0","0","0","22559","","null","","","null","54","","NaN","","","","","","","","","","","","","",""
"","response","","html-keyboard-response","361","363711","0.0-1.0-491.0-0.0","0","0","22559","","468","","","75","54","","","2","54","training","adjacent","DE","4","5","N.jpg","Q.jpg","1","1","1","",""
"","feedback","","html-keyboard-response","362","364714","0.0-1.0-492.0-0.0","0","0","22559","","null","","","null","54","","","","","","","","","","","","","","","",""
"","ITI","","html-keyboard-response","363","365716","0.0-1.0-495.0","0","0","22559","","null","","","null","54","","","","","","","","","","","","","","","NaN",""
"","S1","","html-keyboard-response","364","365968","0.0-1.0-497.0","0","0","22559","","null","","","null","55","","","","","","","","","","","","","","","",""
"","ISI","","html-keyboard-response","365","366970","0.0-1.0-498.0","0","0","22559","","null","","","null","55","NaN","","","","","","","","","","","","","","",""
"","S2","","html-keyboard-response","366","367222","0.0-1.0-499.0","0","0","22559","","null","","","null","55","","NaN","","","","","","","","","","","","","",""
"","response","","html-keyboard-response","367","367759","0.0-1.0-500.0-0.0","0","0","22559","","536","","","75","55","","","2","55","training","adjacent","BC","2","3","O.jpg","R.jpg","1","1","1","",""
"","feedback","","html-keyboard-response","368","368761","0.0-1.0-501.0-0.0","0","0","22559","","null","","","null","55","","","","","","","","","","","","","","","",""
"","ITI","","html-keyboard-response","369","369763","0.0-1.0-504.0","0","0","22559","","null","","","null","55","","","","","","","","","","","","","","","NaN",""
"","S1","","html-keyboard-response","370","370014","0.0-1.0-506.0","0","0","22559","","null","","","null","56","","","","","","","","","","","","","","","",""
"","ISI","","html-keyboard-response","371","371016","0.0-1.0-507.0","0","0","22559","","null","","","null","56","NaN","","","","","","","","","","","","","","",""
"","S2","","html-keyboard-response","372","371268","0.0-1.0-508.0","0","0","22559","","null","","","null","56","","NaN","","","","","","","","","","","","","",""
"","response","","html-keyboard-response","373","371807","0.0-1.0-509.0-0.0","0","0","22559","","537","","","75","56","","","2","56","training","adjacent","EF","5","6","Q.jpg","L.jpg","1","1","1","",""
"","feedback","","html-keyboard-response","374","372810","0.0-1.0-510.0-0.0","0","0","22559","","null","","","null","56","","","","","","","","","","","","","","","",""
"","ITI","","html-keyboard-response","375","373812","0.0-1.0-513.0","0","0","22559","","null","","","null","56","","","","","","","","","","","","","","","NaN",""
"","S1","","html-keyboard-response","376","374064","0.0-1.0-515.0","0","0","22559","","null","","","null","57","","","","","","","","","","","","","","","",""
"","ISI","","html-keyboard-response","377","375066","0.0-1.0-516.0","0","0","22559","","null","","","null","57","NaN","","","","","","","","","","","","","","",""
"","S2","","html-keyboard-response","378","375318","0.0-1.0-517.0","0","0","22559","","null","","","null","57","","NaN","","","","","","","","","","","","","",""
"","response","","html-keyboard-response","379","376015","0.0-1.0-518.0-0.0","0","0","22559","","697","","","75","57","","","2","57","training","adjacent","EF","5","6","Q.jpg","L.jpg","1","1","1","",""
"","feedback","","html-keyboard-response","380","377018","0.0-1.0-519.0-0.0","0","0","22559","","null","","","null","57","","","","","","","","","","","","","","","",""
"","ITI","","html-keyboard-response","381","378029","0.0-1.0-522.0","0","0","22559","","null","","","null","57","","","","","","","","","","","","","","","NaN",""
"","S1","","html-keyboard-response","382","378281","0.0-1.0-524.0","0","0","22559","","null","","","null","58","","","","","","","","","","","","","","","",""
"","ISI","","html-keyboard-response","383","379283","0.0-1.0-525.0","0","0","22559","","null","","","null","58","NaN","","","","","","","","","","","","","","",""
"","S2","","html-keyboard-response","384","379535","0.0-1.0-526.0","0","0","22559","","null","","","null","58","","NaN","","","","","","","","","","","","","",""
"","response","","html-keyboard-response","385","379960","0.0-1.0-527.0-0.0","0","0","22559","","424","","","68","58","","","2","58","training","adjacent","GF","7","6","M.jpg","L.jpg","0","0","1","",""
"","feedback","","html-keyboard-response","386","380961","0.0-1.0-528.0-0.0","0","0","22559","","null","","","null","58","","","","","","","","","","","","","","","",""
"","ITI","","html-keyboard-response","387","381963","0.0-1.0-531.0","0","0","22559","","null","","","null","58","","","","","","","","","","","","","","","NaN",""
"","S1","","html-keyboard-response","388","382216","0.0-1.0-533.0","0","0","22559","","null","","","null","59","","","","","","","","","","","","","","","",""
"","ISI","","html-keyboard-response","389","383218","0.0-1.0-534.0","0","0","22559","","null","","","null","59","NaN","","","","","","","","","","","","","","",""
"","S2","","html-keyboard-response","390","383469","0.0-1.0-535.0","0","0","22559","","null","","","null","59","","NaN","","","","","","","","","","","","","",""
"","response","","html-keyboard-response","391","384640","0.0-1.0-536.0-0.0","0","0","22559","","1169","","","75","59","","","2","59","training","adjacent","FE","6","5","L.jpg","Q.jpg","1","0","0","",""
"","feedback","","html-keyboard-response","392","385642","0.0-1.0-537.0-0.0","0","0","22559","","null","","","null","59","","","","","","","","","","","","","","","",""
"","time_out","","html-keyboard-response","393","387645","0.0-1.0-539.0-0.0","0","0","22559","","null","","","null","59","","","","","","","","","","","","","","","",""
"","ITI","","html-keyboard-response","394","388647","0.0-1.0-540.0","0","0","22559","","null","","","null","59","","","","","","","","","","","","","","","NaN",""
"","S1","","html-keyboard-response","395","388899","0.0-1.0-542.0","0","0","22559","","null","","","null","60","","","","","","","","","","","","","","","",""
"","ISI","","html-keyboard-response","396","389901","0.0-1.0-543.0","0","0","22559","","null","","","null","60","NaN","","","","","","","","","","","","","","",""
"","S2","","html-keyboard-response","397","390154","0.0-1.0-544.0","0","0","22559","","null","","","null","60","","NaN","","","","","","","","","","","","","",""
"","response","","html-keyboard-response","398","390576","0.0-1.0-545.0-0.0","0","0","22559","","421","","","68","60","","","2","60","training","adjacent","CD","3","4","R.jpg","N.jpg","0","1","0","",""
"","feedback","","html-keyboard-response","399","391578","0.0-1.0-546.0-0.0","0","0","22559","","null","","","null","60","","","","","","","","","","","","","","","",""
"","time_out","","html-keyboard-response","400","393579","0.0-1.0-548.0-0.0","0","0","22559","","null","","","null","60","","","","","","","","","","","","","","","",""
"","ITI","","html-keyboard-response","401","394580","0.0-1.0-549.0","0","0","22559","","null","","","null","60","","","","","","","","","","","","","","","NaN",""
"","S1","","html-keyboard-response","402","394832","0.0-1.0-551.0","0","0","22559","","null","","","null","61","","","","","","","","","","","","","","","",""
"","ISI","","html-keyboard-response","403","395834","0.0-1.0-552.0","0","0","22559","","null","","","null","61","NaN","","","","","","","","","","","","","","",""
"","S2","","html-keyboard-response","404","396101","0.0-1.0-553.0","0","0","22559","","null","","","null","61","","NaN","","","","","","","","","","","","","",""
"","response","","html-keyboard-response","405","396679","0.0-1.0-554.0-0.0","0","0","22559","","578","","","68","61","","","2","61","training","adjacent","DE","4","5","N.jpg","Q.jpg","0","1","0","",""
"","feedback","","html-keyboard-response","406","397682","0.0-1.0-555.0-0.0","0","0","22559","","null","","","null","61","","","","","","","","","","","","","","","",""
"","time_out","","html-keyboard-response","407","399685","0.0-1.0-557.0-0.0","0","0","22559","","null","","","null","61","","","","","","","","","","","","","","","",""
"","ITI","","html-keyboard-response","408","400688","0.0-1.0-558.0","0","0","22559","","null","","","null","61","","","","","","","","","","","","","","","NaN",""
"","S1","","html-keyboard-response","409","400941","0.0-1.0-560.0","0","0","22559","","null","","","null","62","","","","","","","","","","","","","","","",""
"","ISI","","html-keyboard-response","410","401943","0.0-1.0-561.0","0","0","22559","","null","","","null","62","NaN","","","","","","","","","","","","","","",""
"","S2","","html-keyboard-response","411","402195","0.0-1.0-562.0","0","0","22559","","null","","","null","62","","NaN","","","","","","","","","","","","","",""
"","response","","html-keyboard-response","412","402824","0.0-1.0-563.0-0.0","0","0","22559","","627","","","68","62","","","2","62","training","adjacent","CB","3","2","R.jpg","O.jpg","0","0","1","",""
"","feedback","","html-keyboard-response","413","403826","0.0-1.0-564.0-0.0","0","0","22559","","null","","","null","62","","","","","","","","","","","","","","","",""
"","ITI","","html-keyboard-response","414","404828","0.0-1.0-567.0","0","0","22559","","null","","","null","62","","","","","","","","","","","","","","","NaN",""
"","S1","","html-keyboard-response","415","405080","0.0-1.0-569.0","0","0","22559","","null","","","null","63","","","","","","","","","","","","","","","",""
"","ISI","","html-keyboard-response","416","406082","0.0-1.0-570.0","0","0","22559","","null","","","null","63","NaN","","","","","","","","","","","","","","",""
"","S2","","html-keyboard-response","417","406334","0.0-1.0-571.0","0","0","22559","","null","","","null","63","","NaN","","","","","","","","","","","","","",""
"","response","","html-keyboard-response","418","406807","0.0-1.0-572.0-0.0","0","0","22559","","472","","","68","63","","","2","63","training","adjacent","CB","3","2","R.jpg","O.jpg","0","0","1","",""
"","feedback","","html-keyboard-response","419","407809","0.0-1.0-573.0-0.0","0","0","22559","","null","","","null","63","","","","","","","","","","","","","","","",""
"","ITI","","html-keyboard-response","420","408811","0.0-1.0-576.0","0","0","22559","","null","","","null","63","","","","","","","","","","","","","","","NaN",""
"","S1","","html-keyboard-response","421","409063","0.0-1.0-578.0","0","0","22559","","null","","","null","64","","","","","","","","","","","","","","","",""
"","ISI","","html-keyboard-response","422","410065","0.0-1.0-579.0","0","0","22559","","null","","","null","64","NaN","","","","","","","","","","","","","","",""
"","S2","","html-keyboard-response","423","410318","0.0-1.0-580.0","0","0","22559","","null","","","null","64","","NaN","","","","","","","","","","","","","",""
"","response","","html-keyboard-response","424","410688","0.0-1.0-581.0-0.0","0","0","22559","","368","","","75","64","","","2","64","training","adjacent","FG","6","7","L.jpg","M.jpg","1","1","1","",""
"","feedback","","html-keyboard-response","425","411690","0.0-1.0-582.0-0.0","0","0","22559","","null","","","null","64","","","","","","","","","","","","","","","",""
"","ITI","","html-keyboard-response","426","412693","0.0-1.0-585.0","0","0","22559","","null","","","null","64","","","","","","","","","","","","","","","NaN",""
"","S1","","html-keyboard-response","427","412945","0.0-1.0-587.0","0","0","22559","","null","","","null","65","","","","","","","","","","","","","","","",""
"","ISI","","html-keyboard-response","428","413947","0.0-1.0-588.0","0","0","22559","","null","","","null","65","NaN","","","","","","","","","","","","","","",""
"","S2","","html-keyboard-response","429","414198","0.0-1.0-589.0","0","0","22559","","null","","","null","65","","NaN","","","","","","","","","","","","","",""
"","response","","html-keyboard-response","430","414488","0.0-1.0-590.0-0.0","0","0","22559","","289","","","68","65","","","2","65","training","adjacent","BA","2","1","O.jpg","P.jpg","0","0","1","",""
"","feedback","","html-keyboard-response","431","415490","0.0-1.0-591.0-0.0","0","0","22559","","null","","","null","65","","","","","","","","","","","","","","","",""
"","ITI","","html-keyboard-response","432","416493","0.0-1.0-594.0","0","0","22559","","null","","","null","65","","","","","","","","","","","","","","","NaN",""
"","S1","","html-keyboard-response","433","416744","0.0-1.0-596.0","0","0","22559","","null","","","null","66","","","","","","","","","","","","","","","",""
"","ISI","","html-keyboard-response","434","417746","0.0-1.0-597.0","0","0","22559","","null","","","null","66","NaN","","","","","","","","","","","","","","",""
"","S2","","html-keyboard-response","435","417998","0.0-1.0-598.0","0","0","22559","","null","","","null","66","","NaN","","","","","","","","","","","","","",""
"","response","","html-keyboard-response","436","418295","0.0-1.0-599.0-0.0","0","0","22559","","296","","","75","66","","","2","66","training","adjacent","BA","2","1","O.jpg","P.jpg","1","0","0","",""
"","feedback","","html-keyboard-response","437","419297","0.0-1.0-600.0-0.0","0","0","22559","","null","","","null","66","","","","","","","","","","","","","","","",""
"","time_out","","html-keyboard-response","438","421299","0.0-1.0-602.0-0.0","0","0","22559","","null","","","null","66","","","","","","","","","","","","","","","",""
"","ITI","","html-keyboard-response","439","422300","0.0-1.0-603.0","0","0","22559","","null","","","null","66","","","","","","","","","","","","","","","NaN",""
"","S1","","html-keyboard-response","440","422552","0.0-1.0-605.0","0","0","22559","","null","","","null","67","","","","","","","","","","","","","","","",""
"","ISI","","html-keyboard-response","441","423555","0.0-1.0-606.0","0","0","22559","","null","","","null","67","NaN","","","","","","","","","","","","","","",""
"","S2","","html-keyboard-response","442","423806","0.0-1.0-607.0","0","0","22559","","null","","","null","67","","NaN","","","","","","","","","","","","","",""
"","response","","html-keyboard-response","443","424143","0.0-1.0-608.0-0.0","0","0","22559","","335","","","75","67","","","2","67","training","adjacent","ED","5","4","Q.jpg","N.jpg","1","0","0","",""
"","feedback","","html-keyboard-response","444","425144","0.0-1.0-609.0-0.0","0","0","22559","","null","","","null","67","","","","","","","","","","","","","","","",""
"","time_out","","html-keyboard-response","445","427146","0.0-1.0-611.0-0.0","0","0","22559","","null","","","null","67","","","","","","","","","","","","","","","",""
"","ITI","","html-keyboard-response","446","428148","0.0-1.0-612.0","0","0","22559","","null","","","null","67","","","","","","","","","","","","","","","NaN",""
"","S1","","html-keyboard-response","447","428400","0.0-1.0-614.0","0","0","22559","","null","","","null","68","","","","","","","","","","","","","","","",""
"","ISI","","html-keyboard-response","448","429402","0.0-1.0-615.0","0","0","22559","","null","","","null","68","NaN","","","","","","","","","","","","","","",""
"","S2","","html-keyboard-response","449","429654","0.0-1.0-616.0","0","0","22559","","null","","","null","68","","NaN","","","","","","","","","","","","","",""
"","response","","html-keyboard-response","450","430039","0.0-1.0-617.0-0.0","0","0","22559","","384","","","68","68","","","2","68","training","adjacent","ED","5","4","Q.jpg","N.jpg","0","0","1","",""
"","feedback","","html-keyboard-response","451","431041","0.0-1.0-618.0-0.0","0","0","22559","","null","","","null","68","","","","","","","","","","","","","","","",""
"","ITI","","html-keyboard-response","452","432042","0.0-1.0-621.0","0","0","22559","","null","","","null","68","","","","","","","","","","","","","","","NaN",""
"","S1","","html-keyboard-response","453","432294","0.0-1.0-623.0","0","0","22559","","null","","","null","69","","","","","","","","","","","","","","","",""
"","ISI","","html-keyboard-response","454","433296","0.0-1.0-624.0","0","0","22559","","null","","","null","69","NaN","","","","","","","","","","","","","","",""
"","S2","","html-keyboard-response","455","433548","0.0-1.0-625.0","0","0","22559","","null","","","null","69","","NaN","","","","","","","","","","","","","",""
"","response","","html-keyboard-response","456","434183","0.0-1.0-626.0-0.0","0","0","22559","","633","","","68","69","","","2","69","training","adjacent","GF","7","6","M.jpg","L.jpg","0","0","1","",""
"","feedback","","html-keyboard-response","457","435187","0.0-1.0-627.0-0.0","0","0","22559","","null","","","null","69","","","","","","","","","","","","","","","",""
"","ITI","","html-keyboard-response","458","436189","0.0-1.0-630.0","0","0","22559","","null","","","null","69","","","","","","","","","","","","","","","NaN",""
"","S1","","html-keyboard-response","459","436440","0.0-1.0-632.0","0","0","22559","","null","","","null","70","","","","","","","","","","","","","","","",""
"","ISI","","html-keyboard-response","460","437442","0.0-1.0-633.0","0","0","22559","","null","","","null","70","NaN","","","","","","","","","","","","","","",""
"","S2","","html-keyboard-response","461","437693","0.0-1.0-634.0","0","0","22559","","null","","","null","70","","NaN","","","","","","","","","","","","","",""
"","response","","html-keyboard-response","462","438079","0.0-1.0-635.0-0.0","0","0","22559","","385","","","75","70","","","2","70","training","adjacent","FG","6","7","L.jpg","M.jpg","1","1","1","",""
"","feedback","","html-keyboard-response","463","439082","0.0-1.0-636.0-0.0","0","0","22559","","null","","","null","70","","","","","","","","","","","","","","","",""
"","ITI","","html-keyboard-response","464","440084","0.0-1.0-639.0","0","0","22559","","null","","","null","70","","","","","","","","","","","","","","","NaN",""
"","S1","","html-keyboard-response","465","440337","0.0-1.0-641.0","0","0","22559","","null","","","null","71","","","","","","","","","","","","","","","",""
"","ISI","","html-keyboard-response","466","441339","0.0-1.0-642.0","0","0","22559","","null","","","null","71","NaN","","","","","","","","","","","","","","",""
"","S2","","html-keyboard-response","467","441592","0.0-1.0-643.0","0","0","22559","","null","","","null","71","","NaN","","","","","","","","","","","","","",""
"","response","","html-keyboard-response","468","442631","0.0-1.0-644.0-0.0","0","0","22559","","1038","","","75","71","","","2","71","training","adjacent","EF","5","6","Q.jpg","L.jpg","1","1","1","",""
"","feedback","","html-keyboard-response","469","443633","0.0-1.0-645.0-0.0","0","0","22559","","null","","","null","71","","","","","","","","","","","","","","","",""
"","ITI","","html-keyboard-response","470","444635","0.0-1.0-648.0","0","0","22559","","null","","","null","71","","","","","","","","","","","","","","","NaN",""
"","S1","","html-keyboard-response","471","444893","0.0-1.0-650.0","0","0","22559","","null","","","null","72","","","","","","","","","","","","","","","",""
"","ISI","","html-keyboard-response","472","445895","0.0-1.0-651.0","0","0","22559","","null","","","null","72","NaN","","","","","","","","","","","","","","",""
"","S2","","html-keyboard-response","473","446147","0.0-1.0-652.0","0","0","22559","","null","","","null","72","","NaN","","","","","","","","","","","","","",""
"","response","","html-keyboard-response","474","446520","0.0-1.0-653.0-0.0","0","0","22559","","371","","","75","72","","","2","72","training","adjacent","BC","2","3","O.jpg","R.jpg","1","1","1","",""
"","feedback","","html-keyboard-response","475","447523","0.0-1.0-654.0-0.0","0","0","22559","","null","","","null","72","","","","","","","","","","","","","","","",""
"","ITI","","html-keyboard-response","476","448525","0.0-1.0-657.0","0","0","22559","","null","","","null","72","","","","","","","","","","","","","","","NaN",""
"","S1","","html-keyboard-response","477","448777","0.0-1.0-659.0","0","0","22559","","null","","","null","73","","","","","","","","","","","","","","","",""
"","ISI","","html-keyboard-response","478","449779","0.0-1.0-660.0","0","0","22559","","null","","","null","73","NaN","","","","","","","","","","","","","","",""
"","S2","","html-keyboard-response","479","450031","0.0-1.0-661.0","0","0","22559","","null","","","null","73","","NaN","","","","","","","","","","","","","",""
"","response","","html-keyboard-response","480","450479","0.0-1.0-662.0-0.0","0","0","22559","","447","","","75","73","","","2","73","training","adjacent","DE","4","5","N.jpg","Q.jpg","1","1","1","",""
"","feedback","","html-keyboard-response","481","451482","0.0-1.0-663.0-0.0","0","0","22559","","null","","","null","73","","","","","","","","","","","","","","","",""
"","ITI","","html-keyboard-response","482","452485","0.0-1.0-666.0","0","0","22559","","null","","","null","73","","","","","","","","","","","","","","","NaN",""
"","S1","","html-keyboard-response","483","452738","0.0-1.0-668.0","0","0","22559","","null","","","null","74","","","","","","","","","","","","","","","",""
"","ISI","","html-keyboard-response","484","453740","0.0-1.0-669.0","0","0","22559","","null","","","null","74","NaN","","","","","","","","","","","","","","",""
"","S2","","html-keyboard-response","485","453993","0.0-1.0-670.0","0","0","22559","","null","","","null","74","","NaN","","","","","","","","","","","","","",""
"","response","","html-keyboard-response","486","454271","0.0-1.0-671.0-0.0","0","0","22559","","277","","","75","74","","","2","74","training","adjacent","BC","2","3","O.jpg","R.jpg","1","1","1","",""
"","feedback","","html-keyboard-response","487","455273","0.0-1.0-672.0-0.0","0","0","22559","","null","","","null","74","","","","","","","","","","","","","","","",""
"","ITI","","html-keyboard-response","488","456283","0.0-1.0-675.0","0","0","22559","","null","","","null","74","","","","","","","","","","","","","","","NaN",""
"","S1","","html-keyboard-response","489","456535","0.0-1.0-677.0","0","0","22559","","null","","","null","75","","","","","","","","","","","","","","","",""
"","ISI","","html-keyboard-response","490","457537","0.0-1.0-678.0","0","0","22559","","null","","","null","75","NaN","","","","","","","","","","","","","","",""
"","S2","","html-keyboard-response","491","457790","0.0-1.0-679.0","0","0","22559","","null","","","null","75","","NaN","","","","","","","","","","","","","",""
"","response","","html-keyboard-response","492","458255","0.0-1.0-680.0-0.0","0","0","22559","","464","","","75","75","","","2","75","training","adjacent","FG","6","7","L.jpg","M.jpg","1","1","1","",""
"","feedback","","html-keyboard-response","493","459257","0.0-1.0-681.0-0.0","0","0","22559","","null","","","null","75","","","","","","","","","","","","","","","",""
"","ITI","","html-keyboard-response","494","460259","0.0-1.0-684.0","0","0","22559","","null","","","null","75","","","","","","","","","","","","","","","NaN",""
"","S1","","html-keyboard-response","495","460512","0.0-1.0-686.0","0","0","22559","","null","","","null","76","","","","","","","","","","","","","","","",""
"","ISI","","html-keyboard-response","496","461513","0.0-1.0-687.0","0","0","22559","","null","","","null","76","NaN","","","","","","","","","","","","","","",""
"","S2","","html-keyboard-response","497","461779","0.0-1.0-688.0","0","0","22559","","null","","","null","76","","NaN","","","","","","","","","","","","","",""
"","response","","html-keyboard-response","498","462231","0.0-1.0-689.0-0.0","0","0","22559","","450","","","68","76","","","2","76","training","adjacent","AB","1","2","P.jpg","O.jpg","0","1","0","",""
"","feedback","","html-keyboard-response","499","463233","0.0-1.0-690.0-0.0","0","0","22559","","null","","","null","76","","","","","","","","","","","","","","","",""
"","time_out","","html-keyboard-response","500","465237","0.0-1.0-692.0-0.0","0","0","22559","","null","","","null","76","","","","","","","","","","","","","","","",""
"","ITI","","html-keyboard-response","501","466239","0.0-1.0-693.0","0","0","22559","","null","","","null","76","","","","","","","","","","","","","","","NaN",""
"","S1","","html-keyboard-response","502","466490","0.0-1.0-695.0","0","0","22559","","null","","","null","77","","","","","","","","","","","","","","","",""
"","ISI","","html-keyboard-response","503","467491","0.0-1.0-696.0","0","0","22559","","null","","","null","77","NaN","","","","","","","","","","","","","","",""
"","S2","","html-keyboard-response","504","467744","0.0-1.0-697.0","0","0","22559","","null","","","null","77","","NaN","","","","","","","","","","","","","",""
"","response","","html-keyboard-response","505","468255","0.0-1.0-698.0-0.0","0","0","22559","","510","","","68","77","","","2","77","training","adjacent","CD","3","4","R.jpg","N.jpg","0","1","0","",""
"","feedback","","html-keyboard-response","506","469258","0.0-1.0-699.0-0.0","0","0","22559","","null","","","null","77","","","","","","","","","","","","","","","",""
"","time_out","","html-keyboard-response","507","471259","0.0-1.0-701.0-0.0","0","0","22559","","null","","","null","77","","","","","","","","","","","","","","","",""
"","ITI","","html-keyboard-response","508","472261","0.0-1.0-702.0","0","0","22559","","null","","","null","77","","","","","","","","","","","","","","","NaN",""
"","S1","","html-keyboard-response","509","472513","0.0-1.0-704.0","0","0","22559","","null","","","null","78","","","","","","","","","","","","","","","",""
"","ISI","","html-keyboard-response","510","473514","0.0-1.0-705.0","0","0","22559","","null","","","null","78","NaN","","","","","","","","","","","","","","",""
"","S2","","html-keyboard-response","511","473779","0.0-1.0-706.0","0","0","22559","","null","","","null","78","","NaN","","","","","","","","","","","","","",""
"","response","","html-keyboard-response","512","474359","0.0-1.0-707.0-0.0","0","0","22559","","579","","","68","78","","","2","78","training","adjacent","ED","5","4","Q.jpg","N.jpg","0","0","1","",""
"","feedback","","html-keyboard-response","513","475361","0.0-1.0-708.0-0.0","0","0","22559","","null","","","null","78","","","","","","","","","","","","","","","",""
"","ITI","","html-keyboard-response","514","476362","0.0-1.0-711.0","0","0","22559","","null","","","null","78","","","","","","","","","","","","","","","NaN",""
"","S1","","html-keyboard-response","515","476614","0.0-1.0-713.0","0","0","22559","","null","","","null","79","","","","","","","","","","","","","","","",""
"","ISI","","html-keyboard-response","516","477617","0.0-1.0-714.0","0","0","22559","","null","","","null","79","NaN","","","","","","","","","","","","","","",""
"","S2","","html-keyboard-response","517","477869","0.0-1.0-715.0","0","0","22559","","null","","","null","79","","NaN","","","","","","","","","","","","","",""
"","response","","html-keyboard-response","518","478495","0.0-1.0-716.0-0.0","0","0","22559","","625","","","68","79","","","2","79","training","adjacent","FE","6","5","L.jpg","Q.jpg","0","0","1","",""
"","feedback","","html-keyboard-response","519","479498","0.0-1.0-717.0-0.0","0","0","22559","","null","","","null","79","","","","","","","","","","","","","","","",""
"","ITI","","html-keyboard-response","520","480500","0.0-1.0-720.0","0","0","22559","","null","","","null","79","","","","","","","","","","","","","","","NaN",""
"","S1","","html-keyboard-response","521","480752","0.0-1.0-722.0","0","0","22559","","null","","","null","80","","","","","","","","","","","","","","","",""
"","ISI","","html-keyboard-response","522","481754","0.0-1.0-723.0","0","0","22559","","null","","","null","80","NaN","","","","","","","","","","","","","","",""
"","S2","","html-keyboard-response","523","482007","0.0-1.0-724.0","0","0","22559","","null","","","null","80","","NaN","","","","","","","","","","","","","",""
"","response","","html-keyboard-response","524","483263","0.0-1.0-725.0-0.0","0","0","22559","","1255","","","75","80","","","2","80","training","adjacent","ED","5","4","Q.jpg","N.jpg","1","0","0","",""
"","feedback","","html-keyboard-response","525","484265","0.0-1.0-726.0-0.0","0","0","22559","","null","","","null","80","","","","","","","","","","","","","","","",""
"","time_out","","html-keyboard-response","526","486268","0.0-1.0-728.0-0.0","0","0","22559","","null","","","null","80","","","","","","","","","","","","","","","",""
"","ITI","","html-keyboard-response","527","487270","0.0-1.0-729.0","0","0","22559","","null","","","null","80","","","","","","","","","","","","","","","NaN",""
"","S1","","html-keyboard-response","528","487522","0.0-1.0-731.0","0","0","22559","","null","","","null","81","","","","","","","","","","","","","","","",""
"","ISI","","html-keyboard-response","529","488524","0.0-1.0-732.0","0","0","22559","","null","","","null","81","NaN","","","","","","","","","","","","","","",""
"","S2","","html-keyboard-response","530","488777","0.0-1.0-733.0","0","0","22559","","null","","","null","81","","NaN","","","","","","","","","","","","","",""
"","response","","html-keyboard-response","531","489719","0.0-1.0-734.0-0.0","0","0","22559","","941","","","68","81","","","2","81","training","adjacent","CD","3","4","R.jpg","N.jpg","0","1","0","",""
"","feedback","","html-keyboard-response","532","490723","0.0-1.0-735.0-0.0","0","0","22559","","null","","","null","81","","","","","","","","","","","","","","","",""
"","time_out","","html-keyboard-response","533","492725","0.0-1.0-737.0-0.0","0","0","22559","","null","","","null","81","","","","","","","","","","","","","","","",""
"","ITI","","html-keyboard-response","534","493727","0.0-1.0-738.0","0","0","22559","","null","","","null","81","","","","","","","","","","","","","","","NaN",""
"","S1","","html-keyboard-response","535","493978","0.0-1.0-740.0","0","0","22559","","null","","","null","82","","","","","","","","","","","","","","","",""
"","ISI","","html-keyboard-response","536","494981","0.0-1.0-741.0","0","0","22559","","null","","","null","82","NaN","","","","","","","","","","","","","","",""
"","S2","","html-keyboard-response","537","495232","0.0-1.0-742.0","0","0","22559","","null","","","null","82","","NaN","","","","","","","","","","","","","",""
"","response","","html-keyboard-response","538","495935","0.0-1.0-743.0-0.0","0","0","22559","","701","","","68","82","","","2","82","training","adjacent","CB","3","2","R.jpg","O.jpg","0","0","1","",""
"","feedback","","html-keyboard-response","539","496937","0.0-1.0-744.0-0.0","0","0","22559","","null","","","null","82","","","","","","","","","","","","","","","",""
"","ITI","","html-keyboard-response","540","497939","0.0-1.0-747.0","0","0","22559","","null","","","null","82","","","","","","","","","","","","","","","NaN",""
"","S1","","html-keyboard-response","541","498190","0.0-1.0-749.0","0","0","22559","","null","","","null","83","","","","","","","","","","","","","","","",""
"","ISI","","html-keyboard-response","542","499193","0.0-1.0-750.0","0","0","22559","","null","","","null","83","NaN","","","","","","","","","","","","","","",""
"","S2","","html-keyboard-response","543","499445","0.0-1.0-751.0","0","0","22559","","null","","","null","83","","NaN","","","","","","","","","","","","","",""
"","response","","html-keyboard-response","544","500231","0.0-1.0-752.0-0.0","0","0","22559","","785","","","68","83","","","2","83","training","adjacent","CD","3","4","R.jpg","N.jpg","0","1","0","",""
"","feedback","","html-keyboard-response","545","501234","0.0-1.0-753.0-0.0","0","0","22559","","null","","","null","83","","","","","","","","","","","","","","","",""
"","time_out","","html-keyboard-response","546","503235","0.0-1.0-755.0-0.0","0","0","22559","","null","","","null","83","","","","","","","","","","","","","","","",""
"","ITI","","html-keyboard-response","547","504236","0.0-1.0-756.0","0","0","22559","","null","","","null","83","","","","","","","","","","","","","","","NaN",""
"","S1","","html-keyboard-response","548","504489","0.0-1.0-758.0","0","0","22559","","null","","","null","84","","","","","","","","","","","","","","","",""
"","ISI","","html-keyboard-response","549","505490","0.0-1.0-759.0","0","0","22559","","null","","","null","84","NaN","","","","","","","","","","","","","","",""
"","S2","","html-keyboard-response","550","505742","0.0-1.0-760.0","0","0","22559","","null","","","null","84","","NaN","","","","","","","","","","","","","",""
"","response","","html-keyboard-response","551","506735","0.0-1.0-761.0-0.0","0","0","22559","","992","","","68","84","","","2","84","training","adjacent","DC","4","3","N.jpg","R.jpg","0","0","1","",""
"","feedback","","html-keyboard-response","552","507737","0.0-1.0-762.0-0.0","0","0","22559","","null","","","null","84","","","","","","","","","","","","","","","",""
"","ITI","","html-keyboard-response","553","508739","0.0-1.0-765.0","0","0","22559","","null","","","null","84","","","","","","","","","","","","","","","NaN",""
"","S1","","html-keyboard-response","554","508992","0.0-1.0-767.0","0","0","22559","","null","","","null","85","","","","","","","","","","","","","","","",""
"","ISI","","html-keyboard-response","555","509994","0.0-1.0-768.0","0","0","22559","","null","","","null","85","NaN","","","","","","","","","","","","","","",""
"","S2","","html-keyboard-response","556","510253","0.0-1.0-769.0","0","0","22559","","null","","","null","85","","NaN","","","","","","","","","","","","","",""
"","response","","html-keyboard-response","557","510615","0.0-1.0-770.0-0.0","0","0","22559","","361","","","75","85","","","2","85","training","adjacent","FG","6","7","L.jpg","M.jpg","1","1","1","",""
"","feedback","","html-keyboard-response","558","511626","0.0-1.0-771.0-0.0","0","0","22559","","null","","","null","85","","","","","","","","","","","","","","","",""
"","ITI","","html-keyboard-response","559","512628","0.0-1.0-774.0","0","0","22559","","null","","","null","85","","","","","","","","","","","","","","","NaN",""
"","S1","","html-keyboard-response","560","512880","0.0-1.0-776.0","0","0","22559","","null","","","null","86","","","","","","","","","","","","","","","",""
"","ISI","","html-keyboard-response","561","513882","0.0-1.0-777.0","0","0","22559","","null","","","null","86","NaN","","","","","","","","","","","","","","",""
"","S2","","html-keyboard-response","562","514133","0.0-1.0-778.0","0","0","22559","","null","","","null","86","","NaN","","","","","","","","","","","","","",""
"","response","","html-keyboard-response","563","515047","0.0-1.0-779.0-0.0","0","0","22559","","912","","","75","86","","","2","86","training","adjacent","DC","4","3","N.jpg","R.jpg","1","0","0","",""
"","feedback","","html-keyboard-response","564","516048","0.0-1.0-780.0-0.0","0","0","22559","","null","","","null","86","","","","","","","","","","","","","","","",""
"","time_out","","html-keyboard-response","565","518051","0.0-1.0-782.0-0.0","0","0","22559","","null","","","null","86","","","","","","","","","","","","","","","",""
"","ITI","","html-keyboard-response","566","519053","0.0-1.0-783.0","0","0","22559","","null","","","null","86","","","","","","","","","","","","","","","NaN",""
"","S1","","html-keyboard-response","567","519305","0.0-1.0-785.0","0","0","22559","","null","","","null","87","","","","","","","","","","","","","","","",""
"","ISI","","html-keyboard-response","568","520321","0.0-1.0-786.0","0","0","22559","","null","","","null","87","NaN","","","","","","","","","","","","","","",""
"","S2","","html-keyboard-response","569","520573","0.0-1.0-787.0","0","0","22559","","null","","","null","87","","NaN","","","","","","","","","","","","","",""
"","response","","html-keyboard-response","570","521079","0.0-1.0-788.0-0.0","0","0","22559","","505","","","68","87","","","2","87","training","adjacent","FE","6","5","L.jpg","Q.jpg","0","0","1","",""
"","feedback","","html-keyboard-response","571","522082","0.0-1.0-789.0-0.0","0","0","22559","","null","","","null","87","","","","","","","","","","","","","","","",""
"","ITI","","html-keyboard-response","572","523085","0.0-1.0-792.0","0","0","22559","","null","","","null","87","","","","","","","","","","","","","","","NaN",""
"","S1","","html-keyboard-response","573","523337","0.0-1.0-794.0","0","0","22559","","null","","","null","88","","","","","","","","","","","","","","","",""
"","ISI","","html-keyboard-response","574","524339","0.0-1.0-795.0","0","0","22559","","null","","","null","88","NaN","","","","","","","","","","","","","","",""
"","S2","","html-keyboard-response","575","524591","0.0-1.0-796.0","0","0","22559","","null","","","null","88","","NaN","","","","","","","","","","","","","",""
"","response","","html-keyboard-response","576","525678","0.0-1.0-797.0-0.0","0","0","22559","","1087","","","68","88","","","2","88","training","adjacent","CB","3","2","R.jpg","O.jpg","0","0","1","",""
"","feedback","","html-keyboard-response","577","526681","0.0-1.0-798.0-0.0","0","0","22559","","null","","","null","88","","","","","","","","","","","","","","","",""
"","ITI","","html-keyboard-response","578","527685","0.0-1.0-801.0","0","0","22559","","null","","","null","88","","","","","","","","","","","","","","","NaN",""
"","S1","","html-keyboard-response","579","527937","0.0-1.0-803.0","0","0","22559","","null","","","null","89","","","","","","","","","","","","","","","",""
"","ISI","","html-keyboard-response","580","528940","0.0-1.0-804.0","0","0","22559","","null","","","null","89","NaN","","","","","","","","","","","","","","",""
"","S2","","html-keyboard-response","581","529192","0.0-1.0-805.0","0","0","22559","","null","","","null","89","","NaN","","","","","","","","","","","","","",""
"","response","","html-keyboard-response","582","529910","0.0-1.0-806.0-0.0","0","0","22559","","718","","","75","89","","","2","89","training","adjacent","BC","2","3","O.jpg","R.jpg","1","1","1","",""
