"success","ttype","start_time","trial_type","trial_index","time_elapsed","internal_node_id","warning","missed_checkup","PID","view_history","rt","responses","repeat_instructions","key_press","index","keypress_isi","keypress_S2","block","trial_num","phase","group_type","pair_type","S1_stim","S2_stim","S1_img","S2_img","S1_chosen","S1_higher","accuracy","keypress_iti","total_bonus_tally"
"true","full_screen","d04062023hr1810","fullscreen","0","45600","0.0-0.0","0","0","51681","","","","","","","","","","","","","","","","","","","","","",""
"","instructions","","instructions","1","77792","0.0-1.0-0.0-0.0","0","0","51681","[{""page_index"":0,""viewing_time"":5115},{""page_index"":1,""viewing_time"":15168},{""page_index"":2,""viewing_time"":8585},{""page_index"":3,""viewing_time"":3319}]","32189","","","","","","","","","","","","","","","","","","","",""
"","comprehension_check","","survey-multi-choice","2","100655","0.0-1.0-0.0-1.0","0","0","51681","","22855","{""Q0"":""True"",""Q1"":""D"",""Q2"":""Once the second image appears and while the screen 'MAKE A CHOICE' is shown"",""Q3"":""Green mark"",""Q4"":""either D or K""}","1","","","","","","","","","","","","","","","","","",""
"","missed_instruction_checkup","","html-keyboard-response","3","103191","0.0-1.0-0.0-2.0-0.0","0","1","51681","","2530","","","32","","","","","","","","","","","","","","","","",""
"","instructions","","instructions","4","119645","0.0-1.0-0.1-0.1","0","0","51681","[{""page_index"":0,""viewing_time"":3245},{""page_index"":1,""viewing_time"":11606},{""page_index"":2,""viewing_time"":792},{""page_index"":3,""viewing_time"":808}]","16451","","","","","","","","","","","","","","","","","","","",""
"","comprehension_check","","survey-multi-choice","5","129109","0.0-1.0-0.1-1.1","0","0","51681","","9456","{""Q0"":""True"",""Q1"":""K"",""Q2"":""Once the second image appears and while the screen 'MAKE A CHOICE' is shown"",""Q3"":""Green mark"",""Q4"":""either D or K""}","0","","","","","","","","","","","","","","","","","",""
"","start_exp","","html-keyboard-response","6","130869","0.0-1.0-1.0","0","0","51681","","1757","","","32","","","","","","","","","","","","","","","","",""
"","S1","","html-keyboard-response","7","131022","0.0-1.0-2.0","0","0","51681","","null","","","null","0","","","","","","","","","","","","","","","",""
"","ISI","","html-keyboard-response","8","133026","0.0-1.0-3.0","0","0","51681","","null","","","null","0","NaN","","","","","","","","","","","","","","",""
"","S2","","html-keyboard-response","9","133179","0.0-1.0-4.0","0","0","51681","","null","","","null","0","","NaN","","","","","","","","","","","","","",""
"","response","","html-keyboard-response","10","134973","0.0-1.0-5.0-0.0","0","0","51681","","1791","","","68","0","","","1","0","training","adjacent","GF","7","6","R.jpg","L.jpg","0","0","1","",""
"","feedback","","html-keyboard-response","11","135976","0.0-1.0-6.0-0.0","0","0","51681","","null","","","null","0","","","","","","","","","","","","","","","",""
"","ITI","","html-keyboard-response","12","136979","0.0-1.0-9.0","0","0","51681","","null","","","null","0","","","","","","","","","","","","","","","NaN",""
"","S1","","html-keyboard-response","13","137135","0.0-1.0-11.0","0","0","51681","","null","","","null","1","","","","","","","","","","","","","","","",""
"","ISI","","html-keyboard-response","14","139138","0.0-1.0-12.0","0","0","51681","","null","","","null","1","NaN","","","","","","","","","","","","","","",""
"","S2","","html-keyboard-response","15","139293","0.0-1.0-13.0","0","0","51681","","null","","","null","1","","NaN","","","","","","","","","","","","","",""
"","response","","html-keyboard-response","16","140382","0.0-1.0-14.0-0.0","0","0","51681","","1087","","","68","1","","","1","1","training","adjacent","CD","3","4","N.jpg","Q.jpg","0","1","0","",""
"","feedback","","html-keyboard-response","17","141385","0.0-1.0-15.0-0.0","0","0","51681","","null","","","null","1","","","","","","","","","","","","","","","",""
"","time_out","","html-keyboard-response","18","143389","0.0-1.0-17.0-0.0","0","0","51681","","null","","","null","1","","","","","","","","","","","","","","","",""
"","ITI","","html-keyboard-response","19","144404","0.0-1.0-18.0","0","0","51681","","null","","","null","1","","","","","","","","","","","","","","","NaN",""
"","S1","","html-keyboard-response","20","144559","0.0-1.0-20.0","0","0","51681","","null","","","null","2","","","","","","","","","","","","","","","",""
"","ISI","","html-keyboard-response","21","146563","0.0-1.0-21.0","0","0","51681","","null","","","null","2","NaN","","","","","","","","","","","","","","",""
"","S2","","html-keyboard-response","22","146716","0.0-1.0-22.0","0","0","51681","","null","","","null","2","","NaN","","","","","","","","","","","","","",""
"","response","","html-keyboard-response","23","147452","0.0-1.0-23.0-0.0","0","0","51681","","734","","","75","2","","","1","2","training","adjacent","CB","3","2","N.jpg","O.jpg","1","0","0","",""
"","feedback","","html-keyboard-response","24","148456","0.0-1.0-24.0-0.0","0","0","51681","","null","","","null","2","","","","","","","","","","","","","","","",""
"","time_out","","html-keyboard-response","25","150461","0.0-1.0-26.0-0.0","0","0","51681","","null","","","null","2","","","","","","","","","","","","","","","",""
"","ITI","","html-keyboard-response","26","151465","0.0-1.0-27.0","0","0","51681","","null","","","null","2","","","","","","","","","","","","","","","NaN",""
"","S1","","html-keyboard-response","27","151619","0.0-1.0-29.0","0","0","51681","","null","","","null","3","","","","","","","","","","","","","","","",""
"","ISI","","html-keyboard-response","28","153621","0.0-1.0-30.0","0","0","51681","","null","","","null","3","NaN","","","","","","","","","","","","","","",""
"","S2","","html-keyboard-response","29","153776","0.0-1.0-31.0","0","0","51681","","null","","","null","3","","NaN","","","","","","","","","","","","","",""
"","response","","html-keyboard-response","30","154446","0.0-1.0-32.0-0.0","0","0","51681","","667","","","75","3","","","1","3","training","adjacent","DE","4","5","Q.jpg","M.jpg","1","1","1","",""
"","feedback","","html-keyboard-response","31","155449","0.0-1.0-33.0-0.0","0","0","51681","","null","","","null","3","","","","","","","","","","","","","","","",""
"","ITI","","html-keyboard-response","32","156452","0.0-1.0-36.0","0","0","51681","","null","","","null","3","","","","","","","","","","","","","","","NaN",""
"","S1","","html-keyboard-response","33","156606","0.0-1.0-38.0","0","0","51681","","null","","","null","4","","","","","","","","","","","","","","","",""
"","ISI","","html-keyboard-response","34","158609","0.0-1.0-39.0","0","0","51681","","null","","","null","4","NaN","","","","","","","","","","","","","","",""
"","S2","","html-keyboard-response","35","158764","0.0-1.0-40.0","0","0","51681","","null","","","null","4","","NaN","","","","","","","","","","","","","",""
"","response","","html-keyboard-response","36","159222","0.0-1.0-41.0-0.0","0","0","51681","","454","","","68","4","","","1","4","training","adjacent","CB","3","2","N.jpg","O.jpg","0","0","1","",""
"","feedback","","html-keyboard-response","37","160234","0.0-1.0-42.0-0.0","0","0","51681","","null","","","null","4","","","","","","","","","","","","","","","",""
"","ITI","","html-keyboard-response","38","161236","0.0-1.0-45.0","0","0","51681","","null","","","null","4","","","","","","","","","","","","","","","NaN",""
"","S1","","html-keyboard-response","39","161390","0.0-1.0-47.0","0","0","51681","","null","","","null","5","","","","","","","","","","","","","","","",""
"","ISI","","html-keyboard-response","40","163394","0.0-1.0-48.0","0","0","51681","","null","","","null","5","NaN","","","","","","","","","","","","","","",""
"","S2","","html-keyboard-response","41","163548","0.0-1.0-49.0","0","0","51681","","null","","","null","5","","NaN","","","","","","","","","","","","","",""
"","response","","html-keyboard-response","42","163997","0.0-1.0-50.0-0.0","0","0","51681","","446","","","75","5","","","1","5","training","adjacent","FE","6","5","L.jpg","M.jpg","1","0","0","",""
"","feedback","","html-keyboard-response","43","165000","0.0-1.0-51.0-0.0","0","0","51681","","null","","","null","5","","","","","","","","","","","","","","","",""
"","time_out","","html-keyboard-response","44","167005","0.0-1.0-53.0-0.0","0","0","51681","","null","","","null","5","","","","","","","","","","","","","","","",""
"","ITI","","html-keyboard-response","45","168009","0.0-1.0-54.0","0","0","51681","","null","","","null","5","","","","","","","","","","","","","","","NaN",""
"","S1","","html-keyboard-response","46","168162","0.0-1.0-56.0","0","0","51681","","null","","","null","6","","","","","","","","","","","","","","","",""
"","ISI","","html-keyboard-response","47","170165","0.0-1.0-57.0","0","0","51681","","null","","","null","6","NaN","","","","","","","","","","","","","","",""
"","S2","","html-keyboard-response","48","170319","0.0-1.0-58.0","0","0","51681","","null","","","null","6","","NaN","","","","","","","","","","","","","",""
"","response","","html-keyboard-response","49","170774","0.0-1.0-59.0-0.0","0","0","51681","","452","","","75","6","","","1","6","training","adjacent","DC","4","3","Q.jpg","N.jpg","1","0","0","",""
"","feedback","","html-keyboard-response","50","171778","0.0-1.0-60.0-0.0","0","0","51681","","null","","","null","6","","","","","","","","","","","","","","","",""
"","time_out","","html-keyboard-response","51","173781","0.0-1.0-62.0-0.0","0","0","51681","","null","","","null","6","","","","","","","","","","","","","","","",""
"","ITI","","html-keyboard-response","52","174785","0.0-1.0-63.0","0","0","51681","","null","","","null","6","","","","","","","","","","","","","","","NaN",""
"","S1","","html-keyboard-response","53","174942","0.0-1.0-65.0","0","0","51681","","null","","","null","7","","","","","","","","","","","","","","","",""
"","ISI","","html-keyboard-response","54","176945","0.0-1.0-66.0","0","0","51681","","null","","","null","7","NaN","","","","","","","","","","","","","","",""
"","S2","","html-keyboard-response","55","177099","0.0-1.0-67.0","0","0","51681","","null","","","null","7","","NaN","","","","","","","","","","","","","",""
"","response","","html-keyboard-response","56","178614","0.0-1.0-68.0-0.0","0","0","51681","","1511","","","68","7","","","1","7","training","adjacent","AB","1","2","P.jpg","O.jpg","0","1","0","",""
"","feedback","","html-keyboard-response","57","179619","0.0-1.0-69.0-0.0","0","0","51681","","null","","","null","7","","","","","","","","","","","","","","","",""
"","time_out","","html-keyboard-response","58","181622","0.0-1.0-71.0-0.0","0","0","51681","","null","","","null","7","","","","","","","","","","","","","","","",""
"","ITI","","html-keyboard-response","59","182626","0.0-1.0-72.0","0","0","51681","","null","","","null","7","","","","","","","","","","","","","","","NaN",""
"","S1","","html-keyboard-response","60","182780","0.0-1.0-74.0","0","0","51681","","null","","","null","8","","","","","","","","","","","","","","","",""
"","ISI","","html-keyboard-response","61","184785","0.0-1.0-75.0","0","0","51681","","null","","","null","8","NaN","","","","","","","","","","","","","","",""
"","S2","","html-keyboard-response","62","184938","0.0-1.0-76.0","0","0","51681","","null","","","null","8","","NaN","","","","","","","","","","","","","",""
"","response","","html-keyboard-response","63","185830","0.0-1.0-77.0-0.0","0","0","51681","","890","","","75","8","","","1","8","training","adjacent","ED","5","4","M.jpg","Q.jpg","1","0","0","",""
"","feedback","","html-keyboard-response","64","186844","0.0-1.0-78.0-0.0","0","0","51681","","null","","","null","8","","","","","","","","","","","","","","","",""
"","time_out","","html-keyboard-response","65","188847","0.0-1.0-80.0-0.0","0","0","51681","","null","","","null","8","","","","","","","","","","","","","","","",""
"","ITI","","html-keyboard-response","66","189849","0.0-1.0-81.0","0","0","51681","","null","","","null","8","","","","","","","","","","","","","","","NaN",""
"","S1","","html-keyboard-response","67","190004","0.0-1.0-83.0","0","0","51681","","null","","","null","9","","","","","","","","","","","","","","","",""
"","ISI","","html-keyboard-response","68","192006","0.0-1.0-84.0","0","0","51681","","null","","","null","9","NaN","","","","","","","","","","","","","","",""
"","S2","","html-keyboard-response","69","192161","0.0-1.0-85.0","0","0","51681","","null","","","null","9","","NaN","","","","","","","","","","","","","",""
"","response","","html-keyboard-response","70","192749","0.0-1.0-86.0-0.0","0","0","51681","","586","","","68","9","","","1","9","training","adjacent","ED","5","4","M.jpg","Q.jpg","0","0","1","",""
"","feedback","","html-keyboard-response","71","193753","0.0-1.0-87.0-0.0","0","0","51681","","null","","","null","9","","","","","","","","","","","","","","","",""
"","ITI","","html-keyboard-response","72","194755","0.0-1.0-90.0","0","0","51681","","null","","","null","9","","","","","","","","","","","","","","","NaN",""
"","S1","","html-keyboard-response","73","194909","0.0-1.0-92.0","0","0","51681","","null","","","null","10","","","","","","","","","","","","","","","",""
"","ISI","","html-keyboard-response","74","196914","0.0-1.0-93.0","0","0","51681","","null","","","null","10","NaN","","","","","","","","","","","","","","",""
"","S2","","html-keyboard-response","75","197068","0.0-1.0-94.0","0","0","51681","","null","","","null","10","","NaN","","","","","","","","","","","","","",""
"","response","","html-keyboard-response","76","198365","0.0-1.0-95.0-0.0","0","0","51681","","1294","","","75","10","","","1","10","training","adjacent","BC","2","3","O.jpg","N.jpg","1","1","1","",""
"","feedback","","html-keyboard-response","77","199368","0.0-1.0-96.0-0.0","0","0","51681","","null","","","null","10","","","","","","","","","","","","","","","",""
"","ITI","","html-keyboard-response","78","200373","0.0-1.0-99.0","0","0","51681","","null","","","null","10","","","","","","","","","","","","","","","NaN",""
"","S1","","html-keyboard-response","79","200526","0.0-1.0-101.0","0","0","51681","","null","","","null","11","","","","","","","","","","","","","","","",""
"","ISI","","html-keyboard-response","80","202530","0.0-1.0-102.0","0","0","51681","","null","","","null","11","NaN","","","","","","","","","","","","","","",""
"","S2","","html-keyboard-response","81","202683","0.0-1.0-103.0","0","0","51681","","null","","","null","11","","NaN","","","","","","","","","","","","","",""
"","response","","html-keyboard-response","82","203622","0.0-1.0-104.0-0.0","0","0","51681","","935","","","68","11","","","1","11","training","adjacent","FE","6","5","L.jpg","M.jpg","0","0","1","",""
"","feedback","","html-keyboard-response","83","204625","0.0-1.0-105.0-0.0","0","0","51681","","null","","","null","11","","","","","","","","","","","","","","","",""
"","ITI","","html-keyboard-response","84","205628","0.0-1.0-108.0","0","0","51681","","null","","","null","11","","","","","","","","","","","","","","","NaN",""
"","S1","","html-keyboard-response","85","205781","0.0-1.0-110.0","0","0","51681","","null","","","null","12","","","","","","","","","","","","","","","",""
"","ISI","","html-keyboard-response","86","207784","0.0-1.0-111.0","0","0","51681","","null","","","null","12","NaN","","","","","","","","","","","","","","",""
"","S2","","html-keyboard-response","87","207939","0.0-1.0-112.0","0","0","51681","","null","","","null","12","","NaN","","","","","","","","","","","","","",""
"","response","","html-keyboard-response","88","208845","0.0-1.0-113.0-0.0","0","0","51681","","904","","","75","12","","","1","12","training","adjacent","DE","4","5","Q.jpg","M.jpg","1","1","1","",""
"","feedback","","html-keyboard-response","89","209851","0.0-1.0-114.0-0.0","0","0","51681","","null","","","null","12","","","","","","","","","","","","","","","",""
"","ITI","","html-keyboard-response","90","210864","0.0-1.0-117.0","0","0","51681","","null","","","null","12","","","","","","","","","","","","","","","NaN",""
"","S1","","html-keyboard-response","91","211019","0.0-1.0-119.0","0","0","51681","","null","","","null","13","","","","","","","","","","","","","","","",""
"","ISI","","html-keyboard-response","92","213022","0.0-1.0-120.0","0","0","51681","","null","","","null","13","NaN","","","","","","","","","","","","","","",""
"","S2","","html-keyboard-response","93","213175","0.0-1.0-121.0","0","0","51681","","null","","","null","13","","NaN","","","","","","","","","","","","","",""
"","response","","html-keyboard-response","94","214255","0.0-1.0-122.0-0.0","0","0","51681","","1079","","","68","13","","","1","13","training","adjacent","ED","5","4","M.jpg","Q.jpg","0","0","1","",""
"","feedback","","html-keyboard-response","95","215259","0.0-1.0-123.0-0.0","0","0","51681","","null","","","null","13","","","","","","","","","","","","","","","",""
"","ITI","","html-keyboard-response","96","216263","0.0-1.0-126.0","0","0","51681","","null","","","null","13","","","","","","","","","","","","","","","NaN",""
"","S1","","html-keyboard-response","97","216416","0.0-1.0-128.0","0","0","51681","","null","","","null","14","","","","","","","","","","","","","","","",""
"","ISI","","html-keyboard-response","98","218418","0.0-1.0-129.0","0","0","51681","","null","","","null","14","NaN","","","","","","","","","","","","","","",""
"","S2","","html-keyboard-response","99","218572","0.0-1.0-130.0","0","0","51681","","null","","","null","14","","NaN","","","","","","","","","","","","","",""
"","response","","html-keyboard-response","100","219662","0.0-1.0-131.0-0.0","0","0","51681","","1087","","","75","14","","","1","14","training","adjacent","EF","5","6","M.jpg","L.jpg","1","1","1","",""
"","feedback","","html-keyboard-response","101","220667","0.0-1.0-132.0-0.0","0","0","51681","","null","","","null","14","","","","","","","","","","","","","","","",""
"","ITI","","html-keyboard-response","102","221670","0.0-1.0-135.0","0","0","51681","","null","","","null","14","","","","","","","","","","","","","","","NaN",""
"","S1","","html-keyboard-response","103","221823","0.0-1.0-137.0","0","0","51681","","null","","","null","15","","","","","","","","","","","","","","","",""
"","ISI","","html-keyboard-response","104","223826","0.0-1.0-138.0","0","0","51681","","null","","","null","15","NaN","","","","","","","","","","","","","","",""
"","S2","","html-keyboard-response","105","223980","0.0-1.0-139.0","0","0","51681","","null","","","null","15","","NaN","","","","","","","","","","","","","",""
"","response","","html-keyboard-response","106","225060","0.0-1.0-140.0-0.0","0","0","51681","","1078","","","75","15","","","1","15","training","adjacent","DC","4","3","Q.jpg","N.jpg","1","0","0","",""
"","feedback","","html-keyboard-response","107","226064","0.0-1.0-141.0-0.0","0","0","51681","","null","","","null","15","","","","","","","","","","","","","","","",""
"","time_out","","html-keyboard-response","108","228067","0.0-1.0-143.0-0.0","0","0","51681","","null","","","null","15","","","","","","","","","","","","","","","",""
"","ITI","","html-keyboard-response","109","229070","0.0-1.0-144.0","0","0","51681","","null","","","null","15","","","","","","","","","","","","","","","NaN",""
"","S1","","html-keyboard-response","110","229222","0.0-1.0-146.0","0","0","51681","","null","","","null","16","","","","","","","","","","","","","","","",""
"","ISI","","html-keyboard-response","111","231225","0.0-1.0-147.0","0","0","51681","","null","","","null","16","NaN","","","","","","","","","","","","","","",""
"","S2","","html-keyboard-response","112","231378","0.0-1.0-148.0","0","0","51681","","null","","","null","16","","NaN","","","","","","","","","","","","","",""
"","response","","html-keyboard-response","113","232021","0.0-1.0-149.0-0.0","0","0","51681","","640","","","75","16","","","1","16","training","adjacent","BA","2","1","O.jpg","P.jpg","1","0","0","",""
"","feedback","","html-keyboard-response","114","233024","0.0-1.0-150.0-0.0","0","0","51681","","null","","","null","16","","","","","","","","","","","","","","","",""
"","time_out","","html-keyboard-response","115","235027","0.0-1.0-152.0-0.0","0","0","51681","","null","","","null","16","","","","","","","","","","","","","","","",""
"","ITI","","html-keyboard-response","116","236031","0.0-1.0-153.0","0","0","51681","","null","","","null","16","","","","","","","","","","","","","","","NaN",""
"","S1","","html-keyboard-response","117","236184","0.0-1.0-155.0","0","0","51681","","null","","","null","17","","","","","","","","","","","","","","","",""
"","ISI","","html-keyboard-response","118","238187","0.0-1.0-156.0","0","0","51681","","null","","","null","17","NaN","","","","","","","","","","","","","","",""
"","S2","","html-keyboard-response","119","238341","0.0-1.0-157.0","0","0","51681","","null","","","null","17","","NaN","","","","","","","","","","","","","",""
"","response","","html-keyboard-response","120","239085","0.0-1.0-158.0-0.0","0","0","51681","","741","","","68","17","","","1","17","training","adjacent","CB","3","2","N.jpg","O.jpg","0","0","1","",""
"","feedback","","html-keyboard-response","121","240089","0.0-1.0-159.0-0.0","0","0","51681","","null","","","null","17","","","","","","","","","","","","","","","",""
"","ITI","","html-keyboard-response","122","241093","0.0-1.0-162.0","0","0","51681","","null","","","null","17","","","","","","","","","","","","","","","NaN",""
"","S1","","html-keyboard-response","123","241246","0.0-1.0-164.0","0","0","51681","","null","","","null","18","","","","","","","","","","","","","","","",""
"","ISI","","html-keyboard-response","124","243249","0.0-1.0-165.0","0","0","51681","","null","","","null","18","NaN","","","","","","","","","","","","","","",""
"","S2","","html-keyboard-response","125","243404","0.0-1.0-166.0","0","0","51681","","null","","","null","18","","NaN","","","","","","","","","","","","","",""
"","response","","html-keyboard-response","126","244597","0.0-1.0-167.0-0.0","0","0","51681","","1190","","","68","18","","","1","18","training","adjacent","CD","3","4","N.jpg","Q.jpg","0","1","0","",""
"","feedback","","html-keyboard-response","127","245602","0.0-1.0-168.0-0.0","0","0","51681","","null","","","null","18","","","","","","","","","","","","","","","",""
"","time_out","","html-keyboard-response","128","247605","0.0-1.0-170.0-0.0","0","0","51681","","null","","","null","18","","","","","","","","","","","","","","","",""
"","ITI","","html-keyboard-response","129","248608","0.0-1.0-171.0","0","0","51681","","null","","","null","18","","","","","","","","","","","","","","","NaN",""
"","S1","","html-keyboard-response","130","248761","0.0-1.0-173.0","0","0","51681","","null","","","null","19","","","","","","","","","","","","","","","",""
"","ISI","","html-keyboard-response","131","250764","0.0-1.0-174.0","0","0","51681","","null","","","null","19","NaN","","","","","","","","","","","","","","",""
"","S2","","html-keyboard-response","132","250917","0.0-1.0-175.0","0","0","51681","","null","","","null","19","","NaN","","","","","","","","","","","","","",""
"","response","","html-keyboard-response","133","251813","0.0-1.0-176.0-0.0","0","0","51681","","893","","","75","19","","","1","19","training","adjacent","DE","4","5","Q.jpg","M.jpg","1","1","1","",""
"","feedback","","html-keyboard-response","134","252817","0.0-1.0-177.0-0.0","0","0","51681","","null","","","null","19","","","","","","","","","","","","","","","",""
"","ITI","","html-keyboard-response","135","253829","0.0-1.0-180.0","0","0","51681","","null","","","null","19","","","","","","","","","","","","","","","NaN",""
"","S1","","html-keyboard-response","136","253983","0.0-1.0-182.0","0","0","51681","","null","","","null","20","","","","","","","","","","","","","","","",""
"","ISI","","html-keyboard-response","137","255986","0.0-1.0-183.0","0","0","51681","","null","","","null","20","NaN","","","","","","","","","","","","","","",""
"","S2","","html-keyboard-response","138","256142","0.0-1.0-184.0","0","0","51681","","null","","","null","20","","NaN","","","","","","","","","","","","","",""
"","response","","html-keyboard-response","139","257277","0.0-1.0-185.0-0.0","0","0","51681","","1132","","","68","20","","","1","20","training","adjacent","FG","6","7","L.jpg","R.jpg","0","1","0","",""
"","feedback","","html-keyboard-response","140","258281","0.0-1.0-186.0-0.0","0","0","51681","","null","","","null","20","","","","","","","","","","","","","","","",""
"","time_out","","html-keyboard-response","141","260284","0.0-1.0-188.0-0.0","0","0","51681","","null","","","null","20","","","","","","","","","","","","","","","",""
"","ITI","","html-keyboard-response","142","261287","0.0-1.0-189.0","0","0","51681","","null","","","null","20","","","","","","","","","","","","","","","NaN",""
"","S1","","html-keyboard-response","143","261440","0.0-1.0-191.0","0","0","51681","","null","","","null","21","","","","","","","","","","","","","","","",""
"","ISI","","html-keyboard-response","144","263443","0.0-1.0-192.0","0","0","51681","","null","","","null","21","NaN","","","","","","","","","","","","","","",""
"","S2","","html-keyboard-response","145","263598","0.0-1.0-193.0","0","0","51681","","null","","","null","21","","NaN","","","","","","","","","","","","","",""
"","response","","html-keyboard-response","146","265452","0.0-1.0-194.0-0.0","0","0","51681","","null","","","null","21","","","1","21","training","adjacent","AB","1","2","P.jpg","O.jpg","NaN","1","0","",""
"","too_slow_prompt","","html-keyboard-response","147","266457","0.0-1.0-196.0-0.0","1","0","51681","","null","","","null","","","","","","","","","","","","","","","","",""
"","time_out","","html-keyboard-response","148","268461","0.0-1.0-197.0-0.0","0","0","51681","","null","","","null","21","","","","","","","","","","","","","","","",""
"","ITI","","html-keyboard-response","149","269465","0.0-1.0-198.0","0","0","51681","","null","","","null","21","","","","","","","","","","","","","","","NaN",""
"","S1","","html-keyboard-response","150","269618","0.0-1.0-200.0","0","0","51681","","null","","","null","22","","","","","","","","","","","","","","","",""
"","ISI","","html-keyboard-response","151","271620","0.0-1.0-201.0","0","0","51681","","null","","","null","22","NaN","","","","","","","","","","","","","","",""
"","S2","","html-keyboard-response","152","271774","0.0-1.0-202.0","0","0","51681","","null","","","null","22","","NaN","","","","","","","","","","","","","",""
"","response","","html-keyboard-response","153","272421","0.0-1.0-203.0-0.0","0","0","51681","","644","","","75","22","","","1","22","training","adjacent","DC","4","3","Q.jpg","N.jpg","1","0","0","",""
"","feedback","","html-keyboard-response","154","273424","0.0-1.0-204.0-0.0","0","0","51681","","null","","","null","22","","","","","","","","","","","","","","","",""
"","time_out","","html-keyboard-response","155","275426","0.0-1.0-206.0-0.0","0","0","51681","","null","","","null","22","","","","","","","","","","","","","","","",""
"","ITI","","html-keyboard-response","156","276429","0.0-1.0-207.0","0","0","51681","","null","","","null","22","","","","","","","","","","","","","","","NaN",""
"","S1","","html-keyboard-response","157","276583","0.0-1.0-209.0","0","0","51681","","null","","","null","23","","","","","","","","","","","","","","","",""
"","ISI","","html-keyboard-response","158","278592","0.0-1.0-210.0","0","0","51681","","null","","","null","23","NaN","","","","","","","","","","","","","","",""
"","S2","","html-keyboard-response","159","278746","0.0-1.0-211.0","0","0","51681","","null","","","null","23","","NaN","","","","","","","","","","","","","",""
"","response","","html-keyboard-response","160","279798","0.0-1.0-212.0-0.0","0","0","51681","","1049","","","75","23","","","1","23","training","adjacent","FE","6","5","L.jpg","M.jpg","1","0","0","",""
"","feedback","","html-keyboard-response","161","280802","0.0-1.0-213.0-0.0","0","0","51681","","null","","","null","23","","","","","","","","","","","","","","","",""
"","time_out","","html-keyboard-response","162","282804","0.0-1.0-215.0-0.0","0","0","51681","","null","","","null","23","","","","","","","","","","","","","","","",""
"","ITI","","html-keyboard-response","163","283807","0.0-1.0-216.0","0","0","51681","","null","","","null","23","","","","","","","","","","","","","","","NaN",""
"","S1","","html-keyboard-response","164","283966","0.0-1.0-218.0","0","0","51681","","null","","","null","24","","","","","","","","","","","","","","","",""
"","ISI","","html-keyboard-response","165","285970","0.0-1.0-219.0","0","0","51681","","null","","","null","24","NaN","","","","","","","","","","","","","","",""
"","S2","","html-keyboard-response","166","286124","0.0-1.0-220.0","0","0","51681","","null","","","null","24","","NaN","","","","","","","","","","","","","",""
"","response","","html-keyboard-response","167","286710","0.0-1.0-221.0-0.0","0","0","51681","","584","","","75","24","","","1","24","training","adjacent","EF","5","6","M.jpg","L.jpg","1","1","1","",""
"","feedback","","html-keyboard-response","168","287714","0.0-1.0-222.0-0.0","0","0","51681","","null","","","null","24","","","","","","","","","","","","","","","",""
"","ITI","","html-keyboard-response","169","288718","0.0-1.0-225.0","0","0","51681","","null","","","null","24","","","","","","","","","","","","","","","NaN",""
"","S1","","html-keyboard-response","170","288872","0.0-1.0-227.0","0","0","51681","","null","","","null","25","","","","","","","","","","","","","","","",""
"","ISI","","html-keyboard-response","171","290877","0.0-1.0-228.0","0","0","51681","","null","","","null","25","NaN","","","","","","","","","","","","","","",""
"","S2","","html-keyboard-response","172","291031","0.0-1.0-229.0","0","0","51681","","null","","","null","25","","NaN","","","","","","","","","","","","","",""
"","response","","html-keyboard-response","173","291573","0.0-1.0-230.0-0.0","0","0","51681","","541","","","68","25","","","1","25","training","adjacent","BA","2","1","O.jpg","P.jpg","0","0","1","",""
"","feedback","","html-keyboard-response","174","292577","0.0-1.0-231.0-0.0","0","0","51681","","null","","","null","25","","","","","","","","","","","","","","","",""
"","ITI","","html-keyboard-response","175","293580","0.0-1.0-234.0","0","0","51681","","null","","","null","25","","","","","","","","","","","","","","","NaN",""
"","S1","","html-keyboard-response","176","293734","0.0-1.0-236.0","0","0","51681","","null","","","null","26","","","","","","","","","","","","","","","",""
"","ISI","","html-keyboard-response","177","295739","0.0-1.0-237.0","0","0","51681","","null","","","null","26","NaN","","","","","","","","","","","","","","",""
"","S2","","html-keyboard-response","178","295892","0.0-1.0-238.0","0","0","51681","","null","","","null","26","","NaN","","","","","","","","","","","","","",""
"","response","","html-keyboard-response","179","296702","0.0-1.0-239.0-0.0","0","0","51681","","806","","","75","26","","","1","26","training","adjacent","EF","5","6","M.jpg","L.jpg","1","1","1","",""
"","feedback","","html-keyboard-response","180","297705","0.0-1.0-240.0-0.0","0","0","51681","","null","","","null","26","","","","","","","","","","","","","","","",""
"","ITI","","html-keyboard-response","181","298710","0.0-1.0-243.0","0","0","51681","","null","","","null","26","","","","","","","","","","","","","","","NaN",""
"","S1","","html-keyboard-response","182","298863","0.0-1.0-245.0","0","0","51681","","null","","","null","27","","","","","","","","","","","","","","","",""
"","ISI","","html-keyboard-response","183","300866","0.0-1.0-246.0","0","0","51681","","null","","","null","27","NaN","","","","","","","","","","","","","","",""
"","S2","","html-keyboard-response","184","301020","0.0-1.0-247.0","0","0","51681","","null","","","null","27","","NaN","","","","","","","","","","","","","",""
"","response","","html-keyboard-response","185","301844","0.0-1.0-248.0-0.0","0","0","51681","","823","","","75","27","","","1","27","training","adjacent","GF","7","6","R.jpg","L.jpg","1","0","0","",""
"","feedback","","html-keyboard-response","186","302847","0.0-1.0-249.0-0.0","0","0","51681","","null","","","null","27","","","","","","","","","","","","","","","",""
"","time_out","","html-keyboard-response","187","304851","0.0-1.0-251.0-0.0","0","0","51681","","null","","","null","27","","","","","","","","","","","","","","","",""
"","ITI","","html-keyboard-response","188","305855","0.0-1.0-252.0","0","0","51681","","null","","","null","27","","","","","","","","","","","","","","","NaN",""
"","S1","","html-keyboard-response","189","306009","0.0-1.0-254.0","0","0","51681","","null","","","null","28","","","","","","","","","","","","","","","",""
"","ISI","","html-keyboard-response","190","308012","0.0-1.0-255.0","0","0","51681","","null","","","null","28","NaN","","","","","","","","","","","","","","",""
"","S2","","html-keyboard-response","191","308165","0.0-1.0-256.0","0","0","51681","","null","","","null","28","","NaN","","","","","","","","","","","","","",""
"","response","","html-keyboard-response","192","308597","0.0-1.0-257.0-0.0","0","0","51681","","430","","","75","28","","","1","28","training","adjacent","AB","1","2","P.jpg","O.jpg","1","1","1","",""
"","feedback","","html-keyboard-response","193","309599","0.0-1.0-258.0-0.0","0","0","51681","","null","","","null","28","","","","","","","","","","","","","","","",""
"","ITI","","html-keyboard-response","194","310603","0.0-1.0-261.0","0","0","51681","","null","","","null","28","","","","","","","","","","","","","","","NaN",""
"","S1","","html-keyboard-response","195","310756","0.0-1.0-263.0","0","0","51681","","null","","","null","29","","","","","","","","","","","","","","","",""
"","ISI","","html-keyboard-response","196","312760","0.0-1.0-264.0","0","0","51681","","null","","","null","29","NaN","","","","","","","","","","","","","","",""
"","S2","","html-keyboard-response","197","312913","0.0-1.0-265.0","0","0","51681","","null","","","null","29","","NaN","","","","","","","","","","","","","",""
"","response","","html-keyboard-response","198","313581","0.0-1.0-266.0-0.0","0","0","51681","","665","","","75","29","","","1","29","training","adjacent","CB","3","2","N.jpg","O.jpg","1","0","0","",""
"","feedback","","html-keyboard-response","199","314585","0.0-1.0-267.0-0.0","0","0","51681","","null","","","null","29","","","","","","","","","","","","","","","",""
"","time_out","","html-keyboard-response","200","316589","0.0-1.0-269.0-0.0","0","0","51681","","null","","","null","29","","","","","","","","","","","","","","","",""
"","ITI","","html-keyboard-response","201","317593","0.0-1.0-270.0","0","0","51681","","null","","","null","29","","","","","","","","","","","","","","","NaN",""
"","S1","","html-keyboard-response","202","317747","0.0-1.0-272.0","0","0","51681","","null","","","null","30","","","","","","","","","","","","","","","",""
"","ISI","","html-keyboard-response","203","319751","0.0-1.0-273.0","0","0","51681","","null","","","null","30","NaN","","","","","","","","","","","","","","",""
"","S2","","html-keyboard-response","204","319906","0.0-1.0-274.0","0","0","51681","","null","","","null","30","","NaN","","","","","","","","","","","","","",""
"","response","","html-keyboard-response","205","320693","0.0-1.0-275.0-0.0","0","0","51681","","785","","","68","30","","","1","30","training","adjacent","ED","5","4","M.jpg","Q.jpg","0","0","1","",""
"","feedback","","html-keyboard-response","206","321698","0.0-1.0-276.0-0.0","0","0","51681","","null","","","null","30","","","","","","","","","","","","","","","",""
"","ITI","","html-keyboard-response","207","322700","0.0-1.0-279.0","0","0","51681","","null","","","null","30","","","","","","","","","","","","","","","NaN",""
"","S1","","html-keyboard-response","208","322854","0.0-1.0-281.0","0","0","51681","","null","","","null","31","","","","","","","","","","","","","","","",""
"","ISI","","html-keyboard-response","209","324859","0.0-1.0-282.0","0","0","51681","","null","","","null","31","NaN","","","","","","","","","","","","","","",""
"","S2","","html-keyboard-response","210","325014","0.0-1.0-283.0","0","0","51681","","null","","","null","31","","NaN","","","","","","","","","","","","","",""
"","response","","html-keyboard-response","211","325967","0.0-1.0-284.0-0.0","0","0","51681","","950","","","68","31","","","1","31","training","adjacent","DC","4","3","Q.jpg","N.jpg","0","0","1","",""
"","feedback","","html-keyboard-response","212","326971","0.0-1.0-285.0-0.0","0","0","51681","","null","","","null","31","","","","","","","","","","","","","","","",""
"","ITI","","html-keyboard-response","213","327974","0.0-1.0-288.0","0","0","51681","","null","","","null","31","","","","","","","","","","","","","","","NaN",""
"","S1","","html-keyboard-response","214","328128","0.0-1.0-290.0","0","0","51681","","null","","","null","32","","","","","","","","","","","","","","","",""
"","ISI","","html-keyboard-response","215","330131","0.0-1.0-291.0","0","0","51681","","null","","","null","32","NaN","","","","","","","","","","","","","","",""
"","S2","","html-keyboard-response","216","330285","0.0-1.0-292.0","0","0","51681","","null","","","null","32","","NaN","","","","","","","","","","","","","",""
"","response","","html-keyboard-response","217","331101","0.0-1.0-293.0-0.0","0","0","51681","","813","","","68","32","","","1","32","training","adjacent","FG","6","7","L.jpg","R.jpg","0","1","0","",""
"","feedback","","html-keyboard-response","218","332104","0.0-1.0-294.0-0.0","0","0","51681","","null","","","null","32","","","","","","","","","","","","","","","",""
"","time_out","","html-keyboard-response","219","334109","0.0-1.0-296.0-0.0","0","0","51681","","null","","","null","32","","","","","","","","","","","","","","","",""
"","ITI","","html-keyboard-response","220","335112","0.0-1.0-297.0","0","0","51681","","null","","","null","32","","","","","","","","","","","","","","","NaN",""
"","S1","","html-keyboard-response","221","335266","0.0-1.0-299.0","0","0","51681","","null","","","null","33","","","","","","","","","","","","","","","",""
"","ISI","","html-keyboard-response","222","337269","0.0-1.0-300.0","0","0","51681","","null","","","null","33","NaN","","","","","","","","","","","","","","",""
"","S2","","html-keyboard-response","223","337423","0.0-1.0-301.0","0","0","51681","","null","","","null","33","","NaN","","","","","","","","","","","","","",""
"","response","","html-keyboard-response","224","338429","0.0-1.0-302.0-0.0","0","0","51681","","1004","","","68","33","","","1","33","training","adjacent","FE","6","5","L.jpg","M.jpg","0","0","1","",""
"","feedback","","html-keyboard-response","225","339433","0.0-1.0-303.0-0.0","0","0","51681","","null","","","null","33","","","","","","","","","","","","","","","",""
"","ITI","","html-keyboard-response","226","340436","0.0-1.0-306.0","0","0","51681","","null","","","null","33","","","","","","","","","","","","","","","NaN",""
"","S1","","html-keyboard-response","227","340590","0.0-1.0-308.0","0","0","51681","","null","","","null","34","","","","","","","","","","","","","","","",""
"","ISI","","html-keyboard-response","228","342595","0.0-1.0-309.0","0","0","51681","","null","","","null","34","NaN","","","","","","","","","","","","","","",""
"","S2","","html-keyboard-response","229","342751","0.0-1.0-310.0","0","0","51681","","null","","","null","34","","NaN","","","","","","","","","","","","","",""
"","response","","html-keyboard-response","230","343877","0.0-1.0-311.0-0.0","0","0","51681","","1123","","","75","34","","","1","34","training","adjacent","EF","5","6","M.jpg","L.jpg","1","1","1","",""
"","feedback","","html-keyboard-response","231","344882","0.0-1.0-312.0-0.0","0","0","51681","","null","","","null","34","","","","","","","","","","","","","","","",""
"","ITI","","html-keyboard-response","232","345885","0.0-1.0-315.0","0","0","51681","","null","","","null","34","","","","","","","","","","","","","","","NaN",""
"","S1","","html-keyboard-response","233","346039","0.0-1.0-317.0","0","0","51681","","null","","","null","35","","","","","","","","","","","","","","","",""
"","ISI","","html-keyboard-response","234","348041","0.0-1.0-318.0","0","0","51681","","null","","","null","35","NaN","","","","","","","","","","","","","","",""
"","S2","","html-keyboard-response","235","348194","0.0-1.0-319.0","0","0","51681","","null","","","null","35","","NaN","","","","","","","","","","","","","",""
"","response","","html-keyboard-response","236","348542","0.0-1.0-320.0-0.0","0","0","51681","","345","","","75","35","","","1","35","training","adjacent","GF","7","6","R.jpg","L.jpg","1","0","0","",""
"","feedback","","html-keyboard-response","237","349546","0.0-1.0-321.0-0.0","0","0","51681","","null","","","null","35","","","","","","","","","","","","","","","",""
"","time_out","","html-keyboard-response","238","351550","0.0-1.0-323.0-0.0","0","0","51681","","null","","","null","35","","","","","","","","","","","","","","","",""
"","ITI","","html-keyboard-response","239","352554","0.0-1.0-324.0","0","0","51681","","null","","","null","35","","","","","","","","","","","","","","","NaN",""
"","S1","","html-keyboard-response","240","352708","0.0-1.0-326.0","0","0","51681","","null","","","null","36","","","","","","","","","","","","","","","",""
"","ISI","","html-keyboard-response","241","354710","0.0-1.0-327.0","0","0","51681","","null","","","null","36","NaN","","","","","","","","","","","","","","",""
"","S2","","html-keyboard-response","242","354863","0.0-1.0-328.0","0","0","51681","","null","","","null","36","","NaN","","","","","","","","","","","","","",""
"","response","","html-keyboard-response","243","355868","0.0-1.0-329.0-0.0","0","0","51681","","1003","","","68","36","","","1","36","training","adjacent","BC","2","3","O.jpg","N.jpg","0","1","0","",""
"","feedback","","html-keyboard-response","244","356873","0.0-1.0-330.0-0.0","0","0","51681","","null","","","null","36","","","","","","","","","","","","","","","",""
"","time_out","","html-keyboard-response","245","358876","0.0-1.0-332.0-0.0","0","0","51681","","null","","","null","36","","","","","","","","","","","","","","","",""
"","ITI","","html-keyboard-response","246","359879","0.0-1.0-333.0","0","0","51681","","null","","","null","36","","","","","","","","","","","","","","","NaN",""
"","S1","","html-keyboard-response","247","360035","0.0-1.0-335.0","0","0","51681","","null","","","null","37","","","","","","","","","","","","","","","",""
"","ISI","","html-keyboard-response","248","362050","0.0-1.0-336.0","0","0","51681","","null","","","null","37","NaN","","","","","","","","","","","","","","",""
"","S2","","html-keyboard-response","249","362204","0.0-1.0-337.0","0","0","51681","","null","","","null","37","","NaN","","","","","","","","","","","","","",""
"","response","","html-keyboard-response","250","362940","0.0-1.0-338.0-0.0","0","0","51681","","735","","","68","37","","","1","37","training","adjacent","BA","2","1","O.jpg","P.jpg","0","0","1","",""
"","feedback","","html-keyboard-response","251","363944","0.0-1.0-339.0-0.0","0","0","51681","","null","","","null","37","","","","","","","","","","","","","","","",""
"","ITI","","html-keyboard-response","252","364949","0.0-1.0-342.0","0","0","51681","","null","","","null","37","","","","","","","","","","","","","","","NaN",""
"","S1","","html-keyboard-response","253","365102","0.0-1.0-344.0","0","0","51681","","null","","","null","38","","","","","","","","","","","","","","","",""
"","ISI","","html-keyboard-response","254","367105","0.0-1.0-345.0","0","0","51681","","null","","","null","38","NaN","","","","","","","","","","","","","","",""
"","S2","","html-keyboard-response","255","367261","0.0-1.0-346.0","0","0","51681","","null","","","null","38","","NaN","","","","","","","","","","","","","",""
"","response","","html-keyboard-response","256","368044","0.0-1.0-347.0-0.0","0","0","51681","","781","","","75","38","","","1","38","training","adjacent","DE","4","5","Q.jpg","M.jpg","1","1","1","",""
"","feedback","","html-keyboard-response","257","369048","0.0-1.0-348.0-0.0","0","0","51681","","null","","","null","38","","","","","","","","","","","","","","","",""
"","ITI","","html-keyboard-response","258","370052","0.0-1.0-351.0","0","0","51681","","null","","","null","38","","","","","","","","","","","","","","","NaN",""
"","S1","","html-keyboard-response","259","370205","0.0-1.0-353.0","0","0","51681","","null","","","null","39","","","","","","","","","","","","","","","",""
"","ISI","","html-keyboard-response","260","372208","0.0-1.0-354.0","0","0","51681","","null","","","null","39","NaN","","","","","","","","","","","","","","",""
"","S2","","html-keyboard-response","261","372362","0.0-1.0-355.0","0","0","51681","","null","","","null","39","","NaN","","","","","","","","","","","","","",""
"","response","","html-keyboard-response","262","373333","0.0-1.0-356.0-0.0","0","0","51681","","969","","","68","39","","","1","39","training","adjacent","GF","7","6","R.jpg","L.jpg","0","0","1","",""
"","feedback","","html-keyboard-response","263","374338","0.0-1.0-357.0-0.0","0","0","51681","","null","","","null","39","","","","","","","","","","","","","","","",""
"","ITI","","html-keyboard-response","264","375341","0.0-1.0-360.0","0","0","51681","","null","","","null","39","","","","","","","","","","","","","","","NaN",""
"","S1","","html-keyboard-response","265","375494","0.0-1.0-362.0","0","0","51681","","null","","","null","40","","","","","","","","","","","","","","","",""
"","ISI","","html-keyboard-response","266","377497","0.0-1.0-363.0","0","0","51681","","null","","","null","40","NaN","","","","","","","","","","","","","","",""
"","S2","","html-keyboard-response","267","377651","0.0-1.0-364.0","0","0","51681","","null","","","null","40","","NaN","","","","","","","","","","","","","",""
"","response","","html-keyboard-response","268","378309","0.0-1.0-365.0-0.0","0","0","51681","","656","","","75","40","","","1","40","training","adjacent","FG","6","7","L.jpg","R.jpg","1","1","1","",""
"","feedback","","html-keyboard-response","269","379312","0.0-1.0-366.0-0.0","0","0","51681","","null","","","null","40","","","","","","","","","","","","","","","",""
"","ITI","","html-keyboard-response","270","380314","0.0-1.0-369.0","0","0","51681","","null","","","null","40","","","","","","","","","","","","","","","NaN",""
"","S1","","html-keyboard-response","271","380467","0.0-1.0-371.0","0","0","51681","","null","","","null","41","","","","","","","","","","","","","","","",""
"","ISI","","html-keyboard-response","272","382469","0.0-1.0-372.0","0","0","51681","","null","","","null","41","NaN","","","","","","","","","","","","","","",""
"","S2","","html-keyboard-response","273","382622","0.0-1.0-373.0","0","0","51681","","null","","","null","41","","NaN","","","","","","","","","","","","","",""
"","response","","html-keyboard-response","274","382964","0.0-1.0-374.0-0.0","0","0","51681","","339","","","68","41","","","1","41","training","adjacent","BA","2","1","O.jpg","P.jpg","0","0","1","",""
"","feedback","","html-keyboard-response","275","383969","0.0-1.0-375.0-0.0","0","0","51681","","null","","","null","41","","","","","","","","","","","","","","","",""
"","ITI","","html-keyboard-response","276","384973","0.0-1.0-378.0","0","0","51681","","null","","","null","41","","","","","","","","","","","","","","","NaN",""
"","S1","","html-keyboard-response","277","385126","0.0-1.0-380.0","0","0","51681","","null","","","null","42","","","","","","","","","","","","","","","",""
"","ISI","","html-keyboard-response","278","387129","0.0-1.0-381.0","0","0","51681","","null","","","null","42","NaN","","","","","","","","","","","","","","",""
"","S2","","html-keyboard-response","279","387284","0.0-1.0-382.0","0","0","51681","","null","","","null","42","","NaN","","","","","","","","","","","","","",""
"","response","","html-keyboard-response","280","388021","0.0-1.0-383.0-0.0","0","0","51681","","735","","","75","42","","","1","42","training","adjacent","FG","6","7","L.jpg","R.jpg","1","1","1","",""
"","feedback","","html-keyboard-response","281","389024","0.0-1.0-384.0-0.0","0","0","51681","","null","","","null","42","","","","","","","","","","","","","","","",""
"","ITI","","html-keyboard-response","282","390029","0.0-1.0-387.0","0","0","51681","","null","","","null","42","","","","","","","","","","","","","","","NaN",""
"","S1","","html-keyboard-response","283","390183","0.0-1.0-389.0","0","0","51681","","null","","","null","43","","","","","","","","","","","","","","","",""
"","ISI","","html-keyboard-response","284","392187","0.0-1.0-390.0","0","0","51681","","null","","","null","43","NaN","","","","","","","","","","","","","","",""
"","S2","","html-keyboard-response","285","392340","0.0-1.0-391.0","0","0","51681","","null","","","null","43","","NaN","","","","","","","","","","","","","",""
"","response","","html-keyboard-response","286","393148","0.0-1.0-392.0-0.0","0","0","51681","","806","","","68","43","","","1","43","training","adjacent","BC","2","3","O.jpg","N.jpg","0","1","0","",""
"","feedback","","html-keyboard-response","287","394153","0.0-1.0-393.0-0.0","0","0","51681","","null","","","null","43","","","","","","","","","","","","","","","",""
"","time_out","","html-keyboard-response","288","396157","0.0-1.0-395.0-0.0","0","0","51681","","null","","","null","43","","","","","","","","","","","","","","","",""
"","ITI","","html-keyboard-response","289","397161","0.0-1.0-396.0","0","0","51681","","null","","","null","43","","","","","","","","","","","","","","","NaN",""
"","S1","","html-keyboard-response","290","397314","0.0-1.0-398.0","0","0","51681","","null","","","null","44","","","","","","","","","","","","","","","",""
"","ISI","","html-keyboard-response","291","399317","0.0-1.0-399.0","0","0","51681","","null","","","null","44","NaN","","","","","","","","","","","","","","",""
"","S2","","html-keyboard-response","292","399471","0.0-1.0-400.0","0","0","51681","","null","","","null","44","","NaN","","","","","","","","","","","","","",""
"","response","","html-keyboard-response","293","399845","0.0-1.0-401.0-0.0","0","0","51681","","371","","","68","44","","","1","44","training","adjacent","BC","2","3","O.jpg","N.jpg","0","1","0","",""
"","feedback","","html-keyboard-response","294","400848","0.0-1.0-402.0-0.0","0","0","51681","","null","","","null","44","","","","","","","","","","","","","","","",""
"","time_out","","html-keyboard-response","295","402852","0.0-1.0-404.0-0.0","0","0","51681","","null","","","null","44","","","","","","","","","","","","","","","",""
"","ITI","","html-keyboard-response","296","403854","0.0-1.0-405.0","0","0","51681","","null","","","null","44","","","","","","","","","","","","","","","NaN",""
"","S1","","html-keyboard-response","297","404008","0.0-1.0-407.0","0","0","51681","","null","","","null","45","","","","","","","","","","","","","","","",""
"","ISI","","html-keyboard-response","298","406016","0.0-1.0-408.0","0","0","51681","","null","","","null","45","NaN","","","","","","","","","","","","","","",""
"","S2","","html-keyboard-response","299","406172","0.0-1.0-409.0","0","0","51681","","null","","","null","45","","NaN","","","","","","","","","","","","","",""
"","response","","html-keyboard-response","300","406885","0.0-1.0-410.0-0.0","0","0","51681","","710","","","68","45","","","1","45","training","adjacent","CD","3","4","N.jpg","Q.jpg","0","1","0","",""
"","feedback","","html-keyboard-response","301","407889","0.0-1.0-411.0-0.0","0","0","51681","","null","","","null","45","","","","","","","","","","","","","","","",""
"","time_out","","html-keyboard-response","302","409893","0.0-1.0-413.0-0.0","0","0","51681","","null","","","null","45","","","","","","","","","","","","","","","",""
"","ITI","","html-keyboard-response","303","410896","0.0-1.0-414.0","0","0","51681","","null","","","null","45","","","","","","","","","","","","","","","NaN",""
"","S1","","html-keyboard-response","304","411049","0.0-1.0-416.0","0","0","51681","","null","","","null","46","","","","","","","","","","","","","","","",""
"","ISI","","html-keyboard-response","305","413052","0.0-1.0-417.0","0","0","51681","","null","","","null","46","NaN","","","","","","","","","","","","","","",""
"","S2","","html-keyboard-response","306","413205","0.0-1.0-418.0","0","0","51681","","null","","","null","46","","NaN","","","","","","","","","","","","","",""
"","response","","html-keyboard-response","307","413445","0.0-1.0-419.0-0.0","0","0","51681","","237","","","75","46","","","1","46","training","adjacent","AB","1","2","P.jpg","O.jpg","1","1","1","",""
"","feedback","","html-keyboard-response","308","414450","0.0-1.0-420.0-0.0","0","0","51681","","null","","","null","46","","","","","","","","","","","","","","","",""
"","ITI","","html-keyboard-response","309","415452","0.0-1.0-423.0","0","0","51681","","null","","","null","46","","","","","","","","","","","","","","","NaN",""
"","S1","","html-keyboard-response","310","415606","0.0-1.0-425.0","0","0","51681","","null","","","null","47","","","","","","","","","","","","","","","",""
"","ISI","","html-keyboard-response","311","417610","0.0-1.0-426.0","0","0","51681","","null","","","null","47","NaN","","","","","","","","","","","","","","",""
"","S2","","html-keyboard-response","312","417764","0.0-1.0-427.0","0","0","51681","","null","","","null","47","","NaN","","","","","","","","","","","","","",""
"","response","","html-keyboard-response","313","418645","0.0-1.0-428.0-0.0","0","0","51681","","878","","","75","47","","","1","47","training","adjacent","CD","3","4","N.jpg","Q.jpg","1","1","1","",""
"","feedback","","html-keyboard-response","314","419648","0.0-1.0-429.0-0.0","0","0","51681","","null","","","null","47","","","","","","","","","","","","","","","",""
"","ITI","","html-keyboard-response","315","420652","0.0-1.0-432.0","0","0","51681","","null","","","null","47","","","","","","","","","","","","","","","NaN",""
"","block_over","","html-keyboard-response","316","432884","0.0-1.0-433.0-0.0","0","0","51681","","12230","","","32","47","","","","","","","","","","","","","","","",""
"","S1","","html-keyboard-response","317","433039","0.0-1.0-434.0","0","0","51681","","null","","","null","48","","","","","","","","","","","","","","","",""
"","ISI","","html-keyboard-response","318","435043","0.0-1.0-435.0","0","0","51681","","null","","","null","48","NaN","","","","","","","","","","","","","","",""
"","S2","","html-keyboard-response","319","435197","0.0-1.0-436.0","0","0","51681","","null","","","null","48","","NaN","","","","","","","","","","","","","",""
"","response","","html-keyboard-response","320","435797","0.0-1.0-437.0-0.0","0","0","51681","","598","","","75","48","","","2","48","training","adjacent","FE","6","5","L.jpg","M.jpg","1","0","0","",""
"","feedback","","html-keyboard-response","321","436802","0.0-1.0-438.0-0.0","0","0","51681","","null","","","null","48","","","","","","","","","","","","","","","",""
"","time_out","","html-keyboard-response","322","438807","0.0-1.0-440.0-0.0","0","0","51681","","null","","","null","48","","","","","","","","","","","","","","","",""
"","ITI","","html-keyboard-response","323","439811","0.0-1.0-441.0","0","0","51681","","null","","","null","48","","","","","","","","","","","","","","","NaN",""
"","S1","","html-keyboard-response","324","439965","0.0-1.0-443.0","0","0","51681","","null","","","null","49","","","","","","","","","","","","","","","",""
"","ISI","","html-keyboard-response","325","441968","0.0-1.0-444.0","0","0","51681","","null","","","null","49","NaN","","","","","","","","","","","","","","",""
"","S2","","html-keyboard-response","326","442121","0.0-1.0-445.0","0","0","51681","","null","","","null","49","","NaN","","","","","","","","","","","","","",""
"","response","","html-keyboard-response","327","442933","0.0-1.0-446.0-0.0","0","0","51681","","809","","","75","49","","","2","49","training","adjacent","FG","6","7","L.jpg","R.jpg","1","1","1","",""
"","feedback","","html-keyboard-response","328","443936","0.0-1.0-447.0-0.0","0","0","51681","","null","","","null","49","","","","","","","","","","","","","","","",""
"","ITI","","html-keyboard-response","329","444939","0.0-1.0-450.0","0","0","51681","","null","","","null","49","","","","","","","","","","","","","","","NaN",""
"","S1","","html-keyboard-response","330","445094","0.0-1.0-452.0","0","0","51681","","null","","","null","50","","","","","","","","","","","","","","","",""
"","ISI","","html-keyboard-response","331","447098","0.0-1.0-453.0","0","0","51681","","null","","","null","50","NaN","","","","","","","","","","","","","","",""
"","S2","","html-keyboard-response","332","447253","0.0-1.0-454.0","0","0","51681","","null","","","null","50","","NaN","","","","","","","","","","","","","",""
"","response","","html-keyboard-response","333","447990","0.0-1.0-455.0-0.0","0","0","51681","","733","","","68","50","","","2","50","training","adjacent","DC","4","3","Q.jpg","N.jpg","0","0","1","",""
"","feedback","","html-keyboard-response","334","448994","0.0-1.0-456.0-0.0","0","0","51681","","null","","","null","50","","","","","","","","","","","","","","","",""
"","ITI","","html-keyboard-response","335","449997","0.0-1.0-459.0","0","0","51681","","null","","","null","50","","","","","","","","","","","","","","","NaN",""
"","S1","","html-keyboard-response","336","450152","0.0-1.0-461.0","0","0","51681","","null","","","null","51","","","","","","","","","","","","","","","",""
"","ISI","","html-keyboard-response","337","452157","0.0-1.0-462.0","0","0","51681","","null","","","null","51","NaN","","","","","","","","","","","","","","",""
"","S2","","html-keyboard-response","338","452311","0.0-1.0-463.0","0","0","51681","","null","","","null","51","","NaN","","","","","","","","","","","","","",""
"","response","","html-keyboard-response","339","453006","0.0-1.0-464.0-0.0","0","0","51681","","691","","","68","51","","","2","51","training","adjacent","ED","5","4","M.jpg","Q.jpg","0","0","1","",""
"","feedback","","html-keyboard-response","340","454010","0.0-1.0-465.0-0.0","0","0","51681","","null","","","null","51","","","","","","","","","","","","","","","",""
"","ITI","","html-keyboard-response","341","455013","0.0-1.0-468.0","0","0","51681","","null","","","null","51","","","","","","","","","","","","","","","NaN",""
"","S1","","html-keyboard-response","342","455168","0.0-1.0-470.0","0","0","51681","","null","","","null","52","","","","","","","","","","","","","","","",""
"","ISI","","html-keyboard-response","343","457171","0.0-1.0-471.0","0","0","51681","","null","","","null","52","NaN","","","","","","","","","","","","","","",""
"","S2","","html-keyboard-response","344","457325","0.0-1.0-472.0","0","0","51681","","null","","","null","52","","NaN","","","","","","","","","","","","","",""
"","response","","html-keyboard-response","345","458124","0.0-1.0-473.0-0.0","0","0","51681","","796","","","68","52","","","2","52","training","adjacent","CB","3","2","N.jpg","O.jpg","0","0","1","",""
"","feedback","","html-keyboard-response","346","459128","0.0-1.0-474.0-0.0","0","0","51681","","null","","","null","52","","","","","","","","","","","","","","","",""
"","ITI","","html-keyboard-response","347","460132","0.0-1.0-477.0","0","0","51681","","null","","","null","52","","","","","","","","","","","","","","","NaN",""
"","S1","","html-keyboard-response","348","460287","0.0-1.0-479.0","0","0","51681","","null","","","null","53","","","","","","","","","","","","","","","",""
"","ISI","","html-keyboard-response","349","462290","0.0-1.0-480.0","0","0","51681","","null","","","null","53","NaN","","","","","","","","","","","","","","",""
"","S2","","html-keyboard-response","350","462444","0.0-1.0-481.0","0","0","51681","","null","","","null","53","","NaN","","","","","","","","","","","","","",""
"","response","","html-keyboard-response","351","463037","0.0-1.0-482.0-0.0","0","0","51681","","590","","","75","53","","","2","53","training","adjacent","DE","4","5","Q.jpg","M.jpg","1","1","1","",""
"","feedback","","html-keyboard-response","352","464041","0.0-1.0-483.0-0.0","0","0","51681","","null","","","null","53","","","","","","","","","","","","","","","",""
"","ITI","","html-keyboard-response","353","465049","0.0-1.0-486.0","0","0","51681","","null","","","null","53","","","","","","","","","","","","","","","NaN",""
"","S1","","html-keyboard-response","354","465207","0.0-1.0-488.0","0","0","51681","","null","","","null","54","","","","","","","","","","","","","","","",""
"","ISI","","html-keyboard-response","355","467209","0.0-1.0-489.0","0","0","51681","","null","","","null","54","NaN","","","","","","","","","","","","","","",""
"","S2","","html-keyboard-response","356","467362","0.0-1.0-490.0","0","0","51681","","null","","","null","54","","NaN","","","","","","","","","","","","","",""
"","response","","html-keyboard-response","357","468037","0.0-1.0-491.0-0.0","0","0","51681","","672","","","75","54","","","2","54","training","adjacent","BC","2","3","O.jpg","N.jpg","1","1","1","",""
"","feedback","","html-keyboard-response","358","469041","0.0-1.0-492.0-0.0","0","0","51681","","null","","","null","54","","","","","","","","","","","","","","","",""
"","ITI","","html-keyboard-response","359","470045","0.0-1.0-495.0","0","0","51681","","null","","","null","54","","","","","","","","","","","","","","","NaN",""
"","S1","","html-keyboard-response","360","470201","0.0-1.0-497.0","0","0","51681","","null","","","null","55","","","","","","","","","","","","","","","",""
"","ISI","","html-keyboard-response","361","472205","0.0-1.0-498.0","0","0","51681","","null","","","null","55","NaN","","","","","","","","","","","","","","",""
"","S2","","html-keyboard-response","362","472359","0.0-1.0-499.0","0","0","51681","","null","","","null","55","","NaN","","","","","","","","","","","","","",""
"","response","","html-keyboard-response","363","473173","0.0-1.0-500.0-0.0","0","0","51681","","811","","","75","55","","","2","55","training","adjacent","FG","6","7","L.jpg","R.jpg","1","1","1","",""
"","feedback","","html-keyboard-response","364","474178","0.0-1.0-501.0-0.0","0","0","51681","","null","","","null","55","","","","","","","","","","","","","","","",""
"","ITI","","html-keyboard-response","365","475182","0.0-1.0-504.0","0","0","51681","","null","","","null","55","","","","","","","","","","","","","","","NaN",""
"","S1","","html-keyboard-response","366","475336","0.0-1.0-506.0","0","0","51681","","null","","","null","56","","","","","","","","","","","","","","","",""
"","ISI","","html-keyboard-response","367","477339","0.0-1.0-507.0","0","0","51681","","null","","","null","56","NaN","","","","","","","","","","","","","","",""
"","S2","","html-keyboard-response","368","477493","0.0-1.0-508.0","0","0","51681","","null","","","null","56","","NaN","","","","","","","","","","","","","",""
"","response","","html-keyboard-response","369","478620","0.0-1.0-509.0-0.0","0","0","51681","","1125","","","75","56","","","2","56","training","adjacent","GF","7","6","R.jpg","L.jpg","1","0","0","",""
"","feedback","","html-keyboard-response","370","479624","0.0-1.0-510.0-0.0","0","0","51681","","null","","","null","56","","","","","","","","","","","","","","","",""
"","time_out","","html-keyboard-response","371","481627","0.0-1.0-512.0-0.0","0","0","51681","","null","","","null","56","","","","","","","","","","","","","","","",""
"","ITI","","html-keyboard-response","372","482630","0.0-1.0-513.0","0","0","51681","","null","","","null","56","","","","","","","","","","","","","","","NaN",""
"","S1","","html-keyboard-response","373","482783","0.0-1.0-515.0","0","0","51681","","null","","","null","57","","","","","","","","","","","","","","","",""
"","ISI","","html-keyboard-response","374","484787","0.0-1.0-516.0","0","0","51681","","null","","","null","57","NaN","","","","","","","","","","","","","","",""
"","S2","","html-keyboard-response","375","484940","0.0-1.0-517.0","0","0","51681","","null","","","null","57","","NaN","","","","","","","","","","","","","",""
"","response","","html-keyboard-response","376","485814","0.0-1.0-518.0-0.0","0","0","51681","","870","","","68","57","","","2","57","training","adjacent","EF","5","6","M.jpg","L.jpg","0","1","0","",""
"","feedback","","html-keyboard-response","377","486818","0.0-1.0-519.0-0.0","0","0","51681","","null","","","null","57","","","","","","","","","","","","","","","",""
"","time_out","","html-keyboard-response","378","488823","0.0-1.0-521.0-0.0","0","0","51681","","null","","","null","57","","","","","","","","","","","","","","","",""
"","ITI","","html-keyboard-response","379","489825","0.0-1.0-522.0","0","0","51681","","null","","","null","57","","","","","","","","","","","","","","","NaN",""
"","S1","","html-keyboard-response","380","489979","0.0-1.0-524.0","0","0","51681","","null","","","null","58","","","","","","","","","","","","","","","",""
"","ISI","","html-keyboard-response","381","491982","0.0-1.0-525.0","0","0","51681","","null","","","null","58","NaN","","","","","","","","","","","","","","",""
"","S2","","html-keyboard-response","382","492137","0.0-1.0-526.0","0","0","51681","","null","","","null","58","","NaN","","","","","","","","","","","","","",""
"","response","","html-keyboard-response","383","492877","0.0-1.0-527.0-0.0","0","0","51681","","738","","","68","58","","","2","58","training","adjacent","DC","4","3","Q.jpg","N.jpg","0","0","1","",""
"","feedback","","html-keyboard-response","384","493882","0.0-1.0-528.0-0.0","0","0","51681","","null","","","null","58","","","","","","","","","","","","","","","",""
"","ITI","","html-keyboard-response","385","494886","0.0-1.0-531.0","0","0","51681","","null","","","null","58","","","","","","","","","","","","","","","NaN",""
"","S1","","html-keyboard-response","386","495041","0.0-1.0-533.0","0","0","51681","","null","","","null","59","","","","","","","","","","","","","","","",""
"","ISI","","html-keyboard-response","387","497044","0.0-1.0-534.0","0","0","51681","","null","","","null","59","NaN","","","","","","","","","","","","","","",""
"","S2","","html-keyboard-response","388","497198","0.0-1.0-535.0","0","0","51681","","null","","","null","59","","NaN","","","","","","","","","","","","","",""
"","response","","html-keyboard-response","389","497503","0.0-1.0-536.0-0.0","0","0","51681","","303","","","68","59","","","2","59","training","adjacent","CD","3","4","N.jpg","Q.jpg","0","1","0","",""
"","feedback","","html-keyboard-response","390","498509","0.0-1.0-537.0-0.0","0","0","51681","","null","","","null","59","","","","","","","","","","","","","","","",""
"","time_out","","html-keyboard-response","391","500513","0.0-1.0-539.0-0.0","0","0","51681","","null","","","null","59","","","","","","","","","","","","","","","",""
"","ITI","","html-keyboard-response","392","501516","0.0-1.0-540.0","0","0","51681","","null","","","null","59","","","","","","","","","","","","","","","NaN",""
"","S1","","html-keyboard-response","393","501671","0.0-1.0-542.0","0","0","51681","","null","","","null","60","","","","","","","","","","","","","","","",""
"","ISI","","html-keyboard-response","394","503673","0.0-1.0-543.0","0","0","51681","","null","","","null","60","NaN","","","","","","","","","","","","","","",""
"","S2","","html-keyboard-response","395","503827","0.0-1.0-544.0","0","0","51681","","null","","","null","60","","NaN","","","","","","","","","","","","","",""
"","response","","html-keyboard-response","396","505053","0.0-1.0-545.0-0.0","0","0","51681","","1223","","","75","60","","","2","60","training","adjacent","BC","2","3","O.jpg","N.jpg","1","1","1","",""
"","feedback","","html-keyboard-response","397","506057","0.0-1.0-546.0-0.0","0","0","51681","","null","","","null","60","","","","","","","","","","","","","","","",""
"","ITI","","html-keyboard-response","398","507062","0.0-1.0-549.0","0","0","51681","","null","","","null","60","","","","","","","","","","","","","","","NaN",""
"","S1","","html-keyboard-response","399","507215","0.0-1.0-551.0","0","0","51681","","null","","","null","61","","","","","","","","","","","","","","","",""
"","ISI","","html-keyboard-response","400","509219","0.0-1.0-552.0","0","0","51681","","null","","","null","61","NaN","","","","","","","","","","","","","","",""
"","S2","","html-keyboard-response","401","509373","0.0-1.0-553.0","0","0","51681","","null","","","null","61","","NaN","","","","","","","","","","","","","",""
"","response","","html-keyboard-response","402","509685","0.0-1.0-554.0-0.0","0","0","51681","","309","","","75","61","","","2","61","training","adjacent","AB","1","2","P.jpg","O.jpg","1","1","1","",""
"","feedback","","html-keyboard-response","403","510690","0.0-1.0-555.0-0.0","0","0","51681","","null","","","null","61","","","","","","","","","","","","","","","",""
"","ITI","","html-keyboard-response","404","511694","0.0-1.0-558.0","0","0","51681","","null","","","null","61","","","","","","","","","","","","","","","NaN",""
"","S1","","html-keyboard-response","405","511849","0.0-1.0-560.0","0","0","51681","","null","","","null","62","","","","","","","","","","","","","","","",""
"","ISI","","html-keyboard-response","406","513853","0.0-1.0-561.0","0","0","51681","","null","","","null","62","NaN","","","","","","","","","","","","","","",""
"","S2","","html-keyboard-response","407","514007","0.0-1.0-562.0","0","0","51681","","null","","","null","62","","NaN","","","","","","","","","","","","","",""
"","response","","html-keyboard-response","408","514677","0.0-1.0-563.0-0.0","0","0","51681","","667","","","68","62","","","2","62","training","adjacent","BC","2","3","O.jpg","N.jpg","0","1","0","",""
"","feedback","","html-keyboard-response","409","515681","0.0-1.0-564.0-0.0","0","0","51681","","null","","","null","62","","","","","","","","","","","","","","","",""
"","time_out","","html-keyboard-response","410","517684","0.0-1.0-566.0-0.0","0","0","51681","","null","","","null","62","","","","","","","","","","","","","","","",""
"","ITI","","html-keyboard-response","411","518703","0.0-1.0-567.0","0","0","51681","","null","","","null","62","","","","","","","","","","","","","","","NaN",""
"","S1","","html-keyboard-response","412","518857","0.0-1.0-569.0","0","0","51681","","null","","","null","63","","","","","","","","","","","","","","","",""
"","ISI","","html-keyboard-response","413","520861","0.0-1.0-570.0","0","0","51681","","null","","","null","63","NaN","","","","","","","","","","","","","","",""
"","S2","","html-keyboard-response","414","521015","0.0-1.0-571.0","0","0","51681","","null","","","null","63","","NaN","","","","","","","","","","","","","",""
"","response","","html-keyboard-response","415","521565","0.0-1.0-572.0-0.0","0","0","51681","","547","","","68","63","","","2","63","training","adjacent","ED","5","4","M.jpg","Q.jpg","0","0","1","",""
"","feedback","","html-keyboard-response","416","522568","0.0-1.0-573.0-0.0","0","0","51681","","null","","","null","63","","","","","","","","","","","","","","","",""
"","ITI","","html-keyboard-response","417","523570","0.0-1.0-576.0","0","0","51681","","null","","","null","63","","","","","","","","","","","","","","","NaN",""
"","S1","","html-keyboard-response","418","523725","0.0-1.0-578.0","0","0","51681","","null","","","null","64","","","","","","","","","","","","","","","",""
"","ISI","","html-keyboard-response","419","525727","0.0-1.0-579.0","0","0","51681","","null","","","null","64","NaN","","","","","","","","","","","","","","",""
"","S2","","html-keyboard-response","420","525881","0.0-1.0-580.0","0","0","51681","","null","","","null","64","","NaN","","","","","","","","","","","","","",""
"","response","","html-keyboard-response","421","526613","0.0-1.0-581.0-0.0","0","0","51681","","729","","","68","64","","","2","64","training","adjacent","BA","2","1","O.jpg","P.jpg","0","0","1","",""
"","feedback","","html-keyboard-response","422","527618","0.0-1.0-582.0-0.0","0","0","51681","","null","","","null","64","","","","","","","","","","","","","","","",""
"","ITI","","html-keyboard-response","423","528620","0.0-1.0-585.0","0","0","51681","","null","","","null","64","","","","","","","","","","","","","","","NaN",""
"","S1","","html-keyboard-response","424","528774","0.0-1.0-587.0","0","0","51681","","null","","","null","65","","","","","","","","","","","","","","","",""
"","ISI","","html-keyboard-response","425","530777","0.0-1.0-588.0","0","0","51681","","1165","","","75","65","k","","","","","","","","","","","","","","",""
"","S2","","html-keyboard-response","426","530932","0.0-1.0-589.0","0","0","51681","","null","","","null","65","","NaN","","","","","","","","","","","","","",""
"","response","","html-keyboard-response","427","531062","0.0-1.0-590.0-0.0","0","0","51681","","127","","","75","65","","","2","65","training","adjacent","CB","3","2","N.jpg","O.jpg","1","0","0","",""
"","feedback","","html-keyboard-response","428","532066","0.0-1.0-591.0-0.0","0","0","51681","","null","","","null","65","","","","","","","","","","","","","","","",""
"","time_out","","html-keyboard-response","429","534070","0.0-1.0-593.0-0.0","0","0","51681","","null","","","null","65","","","","","","","","","","","","","","","",""
"","ITI","","html-keyboard-response","430","535073","0.0-1.0-594.0","0","0","51681","","null","","","null","65","","","","","","","","","","","","","","","NaN",""
"","S1","","html-keyboard-response","431","535226","0.0-1.0-596.0","0","0","51681","","null","","","null","66","","","","","","","","","","","","","","","",""
"","ISI","","html-keyboard-response","432","537230","0.0-1.0-597.0","0","0","51681","","null","","","null","66","NaN","","","","","","","","","","","","","","",""
"","S2","","html-keyboard-response","433","537384","0.0-1.0-598.0","0","0","51681","","null","","","null","66","","NaN","","","","","","","","","","","","","",""
"","response","","html-keyboard-response","434","538037","0.0-1.0-599.0-0.0","0","0","51681","","650","","","68","66","","","2","66","training","adjacent","DE","4","5","Q.jpg","M.jpg","0","1","0","",""
"","feedback","","html-keyboard-response","435","539041","0.0-1.0-600.0-0.0","0","0","51681","","null","","","null","66","","","","","","","","","","","","","","","",""
"","time_out","","html-keyboard-response","436","541046","0.0-1.0-602.0-0.0","0","0","51681","","null","","","null","66","","","","","","","","","","","","","","","",""
"","ITI","","html-keyboard-response","437","542050","0.0-1.0-603.0","0","0","51681","","null","","","null","66","","","","","","","","","","","","","","","NaN",""
"","S1","","html-keyboard-response","438","542204","0.0-1.0-605.0","0","0","51681","","null","","","null","67","","","","","","","","","","","","","","","",""
"","ISI","","html-keyboard-response","439","544209","0.0-1.0-606.0","0","0","51681","","null","","","null","67","NaN","","","","","","","","","","","","","","",""
"","S2","","html-keyboard-response","440","544364","0.0-1.0-607.0","0","0","51681","","null","","","null","67","","NaN","","","","","","","","","","","","","",""
"","response","","html-keyboard-response","441","545079","0.0-1.0-608.0-0.0","0","0","51681","","710","","","68","67","","","2","67","training","adjacent","CB","3","2","N.jpg","O.jpg","0","0","1","",""
"","feedback","","html-keyboard-response","442","546083","0.0-1.0-609.0-0.0","0","0","51681","","null","","","null","67","","","","","","","","","","","","","","","",""
"","ITI","","html-keyboard-response","443","547087","0.0-1.0-612.0","0","0","51681","","null","","","null","67","","","","","","","","","","","","","","","NaN",""
"","S1","","html-keyboard-response","444","547240","0.0-1.0-614.0","0","0","51681","","null","","","null","68","","","","","","","","","","","","","","","",""
"","ISI","","html-keyboard-response","445","549242","0.0-1.0-615.0","0","0","51681","","null","","","null","68","NaN","","","","","","","","","","","","","","",""
"","S2","","html-keyboard-response","446","549397","0.0-1.0-616.0","0","0","51681","","null","","","null","68","","NaN","","","","","","","","","","","","","",""
"","response","","html-keyboard-response","447","550565","0.0-1.0-617.0-0.0","0","0","51681","","1165","","","75","68","","","2","68","training","adjacent","GF","7","6","R.jpg","L.jpg","1","0","0","",""
"","feedback","","html-keyboard-response","448","551569","0.0-1.0-618.0-0.0","0","0","51681","","null","","","null","68","","","","","","","","","","","","","","","",""
"","time_out","","html-keyboard-response","449","553572","0.0-1.0-620.0-0.0","0","0","51681","","null","","","null","68","","","","","","","","","","","","","","","",""
"","ITI","","html-keyboard-response","450","554577","0.0-1.0-621.0","0","0","51681","","null","","","null","68","","","","","","","","","","","","","","","NaN",""
"","S1","","html-keyboard-response","451","554731","0.0-1.0-623.0","0","0","51681","","null","","","null","69","","","","","","","","","","","","","","","",""
"","ISI","","html-keyboard-response","452","556735","0.0-1.0-624.0","0","0","51681","","null","","","null","69","NaN","","","","","","","","","","","","","","",""
"","S2","","html-keyboard-response","453","556889","0.0-1.0-625.0","0","0","51681","","null","","","null","69","","NaN","","","","","","","","","","","","","",""
"","response","","html-keyboard-response","454","557989","0.0-1.0-626.0-0.0","0","0","51681","","1097","","","75","69","","","2","69","training","adjacent","DE","4","5","Q.jpg","M.jpg","1","1","1","",""
"","feedback","","html-keyboard-response","455","558993","0.0-1.0-627.0-0.0","0","0","51681","","null","","","null","69","","","","","","","","","","","","","","","",""
"","ITI","","html-keyboard-response","456","559997","0.0-1.0-630.0","0","0","51681","","null","","","null","69","","","","","","","","","","","","","","","NaN",""
"","S1","","html-keyboard-response","457","560150","0.0-1.0-632.0","0","0","51681","","null","","","null","70","","","","","","","","","","","","","","","",""
"","ISI","","html-keyboard-response","458","562153","0.0-1.0-633.0","0","0","51681","","null","","","null","70","NaN","","","","","","","","","","","","","","",""
"","S2","","html-keyboard-response","459","562307","0.0-1.0-634.0","0","0","51681","","null","","","null","70","","NaN","","","","","","","","","","","","","",""
"","response","","html-keyboard-response","460","562732","0.0-1.0-635.0-0.0","0","0","51681","","423","","","68","70","","","2","70","training","adjacent","BA","2","1","O.jpg","P.jpg","0","0","1","",""
"","feedback","","html-keyboard-response","461","563738","0.0-1.0-636.0-0.0","0","0","51681","","null","","","null","70","","","","","","","","","","","","","","","",""
"","ITI","","html-keyboard-response","462","564741","0.0-1.0-639.0","0","0","51681","","null","","","null","70","","","","","","","","","","","","","","","NaN",""
"","S1","","html-keyboard-response","463","564895","0.0-1.0-641.0","0","0","51681","","null","","","null","71","","","","","","","","","","","","","","","",""
"","ISI","","html-keyboard-response","464","566900","0.0-1.0-642.0","0","0","51681","","null","","","null","71","NaN","","","","","","","","","","","","","","",""
"","S2","","html-keyboard-response","465","567056","0.0-1.0-643.0","0","0","51681","","null","","","null","71","","NaN","","","","","","","","","","","","","",""
"","response","","html-keyboard-response","466","567469","0.0-1.0-644.0-0.0","0","0","51681","","410","","","68","71","","","2","71","training","adjacent","BA","2","1","O.jpg","P.jpg","0","0","1","",""
"","feedback","","html-keyboard-response","467","568474","0.0-1.0-645.0-0.0","0","0","51681","","null","","","null","71","","","","","","","","","","","","","","","",""
"","ITI","","html-keyboard-response","468","569489","0.0-1.0-648.0","0","0","51681","","null","","","null","71","","","","","","","","","","","","","","","NaN",""
"","S1","","html-keyboard-response","469","569644","0.0-1.0-650.0","0","0","51681","","null","","","null","72","","","","","","","","","","","","","","","",""
"","ISI","","html-keyboard-response","470","571648","0.0-1.0-651.0","0","0","51681","","null","","","null","72","NaN","","","","","","","","","","","","","","",""
"","S2","","html-keyboard-response","471","571801","0.0-1.0-652.0","0","0","51681","","null","","","null","72","","NaN","","","","","","","","","","","","","",""
"","response","","html-keyboard-response","472","572428","0.0-1.0-653.0-0.0","0","0","51681","","624","","","75","72","","","2","72","training","adjacent","AB","1","2","P.jpg","O.jpg","1","1","1","",""
"","feedback","","html-keyboard-response","473","573432","0.0-1.0-654.0-0.0","0","0","51681","","null","","","null","72","","","","","","","","","","","","","","","",""
"","ITI","","html-keyboard-response","474","574437","0.0-1.0-657.0","0","0","51681","","null","","","null","72","","","","","","","","","","","","","","","NaN",""
"","S1","","html-keyboard-response","475","574592","0.0-1.0-659.0","0","0","51681","","null","","","null","73","","","","","","","","","","","","","","","",""
"","ISI","","html-keyboard-response","476","576597","0.0-1.0-660.0","0","0","51681","","null","","","null","73","NaN","","","","","","","","","","","","","","",""
"","S2","","html-keyboard-response","477","576751","0.0-1.0-661.0","0","0","51681","","null","","","null","73","","NaN","","","","","","","","","","","","","",""
"","response","","html-keyboard-response","478","577525","0.0-1.0-662.0-0.0","0","0","51681","","771","","","68","73","","","2","73","training","adjacent","CD","3","4","N.jpg","Q.jpg","0","1","0","",""
"","feedback","","html-keyboard-response","479","578529","0.0-1.0-663.0-0.0","0","0","51681","","null","","","null","73","","","","","","","","","","","","","","","",""
"","time_out","","html-keyboard-response","480","580532","0.0-1.0-665.0-0.0","0","0","51681","","null","","","null","73","","","","","","","","","","","","","","","",""
"","ITI","","html-keyboard-response","481","581535","0.0-1.0-666.0","0","0","51681","","null","","","null","73","","","","","","","","","","","","","","","NaN",""
"","S1","","html-keyboard-response","482","581690","0.0-1.0-668.0","0","0","51681","","null","","","null","74","","","","","","","","","","","","","","","",""
"","ISI","","html-keyboard-response","483","583693","0.0-1.0-669.0","0","0","51681","","null","","","null","74","NaN","","","","","","","","","","","","","","",""
"","S2","","html-keyboard-response","484","583848","0.0-1.0-670.0","0","0","51681","","null","","","null","74","","NaN","","","","","","","","","","","","","",""
"","response","","html-keyboard-response","485","584652","0.0-1.0-671.0-0.0","0","0","51681","","802","","","75","74","","","2","74","training","adjacent","ED","5","4","M.jpg","Q.jpg","1","0","0","",""
"","feedback","","html-keyboard-response","486","585655","0.0-1.0-672.0-0.0","0","0","51681","","null","","","null","74","","","","","","","","","","","","","","","",""
"","time_out","","html-keyboard-response","487","587659","0.0-1.0-674.0-0.0","0","0","51681","","null","","","null","74","","","","","","","","","","","","","","","",""
"","ITI","","html-keyboard-response","488","588663","0.0-1.0-675.0","0","0","51681","","null","","","null","74","","","","","","","","","","","","","","","NaN",""
"","S1","","html-keyboard-response","489","588816","0.0-1.0-677.0","0","0","51681","","null","","","null","75","","","","","","","","","","","","","","","",""
"","ISI","","html-keyboard-response","490","590820","0.0-1.0-678.0","0","0","51681","","null","","","null","75","NaN","","","","","","","","","","","","","","",""
"","S2","","html-keyboard-response","491","590973","0.0-1.0-679.0","0","0","51681","","null","","","null","75","","NaN","","","","","","","","","","","","","",""
"","response","","html-keyboard-response","492","592341","0.0-1.0-680.0-0.0","0","0","51681","","1365","","","75","75","","","2","75","training","adjacent","CD","3","4","N.jpg","Q.jpg","1","1","1","",""
"","feedback","","html-keyboard-response","493","593346","0.0-1.0-681.0-0.0","0","0","51681","","null","","","null","75","","","","","","","","","","","","","","","",""
"","ITI","","html-keyboard-response","494","594350","0.0-1.0-684.0","0","0","51681","","null","","","null","75","","","","","","","","","","","","","","","NaN",""
"","S1","","html-keyboard-response","495","594505","0.0-1.0-686.0","0","0","51681","","null","","","null","76","","","","","","","","","","","","","","","",""
"","ISI","","html-keyboard-response","496","596509","0.0-1.0-687.0","0","0","51681","","null","","","null","76","NaN","","","","","","","","","","","","","","",""
"","S2","","html-keyboard-response","497","596662","0.0-1.0-688.0","0","0","51681","","null","","","null","76","","NaN","","","","","","","","","","","","","",""
"","response","","html-keyboard-response","498","597541","0.0-1.0-689.0-0.0","0","0","51681","","877","","","68","76","","","2","76","training","adjacent","FG","6","7","L.jpg","R.jpg","0","1","0","",""
"","feedback","","html-keyboard-response","499","598546","0.0-1.0-690.0-0.0","0","0","51681","","null","","","null","76","","","","","","","","","","","","","","","",""
"","time_out","","html-keyboard-response","500","600550","0.0-1.0-692.0-0.0","0","0","51681","","null","","","null","76","","","","","","","","","","","","","","","",""
"","ITI","","html-keyboard-response","501","601554","0.0-1.0-693.0","0","0","51681","","null","","","null","76","","","","","","","","","","","","","","","NaN",""
"","S1","","html-keyboard-response","502","601708","0.0-1.0-695.0","0","0","51681","","null","","","null","77","","","","","","","","","","","","","","","",""
"","ISI","","html-keyboard-response","503","603712","0.0-1.0-696.0","0","0","51681","","null","","","null","77","NaN","","","","","","","","","","","","","","",""
"","S2","","html-keyboard-response","504","603864","0.0-1.0-697.0","0","0","51681","","null","","","null","77","","NaN","","","","","","","","","","","","","",""
"","response","","html-keyboard-response","505","604365","0.0-1.0-698.0-0.0","0","0","51681","","498","","","68","77","","","2","77","training","adjacent","FE","6","5","L.jpg","M.jpg","0","0","1","",""
"","feedback","","html-keyboard-response","506","605369","0.0-1.0-699.0-0.0","0","0","51681","","null","","","null","77","","","","","","","","","","","","","","","",""
"","ITI","","html-keyboard-response","507","606373","0.0-1.0-702.0","0","0","51681","","null","","","null","77","","","","","","","","","","","","","","","NaN",""
"","S1","","html-keyboard-response","508","606527","0.0-1.0-704.0","0","0","51681","","null","","","null","78","","","","","","","","","","","","","","","",""
"","ISI","","html-keyboard-response","509","608531","0.0-1.0-705.0","0","0","51681","","null","","","null","78","NaN","","","","","","","","","","","","","","",""
"","S2","","html-keyboard-response","510","608685","0.0-1.0-706.0","0","0","51681","","null","","","null","78","","NaN","","","","","","","","","","","","","",""
"","response","","html-keyboard-response","511","609646","0.0-1.0-707.0-0.0","0","0","51681","","957","","","68","78","","","2","78","training","adjacent","DC","4","3","Q.jpg","N.jpg","0","0","1","",""
"","feedback","","html-keyboard-response","512","610651","0.0-1.0-708.0-0.0","0","0","51681","","null","","","null","78","","","","","","","","","","","","","","","",""
"","ITI","","html-keyboard-response","513","611654","0.0-1.0-711.0","0","0","51681","","null","","","null","78","","","","","","","","","","","","","","","NaN",""
"","S1","","html-keyboard-response","514","611808","0.0-1.0-713.0","0","0","51681","","null","","","null","79","","","","","","","","","","","","","","","",""
"","ISI","","html-keyboard-response","515","613812","0.0-1.0-714.0","0","0","51681","","null","","","null","79","NaN","","","","","","","","","","","","","","",""
"","S2","","html-keyboard-response","516","613965","0.0-1.0-715.0","0","0","51681","","null","","","null","79","","NaN","","","","","","","","","","","","","",""
"","response","","html-keyboard-response","517","615286","0.0-1.0-716.0-0.0","0","0","51681","","1318","","","75","79","","","2","79","training","adjacent","FG","6","7","L.jpg","R.jpg","1","1","1","",""
"","feedback","","html-keyboard-response","518","616291","0.0-1.0-717.0-0.0","0","0","51681","","null","","","null","79","","","","","","","","","","","","","","","",""
"","ITI","","html-keyboard-response","519","617296","0.0-1.0-720.0","0","0","51681","","null","","","null","79","","","","","","","","","","","","","","","NaN",""
"","S1","","html-keyboard-response","520","617450","0.0-1.0-722.0","0","0","51681","","null","","","null","80","","","","","","","","","","","","","","","",""
"","ISI","","html-keyboard-response","521","619454","0.0-1.0-723.0","0","0","51681","","null","","","null","80","NaN","","","","","","","","","","","","","","",""
"","S2","","html-keyboard-response","522","619608","0.0-1.0-724.0","0","0","51681","","null","","","null","80","","NaN","","","","","","","","","","","","","",""
"","response","","html-keyboard-response","523","620263","0.0-1.0-725.0-0.0","0","0","51681","","651","","","75","80","","","2","80","training","adjacent","AB","1","2","P.jpg","O.jpg","1","1","1","",""
"","feedback","","html-keyboard-response","524","621268","0.0-1.0-726.0-0.0","0","0","51681","","null","","","null","80","","","","","","","","","","","","","","","",""
"","ITI","","html-keyboard-response","525","622271","0.0-1.0-729.0","0","0","51681","","null","","","null","80","","","","","","","","","","","","","","","NaN",""
"","S1","","html-keyboard-response","526","622426","0.0-1.0-731.0","0","0","51681","","null","","","null","81","","","","","","","","","","","","","","","",""
"","ISI","","html-keyboard-response","527","624430","0.0-1.0-732.0","0","0","51681","","null","","","null","81","NaN","","","","","","","","","","","","","","",""
"","S2","","html-keyboard-response","528","624585","0.0-1.0-733.0","0","0","51681","","null","","","null","81","","NaN","","","","","","","","","","","","","",""
"","response","","html-keyboard-response","529","625414","0.0-1.0-734.0-0.0","0","0","51681","","826","","","68","81","","","2","81","training","adjacent","ED","5","4","M.jpg","Q.jpg","0","0","1","",""
"","feedback","","html-keyboard-response","530","626420","0.0-1.0-735.0-0.0","0","0","51681","","null","","","null","81","","","","","","","","","","","","","","","",""
"","ITI","","html-keyboard-response","531","627424","0.0-1.0-738.0","0","0","51681","","null","","","null","81","","","","","","","","","","","","","","","NaN",""
"","S1","","html-keyboard-response","532","627579","0.0-1.0-740.0","0","0","51681","","null","","","null","82","","","","","","","","","","","","","","","",""
"","ISI","","html-keyboard-response","533","629582","0.0-1.0-741.0","0","0","51681","","null","","","null","82","NaN","","","","","","","","","","","","","","",""
"","S2","","html-keyboard-response","534","629737","0.0-1.0-742.0","0","0","51681","","null","","","null","82","","NaN","","","","","","","","","","","","","",""
"","response","","html-keyboard-response","535","630222","0.0-1.0-743.0-0.0","0","0","51681","","482","","","75","82","","","2","82","training","adjacent","CD","3","4","N.jpg","Q.jpg","1","1","1","",""
"","feedback","","html-keyboard-response","536","631227","0.0-1.0-744.0-0.0","0","0","51681","","null","","","null","82","","","","","","","","","","","","","","","",""
"","ITI","","html-keyboard-response","537","632232","0.0-1.0-747.0","0","0","51681","","null","","","null","82","","","","","","","","","","","","","","","NaN",""
"","S1","","html-keyboard-response","538","632386","0.0-1.0-749.0","0","0","51681","","null","","","null","83","","","","","","","","","","","","","","","",""
"","ISI","","html-keyboard-response","539","634389","0.0-1.0-750.0","0","0","51681","","null","","","null","83","NaN","","","","","","","","","","","","","","",""
"","S2","","html-keyboard-response","540","634543","0.0-1.0-751.0","0","0","51681","","null","","","null","83","","NaN","","","","","","","","","","","","","",""
"","response","","html-keyboard-response","541","635942","0.0-1.0-752.0-0.0","0","0","51681","","1395","","","68","83","","","2","83","training","adjacent","EF","5","6","M.jpg","L.jpg","0","1","0","",""
"","feedback","","html-keyboard-response","542","636947","0.0-1.0-753.0-0.0","0","0","51681","","null","","","null","83","","","","","","","","","","","","","","","",""
"","time_out","","html-keyboard-response","543","638951","0.0-1.0-755.0-0.0","0","0","51681","","null","","","null","83","","","","","","","","","","","","","","","",""
"","ITI","","html-keyboard-response","544","639953","0.0-1.0-756.0","0","0","51681","","null","","","null","83","","","","","","","","","","","","","","","NaN",""
"","S1","","html-keyboard-response","545","640108","0.0-1.0-758.0","0","0","51681","","null","","","null","84","","","","","","","","","","","","","","","",""
"","ISI","","html-keyboard-response","546","642112","0.0-1.0-759.0","0","0","51681","","null","","","null","84","NaN","","","","","","","","","","","","","","",""
"","S2","","html-keyboard-response","547","642267","0.0-1.0-760.0","0","0","51681","","null","","","null","84","","NaN","","","","","","","","","","","","","",""
"","response","","html-keyboard-response","548","643135","0.0-1.0-761.0-0.0","0","0","51681","","863","","","68","84","","","2","84","training","adjacent","GF","7","6","R.jpg","L.jpg","0","0","1","",""
"","feedback","","html-keyboard-response","549","644140","0.0-1.0-762.0-0.0","0","0","51681","","null","","","null","84","","","","","","","","","","","","","","","",""
"","ITI","","html-keyboard-response","550","645145","0.0-1.0-765.0","0","0","51681","","null","","","null","84","","","","","","","","","","","","","","","NaN",""
"","S1","","html-keyboard-response","551","645300","0.0-1.0-767.0","0","0","51681","","null","","","null","85","","","","","","","","","","","","","","","",""
"","ISI","","html-keyboard-response","552","647304","0.0-1.0-768.0","0","0","51681","","null","","","null","85","NaN","","","","","","","","","","","","","","",""
"","S2","","html-keyboard-response","553","647458","0.0-1.0-769.0","0","0","51681","","null","","","null","85","","NaN","","","","","","","","","","","","","",""
"","response","","html-keyboard-response","554","648462","0.0-1.0-770.0-0.0","0","0","51681","","1001","","","75","85","","","2","85","training","adjacent","EF","5","6","M.jpg","L.jpg","1","1","1","",""
"","feedback","","html-keyboard-response","555","649475","0.0-1.0-771.0-0.0","0","0","51681","","null","","","null","85","","","","","","","","","","","","","","","",""
"","ITI","","html-keyboard-response","556","650482","0.0-1.0-774.0","0","0","51681","","null","","","null","85","","","","","","","","","","","","","","","NaN",""
"","S1","","html-keyboard-response","557","650635","0.0-1.0-776.0","0","0","51681","","null","","","null","86","","","","","","","","","","","","","","","",""
"","ISI","","html-keyboard-response","558","652640","0.0-1.0-777.0","0","0","51681","","null","","","null","86","NaN","","","","","","","","","","","","","","",""
"","S2","","html-keyboard-response","559","652794","0.0-1.0-778.0","0","0","51681","","null","","","null","86","","NaN","","","","","","","","","","","","","",""
"","response","","html-keyboard-response","560","653438","0.0-1.0-779.0-0.0","0","0","51681","","641","","","75","86","","","2","86","training","adjacent","EF","5","6","M.jpg","L.jpg","1","1","1","",""
"","feedback","","html-keyboard-response","561","654442","0.0-1.0-780.0-0.0","0","0","51681","","null","","","null","86","","","","","","","","","","","","","","","",""
"","ITI","","html-keyboard-response","562","655447","0.0-1.0-783.0","0","0","51681","","null","","","null","86","","","","","","","","","","","","","","","NaN",""
"","S1","","html-keyboard-response","563","655601","0.0-1.0-785.0","0","0","51681","","null","","","null","87","","","","","","","","","","","","","","","",""
"","ISI","","html-keyboard-response","564","657604","0.0-1.0-786.0","0","0","51681","","null","","","null","87","NaN","","","","","","","","","","","","","","",""
"","S2","","html-keyboard-response","565","657757","0.0-1.0-787.0","0","0","51681","","null","","","null","87","","NaN","","","","","","","","","","","","","",""
"","response","","html-keyboard-response","566","658070","0.0-1.0-788.0-0.0","0","0","51681","","310","","","68","87","","","2","87","training","adjacent","BA","2","1","O.jpg","P.jpg","0","0","1","",""
"","feedback","","html-keyboard-response","567","659076","0.0-1.0-789.0-0.0","0","0","51681","","null","","","null","87","","","","","","","","","","","","","","","",""
"","ITI","","html-keyboard-response","568","660080","0.0-1.0-792.0","0","0","51681","","null","","","null","87","","","","","","","","","","","","","","","NaN",""
"","S1","","html-keyboard-response","569","660235","0.0-1.0-794.0","0","0","51681","","null","","","null","88","","","","","","","","","","","","","","","",""
"","ISI","","html-keyboard-response","570","662240","0.0-1.0-795.0","0","0","51681","","null","","","null","88","NaN","","","","","","","","","","","","","","",""
"","S2","","html-keyboard-response","571","662394","0.0-1.0-796.0","0","0","51681","","null","","","null","88","","NaN","","","","","","","","","","","","","",""
"","response","","html-keyboard-response","572","663439","0.0-1.0-797.0-0.0","0","0","51681","","1041","","","68","88","","","2","88","training","adjacent","GF","7","6","R.jpg","L.jpg","0","0","1","",""
"","feedback","","html-keyboard-response","573","664444","0.0-1.0-798.0-0.0","0","0","51681","","null","","","null","88","","","","","","","","","","","","","","","",""
"","ITI","","html-keyboard-response","574","665447","0.0-1.0-801.0","0","0","51681","","null","","","null","88","","","","","","","","","","","","","","","NaN",""
"","S1","","html-keyboard-response","575","665601","0.0-1.0-803.0","0","0","51681","","null","","","null","89","","","","","","","","","","","","","","","",""
"","ISI","","html-keyboard-response","576","667604","0.0-1.0-804.0","0","0","51681","","null","","","null","89","NaN","","","","","","","","","","","","","","",""
"","S2","","html-keyboard-response","577","667758","0.0-1.0-805.0","0","0","51681","","null","","","null","89","","NaN","","","","","","","","","","","","","",""
"","response","","html-keyboard-response","578","668558","0.0-1.0-806.0-0.0","0","0","51681","","796","","","68","89","","","2","89","training","adjacent","FE","6","5","L.jpg","M.jpg","0","0","1","",""
"","feedback","","html-keyboard-response","579","669563","0.0-1.0-807.0-0.0","0","0","51681","","null","","","null","89","","","","","","","","","","","","","","","",""
"","ITI","","html-keyboard-response","580","670566","0.0-1.0-810.0","0","0","51681","","null","","","null","89","","","","","","","","","","","","","","","NaN",""
