"success","ttype","start_time","trial_type","trial_index","time_elapsed","internal_node_id","warning","missed_checkup","PID","view_history","rt","responses","repeat_instructions","key_press","index","keypress_isi","keypress_S2","block","trial_num","phase","group_type","pair_type","S1_stim","S2_stim","S1_img","S2_img","S1_chosen","S1_higher","accuracy","keypress_iti","total_bonus_tally"
"true","full_screen","d03042023hr1709","fullscreen","0","9200","0.0-0.0","0","0","76070","","","","","","","","","","","","","","","","","","","","","",""
"","instructions","","instructions","1","59393","0.0-1.0-0.0-0.0","0","0","76070","[{""page_index"":0,""viewing_time"":4921},{""page_index"":1,""viewing_time"":31400},{""page_index"":2,""viewing_time"":9179},{""page_index"":3,""viewing_time"":4672}]","50177","","","","","","","","","","","","","","","","","","","",""
"","comprehension_check","","survey-multi-choice","2","86344","0.0-1.0-0.0-1.0","0","0","76070","","26922","{""Q0"":""True"",""Q1"":""D"",""Q2"":""Only when the screen 'MAKE A CHOICE' is shown"",""Q3"":""Green mark"",""Q4"":""either D or K""}","1","","","","","","","","","","","","","","","","","",""
"","missed_instruction_checkup","","html-keyboard-response","3","92845","0.0-1.0-0.0-2.0-0.0","0","1","76070","","6480","","","32","","","","","","","","","","","","","","","","",""
"","instructions","","instructions","4","103506","0.0-1.0-0.1-0.1","0","0","76070","[{""page_index"":0,""viewing_time"":2156},{""page_index"":1,""viewing_time"":6008},{""page_index"":2,""viewing_time"":1291},{""page_index"":3,""viewing_time"":1191}]","10648","","","","","","","","","","","","","","","","","","","",""
"","comprehension_check","","survey-multi-choice","5","135360","0.0-1.0-0.1-1.1","0","0","76070","","31818","{""Q0"":""False"",""Q1"":""D"",""Q2"":""Once the second image appears and while the screen 'MAKE A CHOICE' is shown"",""Q3"":""Green mark"",""Q4"":""either D or K""}","1","","","","","","","","","","","","","","","","","",""
"","missed_instruction_checkup","","html-keyboard-response","6","137993","0.0-1.0-0.1-2.1-0.1","0","1","76070","","2624","","","32","","","","","","","","","","","","","","","","",""
"","instructions","","instructions","7","154477","0.0-1.0-0.2-0.2","0","0","76070","[{""page_index"":0,""viewing_time"":2039},{""page_index"":1,""viewing_time"":12450},{""page_index"":2,""viewing_time"":797},{""page_index"":3,""viewing_time"":1183}]","16470","","","","","","","","","","","","","","","","","","","",""
"","comprehension_check","","survey-multi-choice","8","166729","0.0-1.0-0.2-1.2","0","0","76070","","12228","{""Q0"":""True"",""Q1"":""D"",""Q2"":""Only when the screen 'MAKE A CHOICE' is shown"",""Q3"":""Green mark"",""Q4"":""either D or K""}","1","","","","","","","","","","","","","","","","","",""
"","missed_instruction_checkup","","html-keyboard-response","9","168976","0.0-1.0-0.2-2.2-0.2","0","1","76070","","2242","","","32","","","","","","","","","","","","","","","","",""
"","instructions","","instructions","10","189454","0.0-1.0-0.3-0.3","0","0","76070","[{""page_index"":0,""viewing_time"":1846},{""page_index"":1,""viewing_time"":16291},{""page_index"":2,""viewing_time"":905},{""page_index"":3,""viewing_time"":1422}]","20465","","","","","","","","","","","","","","","","","","","",""
"","comprehension_check","","survey-multi-choice","11","200703","0.0-1.0-0.3-1.3","0","0","76070","","11222","{""Q0"":""True"",""Q1"":""D"",""Q2"":""Only while the second image is shown"",""Q3"":""Green mark"",""Q4"":""either D or K""}","1","","","","","","","","","","","","","","","","","",""
"","missed_instruction_checkup","","html-keyboard-response","12","203246","0.0-1.0-0.3-2.3-0.3","0","1","76070","","2528","","","32","","","","","","","","","","","","","","","","",""
"","instructions","","instructions","13","230496","0.0-1.0-0.4-0.4","0","0","76070","[{""page_index"":0,""viewing_time"":2694},{""page_index"":1,""viewing_time"":15563},{""page_index"":2,""viewing_time"":6828},{""page_index"":3,""viewing_time"":2152}]","27238","","","","","","","","","","","","","","","","","","","",""
"","comprehension_check","","survey-multi-choice","14","265137","0.0-1.0-0.4-1.4","0","0","76070","","34615","{""Q0"":""False"",""Q1"":""D"",""Q2"":""Once the second image appears and while the screen 'MAKE A CHOICE' is shown"",""Q3"":""Green mark"",""Q4"":""either D or K""}","1","","","","","","","","","","","","","","","","","",""
"","missed_instruction_checkup","","html-keyboard-response","15","267058","0.0-1.0-0.4-2.4-0.4","0","1","76070","","1913","","","32","","","","","","","","","","","","","","","","",""
"","instructions","","instructions","16","272449","0.0-1.0-0.5-0.5","0","0","76070","[{""page_index"":0,""viewing_time"":1742},{""page_index"":1,""viewing_time"":1640},{""page_index"":2,""viewing_time"":850},{""page_index"":3,""viewing_time"":1142}]","5379","","","","","","","","","","","","","","","","","","","",""
"","comprehension_check","","survey-multi-choice","17","300555","0.0-1.0-0.5-1.5","0","0","76070","","28081","{""Q0"":""False"",""Q1"":""D"",""Q2"":""Once the second image appears and while the screen 'MAKE A CHOICE' is shown"",""Q3"":""Green mark"",""Q4"":""either D or K""}","1","","","","","","","","","","","","","","","","","",""
"","missed_instruction_checkup","","html-keyboard-response","18","302971","0.0-1.0-0.5-2.5-0.5","0","1","76070","","2404","","","32","","","","","","","","","","","","","","","","",""
"","instructions","","instructions","19","322092","0.0-1.0-0.6-0.6","0","0","76070","[{""page_index"":0,""viewing_time"":1822},{""page_index"":1,""viewing_time"":14705},{""page_index"":2,""viewing_time"":1256},{""page_index"":3,""viewing_time"":1333}]","19117","","","","","","","","","","","","","","","","","","","",""
"","comprehension_check","","survey-multi-choice","20","434517","0.0-1.0-0.6-1.6","0","0","76070","","112407","{""Q0"":""True"",""Q1"":""K"",""Q2"":""Once the second image appears and while the screen 'MAKE A CHOICE' is shown"",""Q3"":""Green mark"",""Q4"":""either D or K""}","1","","","","","","","","","","","","","","","","","",""
"","missed_instruction_checkup","","html-keyboard-response","21","436658","0.0-1.0-0.6-2.6-0.6","0","1","76070","","2133","","","32","","","","","","","","","","","","","","","","",""
"","instructions","","instructions","22","443962","0.0-1.0-0.7-0.7","0","0","76070","[{""page_index"":0,""viewing_time"":1905},{""page_index"":1,""viewing_time"":3430},{""page_index"":2,""viewing_time"":1020},{""page_index"":3,""viewing_time"":939}]","7295","","","","","","","","","","","","","","","","","","","",""
"","comprehension_check","","survey-multi-choice","23","454076","0.0-1.0-0.7-1.7","0","0","76070","","10087","{""Q0"":""True"",""Q1"":""D"",""Q2"":""Once the second image appears and while the screen 'MAKE A CHOICE' is shown"",""Q3"":""Green mark"",""Q4"":""either D or K""}","0","","","","","","","","","","","","","","","","","",""
"","start_exp","","html-keyboard-response","24","457024","0.0-1.0-1.0","0","0","76070","","2940","","","32","","","","","","","","","","","","","","","","",""
"","S1","","html-keyboard-response","25","457281","0.0-1.0-2.0","0","0","76070","","null","","","null","0","","","","","","","","","","","","","","","",""
"","ISI","","html-keyboard-response","26","457786","0.0-1.0-3.0","0","0","76070","","null","","","null","0","NaN","","","","","","","","","","","","","","",""
"","S2","","html-keyboard-response","27","458044","0.0-1.0-4.0","0","0","76070","","null","","","null","0","","NaN","","","","","","","","","","","","","",""
"","response","","html-keyboard-response","28","459806","0.0-1.0-5.0-0.0","0","0","76070","","null","","","null","0","","","1","0","training","adjacent","DC","4","3","Q.jpg","N.jpg","NaN","0","0","",""
"","too_slow_prompt","","html-keyboard-response","29","460809","0.0-1.0-7.0-0.0","1","0","76070","","null","","","null","","","","","","","","","","","","","","","","",""
"","time_out","","html-keyboard-response","30","462819","0.0-1.0-8.0-0.0","0","0","76070","","null","","","null","0","","","","","","","","","","","","","","","",""
"","ITI","","html-keyboard-response","31","463828","0.0-1.0-9.0","0","0","76070","","157","","","68","0","","","","","","","","","","","","","","","d",""
"","S1","","html-keyboard-response","32","464088","0.0-1.0-11.0","0","0","76070","","null","","","null","1","","","","","","","","","","","","","","","",""
"","ISI","","html-keyboard-response","33","464595","0.0-1.0-12.0","0","0","76070","","11","","","68","1","d","","","","","","","","","","","","","","",""
"","S2","","html-keyboard-response","34","464880","0.0-1.0-13.0","0","0","76070","","null","","","null","1","","NaN","","","","","","","","","","","","","",""
"","response","","html-keyboard-response","35","464952","0.0-1.0-14.0-0.0","0","0","76070","","68","","","68","1","","","1","1","training","adjacent","CB","3","2","N.jpg","R.jpg","1","0","0","",""
"","feedback","","html-keyboard-response","36","465960","0.0-1.0-15.0-0.0","0","0","76070","","null","","","null","1","","","","","","","","","","","","","","","",""
"","time_out","","html-keyboard-response","37","467967","0.0-1.0-17.0-0.0","0","0","76070","","null","","","null","1","","","","","","","","","","","","","","","",""
"","ITI","","html-keyboard-response","38","468973","0.0-1.0-18.0","0","0","76070","","null","","","null","1","","","","","","","","","","","","","","","NaN",""
"","S1","","html-keyboard-response","39","469229","0.0-1.0-20.0","0","0","76070","","null","","","null","2","","","","","","","","","","","","","","","",""
"","ISI","","html-keyboard-response","40","469737","0.0-1.0-21.0","0","0","76070","","null","","","null","2","NaN","","","","","","","","","","","","","","",""
"","S2","","html-keyboard-response","41","469996","0.0-1.0-22.0","0","0","76070","","null","","","null","2","","NaN","","","","","","","","","","","","","",""
"","response","","html-keyboard-response","42","470786","0.0-1.0-23.0-0.0","0","0","76070","","786","","","68","2","","","1","2","training","adjacent","BC","2","3","R.jpg","N.jpg","1","1","1","",""
"","feedback","","html-keyboard-response","43","471793","0.0-1.0-24.0-0.0","0","0","76070","","null","","","null","2","","","","","","","","","","","","","","","",""
"","ITI","","html-keyboard-response","44","472803","0.0-1.0-27.0","0","0","76070","","null","","","null","2","","","","","","","","","","","","","","","NaN",""
"","S1","","html-keyboard-response","45","473101","0.0-1.0-29.0","0","0","76070","","null","","","null","3","","","","","","","","","","","","","","","",""
"","ISI","","html-keyboard-response","46","473606","0.0-1.0-30.0","0","0","76070","","null","","","null","3","NaN","","","","","","","","","","","","","","",""
"","S2","","html-keyboard-response","47","473862","0.0-1.0-31.0","0","0","76070","","null","","","null","3","","NaN","","","","","","","","","","","","","",""
"","response","","html-keyboard-response","48","473897","0.0-1.0-32.0-0.0","0","0","76070","","27","","","75","3","","","1","3","training","adjacent","GF","7","6","L.jpg","P.jpg","0","0","1","",""
"","feedback","","html-keyboard-response","49","474907","0.0-1.0-33.0-0.0","0","0","76070","","null","","","null","3","","","","","","","","","","","","","","","",""
"","ITI","","html-keyboard-response","50","475918","0.0-1.0-36.0","0","0","76070","","null","","","null","3","","","","","","","","","","","","","","","NaN",""
"","S1","","html-keyboard-response","51","476173","0.0-1.0-38.0","0","0","76070","","null","","","null","4","","","","","","","","","","","","","","","",""
"","ISI","","html-keyboard-response","52","476681","0.0-1.0-39.0","0","0","76070","","373","","","75","4","k","","","","","","","","","","","","","","",""
"","S2","","html-keyboard-response","53","476968","0.0-1.0-40.0","0","0","76070","","null","","","null","4","","NaN","","","","","","","","","","","","","",""
"","response","","html-keyboard-response","54","477880","0.0-1.0-41.0-0.0","0","0","76070","","885","","","75","4","","","1","4","training","adjacent","FE","6","5","P.jpg","M.jpg","0","0","1","",""
"","feedback","","html-keyboard-response","55","478888","0.0-1.0-42.0-0.0","0","0","76070","","null","","","null","4","","","","","","","","","","","","","","","",""
"","ITI","","html-keyboard-response","56","479893","0.0-1.0-45.0","0","0","76070","","null","","","null","4","","","","","","","","","","","","","","","NaN",""
"","S1","","html-keyboard-response","57","480148","0.0-1.0-47.0","0","0","76070","","null","","","null","5","","","","","","","","","","","","","","","",""
"","ISI","","html-keyboard-response","58","480652","0.0-1.0-48.0","0","0","76070","","382","","","75","5","k","","","","","","","","","","","","","","",""
"","S2","","html-keyboard-response","59","480909","0.0-1.0-49.0","0","0","76070","","null","","","null","5","","NaN","","","","","","","","","","","","","",""
"","response","","html-keyboard-response","60","481566","0.0-1.0-50.0-0.0","0","0","76070","","651","","","75","5","","","1","5","training","adjacent","ED","5","4","M.jpg","Q.jpg","0","0","1","",""
"","feedback","","html-keyboard-response","61","482574","0.0-1.0-51.0-0.0","0","0","76070","","null","","","null","5","","","","","","","","","","","","","","","",""
"","ITI","","html-keyboard-response","62","483579","0.0-1.0-54.0","0","0","76070","","null","","","null","5","","","","","","","","","","","","","","","NaN",""
"","S1","","html-keyboard-response","63","483853","0.0-1.0-56.0","0","0","76070","","null","","","null","6","","","","","","","","","","","","","","","",""
"","ISI","","html-keyboard-response","64","484357","0.0-1.0-57.0","0","0","76070","","null","","","null","6","NaN","","","","","","","","","","","","","","",""
"","S2","","html-keyboard-response","65","484613","0.0-1.0-58.0","0","0","76070","","null","","","null","6","","NaN","","","","","","","","","","","","","",""
"","response","","html-keyboard-response","66","484982","0.0-1.0-59.0-0.0","0","0","76070","","365","","","75","6","","","1","6","training","adjacent","BC","2","3","R.jpg","N.jpg","0","1","0","",""
"","feedback","","html-keyboard-response","67","485988","0.0-1.0-60.0-0.0","0","0","76070","","null","","","null","6","","","","","","","","","","","","","","","",""
"","time_out","","html-keyboard-response","68","488000","0.0-1.0-62.0-0.0","0","0","76070","","null","","","null","6","","","","","","","","","","","","","","","",""
"","ITI","","html-keyboard-response","69","489008","0.0-1.0-63.0","0","0","76070","","null","","","null","6","","","","","","","","","","","","","","","NaN",""
"","S1","","html-keyboard-response","70","489262","0.0-1.0-65.0","0","0","76070","","null","","","null","7","","","","","","","","","","","","","","","",""
"","ISI","","html-keyboard-response","71","489768","0.0-1.0-66.0","0","0","76070","","158","","","68","7","d","","","","","","","","","","","","","","",""
"","S2","","html-keyboard-response","72","490031","0.0-1.0-67.0","0","0","76070","","null","","","null","7","","NaN","","","","","","","","","","","","","",""
"","response","","html-keyboard-response","73","491788","0.0-1.0-68.0-0.0","0","0","76070","","null","","","null","7","","","1","7","training","adjacent","FG","6","7","P.jpg","L.jpg","NaN","1","0","",""
"","too_slow_prompt","","html-keyboard-response","74","492798","0.0-1.0-70.0-0.0","1","0","76070","","null","","","null","","","","","","","","","","","","","","","","",""
"","time_out","","html-keyboard-response","75","494809","0.0-1.0-71.0-0.0","0","0","76070","","null","","","null","7","","","","","","","","","","","","","","","",""
"","ITI","","html-keyboard-response","76","495819","0.0-1.0-72.0","0","0","76070","","null","","","null","7","","","","","","","","","","","","","","","NaN",""
"","S1","","html-keyboard-response","77","496075","0.0-1.0-74.0","0","0","76070","","null","","","null","8","","","","","","","","","","","","","","","",""
"","ISI","","html-keyboard-response","78","496583","0.0-1.0-75.0","0","0","76070","","null","","","null","8","NaN","","","","","","","","","","","","","","",""
"","S2","","html-keyboard-response","79","496844","0.0-1.0-76.0","0","0","76070","","null","","","null","8","","NaN","","","","","","","","","","","","","",""
"","response","","html-keyboard-response","80","497366","0.0-1.0-77.0-0.0","0","0","76070","","515","","","68","8","","","1","8","training","adjacent","AB","1","2","O.jpg","R.jpg","1","1","1","",""
"","feedback","","html-keyboard-response","81","498373","0.0-1.0-78.0-0.0","0","0","76070","","null","","","null","8","","","","","","","","","","","","","","","",""
"","ITI","","html-keyboard-response","82","499380","0.0-1.0-81.0","0","0","76070","","null","","","null","8","","","","","","","","","","","","","","","NaN",""
"","S1","","html-keyboard-response","83","499635","0.0-1.0-83.0","0","0","76070","","null","","","null","9","","","","","","","","","","","","","","","",""
"","ISI","","html-keyboard-response","84","500156","0.0-1.0-84.0","0","0","76070","","null","","","null","9","NaN","","","","","","","","","","","","","","",""
"","S2","","html-keyboard-response","85","500414","0.0-1.0-85.0","0","0","76070","","null","","","null","9","","NaN","","","","","","","","","","","","","",""
"","response","","html-keyboard-response","86","501315","0.0-1.0-86.0-0.0","0","0","76070","","884","","","68","9","","","1","9","training","adjacent","ED","5","4","M.jpg","Q.jpg","1","0","0","",""
"","feedback","","html-keyboard-response","87","502320","0.0-1.0-87.0-0.0","0","0","76070","","null","","","null","9","","","","","","","","","","","","","","","",""
"","time_out","","html-keyboard-response","88","504328","0.0-1.0-89.0-0.0","0","0","76070","","null","","","null","9","","","","","","","","","","","","","","","",""
"","ITI","","html-keyboard-response","89","505339","0.0-1.0-90.0","0","0","76070","","null","","","null","9","","","","","","","","","","","","","","","NaN",""
"","S1","","html-keyboard-response","90","505597","0.0-1.0-92.0","0","0","76070","","null","","","null","10","","","","","","","","","","","","","","","",""
"","ISI","","html-keyboard-response","91","506105","0.0-1.0-93.0","0","0","76070","","null","","","null","10","NaN","","","","","","","","","","","","","","",""
"","S2","","html-keyboard-response","92","506362","0.0-1.0-94.0","0","0","76070","","null","","","null","10","","NaN","","","","","","","","","","","","","",""
"","response","","html-keyboard-response","93","507215","0.0-1.0-95.0-0.0","0","0","76070","","845","","","75","10","","","1","10","training","adjacent","FE","6","5","P.jpg","M.jpg","0","0","1","",""
"","feedback","","html-keyboard-response","94","508223","0.0-1.0-96.0-0.0","0","0","76070","","null","","","null","10","","","","","","","","","","","","","","","",""
"","ITI","","html-keyboard-response","95","509231","0.0-1.0-99.0","0","0","76070","","null","","","null","10","","","","","","","","","","","","","","","NaN",""
"","S1","","html-keyboard-response","96","509489","0.0-1.0-101.0","0","0","76070","","null","","","null","11","","","","","","","","","","","","","","","",""
"","ISI","","html-keyboard-response","97","509993","0.0-1.0-102.0","0","0","76070","","null","","","null","11","NaN","","","","","","","","","","","","","","",""
"","S2","","html-keyboard-response","98","510247","0.0-1.0-103.0","0","0","76070","","null","","","null","11","","NaN","","","","","","","","","","","","","",""
"","response","","html-keyboard-response","99","511175","0.0-1.0-104.0-0.0","0","0","76070","","921","","","75","11","","","1","11","training","adjacent","BC","2","3","R.jpg","N.jpg","0","1","0","",""
"","feedback","","html-keyboard-response","100","512183","0.0-1.0-105.0-0.0","0","0","76070","","null","","","null","11","","","","","","","","","","","","","","","",""
"","time_out","","html-keyboard-response","101","514189","0.0-1.0-107.0-0.0","0","0","76070","","null","","","null","11","","","","","","","","","","","","","","","",""
"","ITI","","html-keyboard-response","102","515205","0.0-1.0-108.0","0","0","76070","","null","","","null","11","","","","","","","","","","","","","","","NaN",""
"","S1","","html-keyboard-response","103","515459","0.0-1.0-110.0","0","0","76070","","null","","","null","12","","","","","","","","","","","","","","","",""
"","ISI","","html-keyboard-response","104","515999","0.0-1.0-111.0","0","0","76070","","null","","","null","12","NaN","","","","","","","","","","","","","","",""
"","S2","","html-keyboard-response","105","516258","0.0-1.0-112.0","0","0","76070","","null","","","null","12","","NaN","","","","","","","","","","","","","",""
"","response","","html-keyboard-response","106","517024","0.0-1.0-113.0-0.0","0","0","76070","","761","","","68","12","","","1","12","training","adjacent","DE","4","5","Q.jpg","M.jpg","1","1","1","",""
"","feedback","","html-keyboard-response","107","518032","0.0-1.0-114.0-0.0","0","0","76070","","null","","","null","12","","","","","","","","","","","","","","","",""
"","ITI","","html-keyboard-response","108","519042","0.0-1.0-117.0","0","0","76070","","null","","","null","12","","","","","","","","","","","","","","","NaN",""
"","S1","","html-keyboard-response","109","519298","0.0-1.0-119.0","0","0","76070","","null","","","null","13","","","","","","","","","","","","","","","",""
"","ISI","","html-keyboard-response","110","519808","0.0-1.0-120.0","0","0","76070","","null","","","null","13","NaN","","","","","","","","","","","","","","",""
"","S2","","html-keyboard-response","111","520064","0.0-1.0-121.0","0","0","76070","","null","","","null","13","","NaN","","","","","","","","","","","","","",""
"","response","","html-keyboard-response","112","520810","0.0-1.0-122.0-0.0","0","0","76070","","739","","","75","13","","","1","13","training","adjacent","ED","5","4","M.jpg","Q.jpg","0","0","1","",""
"","feedback","","html-keyboard-response","113","521824","0.0-1.0-123.0-0.0","0","0","76070","","null","","","null","13","","","","","","","","","","","","","","","",""
"","ITI","","html-keyboard-response","114","522879","0.0-1.0-126.0","0","0","76070","","null","","","null","13","","","","","","","","","","","","","","","NaN",""
"","S1","","html-keyboard-response","115","523136","0.0-1.0-128.0","0","0","76070","","null","","","null","14","","","","","","","","","","","","","","","",""
"","ISI","","html-keyboard-response","116","523649","0.0-1.0-129.0","0","0","76070","","null","","","null","14","NaN","","","","","","","","","","","","","","",""
"","S2","","html-keyboard-response","117","523907","0.0-1.0-130.0","0","0","76070","","null","","","null","14","","NaN","","","","","","","","","","","","","",""
"","response","","html-keyboard-response","118","525061","0.0-1.0-131.0-0.0","0","0","76070","","1148","","","75","14","","","1","14","training","adjacent","DE","4","5","Q.jpg","M.jpg","0","1","0","",""
"","feedback","","html-keyboard-response","119","526070","0.0-1.0-132.0-0.0","0","0","76070","","null","","","null","14","","","","","","","","","","","","","","","",""
"","time_out","","html-keyboard-response","120","528075","0.0-1.0-134.0-0.0","0","0","76070","","null","","","null","14","","","","","","","","","","","","","","","",""
"","ITI","","html-keyboard-response","121","529139","0.0-1.0-135.0","0","0","76070","","null","","","null","14","","","","","","","","","","","","","","","NaN",""
"","S1","","html-keyboard-response","122","529398","0.0-1.0-137.0","0","0","76070","","null","","","null","15","","","","","","","","","","","","","","","",""
"","ISI","","html-keyboard-response","123","529904","0.0-1.0-138.0","0","0","76070","","null","","","null","15","NaN","","","","","","","","","","","","","","",""
"","S2","","html-keyboard-response","124","530160","0.0-1.0-139.0","0","0","76070","","null","","","null","15","","NaN","","","","","","","","","","","","","",""
"","response","","html-keyboard-response","125","530763","0.0-1.0-140.0-0.0","0","0","76070","","597","","","68","15","","","1","15","training","adjacent","EF","5","6","M.jpg","P.jpg","1","1","1","",""
"","feedback","","html-keyboard-response","126","531770","0.0-1.0-141.0-0.0","0","0","76070","","null","","","null","15","","","","","","","","","","","","","","","",""
"","ITI","","html-keyboard-response","127","532776","0.0-1.0-144.0","0","0","76070","","null","","","null","15","","","","","","","","","","","","","","","NaN",""
"","S1","","html-keyboard-response","128","533030","0.0-1.0-146.0","0","0","76070","","null","","","null","16","","","","","","","","","","","","","","","",""
"","ISI","","html-keyboard-response","129","533538","0.0-1.0-147.0","0","0","76070","","null","","","null","16","NaN","","","","","","","","","","","","","","",""
"","S2","","html-keyboard-response","130","533793","0.0-1.0-148.0","0","0","76070","","null","","","null","16","","NaN","","","","","","","","","","","","","",""
"","response","","html-keyboard-response","131","534171","0.0-1.0-149.0-0.0","0","0","76070","","364","","","68","16","","","1","16","training","adjacent","BA","2","1","R.jpg","O.jpg","1","0","0","",""
"","feedback","","html-keyboard-response","132","535180","0.0-1.0-150.0-0.0","0","0","76070","","null","","","null","16","","","","","","","","","","","","","","","",""
"","time_out","","html-keyboard-response","133","537189","0.0-1.0-152.0-0.0","0","0","76070","","null","","","null","16","","","","","","","","","","","","","","","",""
"","ITI","","html-keyboard-response","134","538195","0.0-1.0-153.0","0","0","76070","","null","","","null","16","","","","","","","","","","","","","","","NaN",""
"","S1","","html-keyboard-response","135","538451","0.0-1.0-155.0","0","0","76070","","null","","","null","17","","","","","","","","","","","","","","","",""
"","ISI","","html-keyboard-response","136","538957","0.0-1.0-156.0","0","0","76070","","null","","","null","17","NaN","","","","","","","","","","","","","","",""
"","S2","","html-keyboard-response","137","539214","0.0-1.0-157.0","0","0","76070","","null","","","null","17","","NaN","","","","","","","","","","","","","",""
"","response","","html-keyboard-response","138","539743","0.0-1.0-158.0-0.0","0","0","76070","","526","","","75","17","","","1","17","training","adjacent","FE","6","5","P.jpg","M.jpg","0","0","1","",""
"","feedback","","html-keyboard-response","139","540749","0.0-1.0-159.0-0.0","0","0","76070","","null","","","null","17","","","","","","","","","","","","","","","",""
"","ITI","","html-keyboard-response","140","541755","0.0-1.0-162.0","0","0","76070","","null","","","null","17","","","","","","","","","","","","","","","NaN",""
"","S1","","html-keyboard-response","141","542010","0.0-1.0-164.0","0","0","76070","","null","","","null","18","","","","","","","","","","","","","","","",""
"","ISI","","html-keyboard-response","142","542518","0.0-1.0-165.0","0","0","76070","","null","","","null","18","NaN","","","","","","","","","","","","","","",""
"","S2","","html-keyboard-response","143","542774","0.0-1.0-166.0","0","0","76070","","null","","","null","18","","NaN","","","","","","","","","","","","","",""
"","response","","html-keyboard-response","144","543073","0.0-1.0-167.0-0.0","0","0","76070","","292","","","68","18","","","1","18","training","adjacent","DE","4","5","Q.jpg","M.jpg","1","1","1","",""
"","feedback","","html-keyboard-response","145","544079","0.0-1.0-168.0-0.0","0","0","76070","","null","","","null","18","","","","","","","","","","","","","","","",""
"","ITI","","html-keyboard-response","146","545091","0.0-1.0-171.0","0","0","76070","","null","","","null","18","","","","","","","","","","","","","","","NaN",""
"","S1","","html-keyboard-response","147","545348","0.0-1.0-173.0","0","0","76070","","null","","","null","19","","","","","","","","","","","","","","","",""
"","ISI","","html-keyboard-response","148","545855","0.0-1.0-174.0","0","0","76070","","null","","","null","19","NaN","","","","","","","","","","","","","","",""
"","S2","","html-keyboard-response","149","546114","0.0-1.0-175.0","0","0","76070","","null","","","null","19","","NaN","","","","","","","","","","","","","",""
"","response","","html-keyboard-response","150","546592","0.0-1.0-176.0-0.0","0","0","76070","","469","","","75","19","","","1","19","training","adjacent","ED","5","4","M.jpg","Q.jpg","0","0","1","",""
"","feedback","","html-keyboard-response","151","547604","0.0-1.0-177.0-0.0","0","0","76070","","null","","","null","19","","","","","","","","","","","","","","","",""
"","ITI","","html-keyboard-response","152","548621","0.0-1.0-180.0","0","0","76070","","null","","","null","19","","","","","","","","","","","","","","","NaN",""
"","S1","","html-keyboard-response","153","548877","0.0-1.0-182.0","0","0","76070","","null","","","null","20","","","","","","","","","","","","","","","",""
"","ISI","","html-keyboard-response","154","549382","0.0-1.0-183.0","0","0","76070","","null","","","null","20","NaN","","","","","","","","","","","","","","",""
"","S2","","html-keyboard-response","155","549641","0.0-1.0-184.0","0","0","76070","","null","","","null","20","","NaN","","","","","","","","","","","","","",""
"","response","","html-keyboard-response","156","550095","0.0-1.0-185.0-0.0","0","0","76070","","448","","","68","20","","","1","20","training","adjacent","DC","4","3","Q.jpg","N.jpg","1","0","0","",""
"","feedback","","html-keyboard-response","157","551104","0.0-1.0-186.0-0.0","0","0","76070","","null","","","null","20","","","","","","","","","","","","","","","",""
"","time_out","","html-keyboard-response","158","553110","0.0-1.0-188.0-0.0","0","0","76070","","null","","","null","20","","","","","","","","","","","","","","","",""
"","ITI","","html-keyboard-response","159","554119","0.0-1.0-189.0","0","0","76070","","null","","","null","20","","","","","","","","","","","","","","","NaN",""
"","S1","","html-keyboard-response","160","554377","0.0-1.0-191.0","0","0","76070","","null","","","null","21","","","","","","","","","","","","","","","",""
"","ISI","","html-keyboard-response","161","554895","0.0-1.0-192.0","0","0","76070","","null","","","null","21","NaN","","","","","","","","","","","","","","",""
"","S2","","html-keyboard-response","162","555155","0.0-1.0-193.0","0","0","76070","","null","","","null","21","","NaN","","","","","","","","","","","","","",""
"","response","","html-keyboard-response","163","555756","0.0-1.0-194.0-0.0","0","0","76070","","597","","","75","21","","","1","21","training","adjacent","GF","7","6","L.jpg","P.jpg","0","0","1","",""
"","feedback","","html-keyboard-response","164","556764","0.0-1.0-195.0-0.0","0","0","76070","","null","","","null","21","","","","","","","","","","","","","","","",""
"","ITI","","html-keyboard-response","165","557771","0.0-1.0-198.0","0","0","76070","","null","","","null","21","","","","","","","","","","","","","","","NaN",""
"","S1","","html-keyboard-response","166","558029","0.0-1.0-200.0","0","0","76070","","null","","","null","22","","","","","","","","","","","","","","","",""
"","ISI","","html-keyboard-response","167","558534","0.0-1.0-201.0","0","0","76070","","null","","","null","22","NaN","","","","","","","","","","","","","","",""
"","S2","","html-keyboard-response","168","558792","0.0-1.0-202.0","0","0","76070","","null","","","null","22","","NaN","","","","","","","","","","","","","",""
"","response","","html-keyboard-response","169","559586","0.0-1.0-203.0-0.0","0","0","76070","","787","","","75","22","","","1","22","training","adjacent","CB","3","2","N.jpg","R.jpg","0","0","1","",""
"","feedback","","html-keyboard-response","170","560601","0.0-1.0-204.0-0.0","0","0","76070","","null","","","null","22","","","","","","","","","","","","","","","",""
"","ITI","","html-keyboard-response","171","561609","0.0-1.0-207.0","0","0","76070","","null","","","null","22","","","","","","","","","","","","","","","NaN",""
"","S1","","html-keyboard-response","172","561866","0.0-1.0-209.0","0","0","76070","","null","","","null","23","","","","","","","","","","","","","","","",""
"","ISI","","html-keyboard-response","173","562400","0.0-1.0-210.0","0","0","76070","","null","","","null","23","NaN","","","","","","","","","","","","","","",""
"","S2","","html-keyboard-response","174","562671","0.0-1.0-211.0","0","0","76070","","null","","","null","23","","NaN","","","","","","","","","","","","","",""
"","response","","html-keyboard-response","175","563529","0.0-1.0-212.0-0.0","0","0","76070","","848","","","68","23","","","1","23","training","adjacent","EF","5","6","M.jpg","P.jpg","1","1","1","",""
"","feedback","","html-keyboard-response","176","564547","0.0-1.0-213.0-0.0","0","0","76070","","null","","","null","23","","","","","","","","","","","","","","","",""
"","ITI","","html-keyboard-response","177","565555","0.0-1.0-216.0","0","0","76070","","null","","","null","23","","","","","","","","","","","","","","","NaN",""
"","S1","","html-keyboard-response","178","565817","0.0-1.0-218.0","0","0","76070","","null","","","null","24","","","","","","","","","","","","","","","",""
"","ISI","","html-keyboard-response","179","566323","0.0-1.0-219.0","0","0","76070","","null","","","null","24","NaN","","","","","","","","","","","","","","",""
"","S2","","html-keyboard-response","180","566581","0.0-1.0-220.0","0","0","76070","","null","","","null","24","","NaN","","","","","","","","","","","","","",""
"","response","","html-keyboard-response","181","567431","0.0-1.0-221.0-0.0","0","0","76070","","842","","","68","24","","","1","24","training","adjacent","BA","2","1","R.jpg","O.jpg","1","0","0","",""
"","feedback","","html-keyboard-response","182","568446","0.0-1.0-222.0-0.0","0","0","76070","","null","","","null","24","","","","","","","","","","","","","","","",""
"","time_out","","html-keyboard-response","183","570452","0.0-1.0-224.0-0.0","0","0","76070","","null","","","null","24","","","","","","","","","","","","","","","",""
"","ITI","","html-keyboard-response","184","571460","0.0-1.0-225.0","0","0","76070","","null","","","null","24","","","","","","","","","","","","","","","NaN",""
"","S1","","html-keyboard-response","185","571719","0.0-1.0-227.0","0","0","76070","","null","","","null","25","","","","","","","","","","","","","","","",""
"","ISI","","html-keyboard-response","186","572229","0.0-1.0-228.0","0","0","76070","","null","","","null","25","NaN","","","","","","","","","","","","","","",""
"","S2","","html-keyboard-response","187","572485","0.0-1.0-229.0","0","0","76070","","null","","","null","25","","NaN","","","","","","","","","","","","","",""
"","response","","html-keyboard-response","188","573146","0.0-1.0-230.0-0.0","0","0","76070","","654","","","75","25","","","1","25","training","adjacent","BA","2","1","R.jpg","O.jpg","0","0","1","",""
"","feedback","","html-keyboard-response","189","574154","0.0-1.0-231.0-0.0","0","0","76070","","null","","","null","25","","","","","","","","","","","","","","","",""
"","ITI","","html-keyboard-response","190","575160","0.0-1.0-234.0","0","0","76070","","null","","","null","25","","","","","","","","","","","","","","","NaN",""
"","S1","","html-keyboard-response","191","575427","0.0-1.0-236.0","0","0","76070","","null","","","null","26","","","","","","","","","","","","","","","",""
"","ISI","","html-keyboard-response","192","575933","0.0-1.0-237.0","0","0","76070","","null","","","null","26","NaN","","","","","","","","","","","","","","",""
"","S2","","html-keyboard-response","193","576190","0.0-1.0-238.0","0","0","76070","","null","","","null","26","","NaN","","","","","","","","","","","","","",""
"","response","","html-keyboard-response","194","576878","0.0-1.0-239.0-0.0","0","0","76070","","681","","","75","26","","","1","26","training","adjacent","DC","4","3","Q.jpg","N.jpg","0","0","1","",""
"","feedback","","html-keyboard-response","195","577887","0.0-1.0-240.0-0.0","0","0","76070","","null","","","null","26","","","","","","","","","","","","","","","",""
"","ITI","","html-keyboard-response","196","578895","0.0-1.0-243.0","0","0","76070","","null","","","null","26","","","","","","","","","","","","","","","NaN",""
"","S1","","html-keyboard-response","197","579152","0.0-1.0-245.0","0","0","76070","","null","","","null","27","","","","","","","","","","","","","","","",""
"","ISI","","html-keyboard-response","198","579659","0.0-1.0-246.0","0","0","76070","","null","","","null","27","NaN","","","","","","","","","","","","","","",""
"","S2","","html-keyboard-response","199","579926","0.0-1.0-247.0","0","0","76070","","null","","","null","27","","NaN","","","","","","","","","","","","","",""
"","response","","html-keyboard-response","200","580760","0.0-1.0-248.0-0.0","0","0","76070","","826","","","68","27","","","1","27","training","adjacent","CD","3","4","N.jpg","Q.jpg","1","1","1","",""
"","feedback","","html-keyboard-response","201","581765","0.0-1.0-249.0-0.0","0","0","76070","","null","","","null","27","","","","","","","","","","","","","","","",""
"","ITI","","html-keyboard-response","202","582771","0.0-1.0-252.0","0","0","76070","","null","","","null","27","","","","","","","","","","","","","","","NaN",""
"","S1","","html-keyboard-response","203","583026","0.0-1.0-254.0","0","0","76070","","null","","","null","28","","","","","","","","","","","","","","","",""
"","ISI","","html-keyboard-response","204","583531","0.0-1.0-255.0","0","0","76070","","null","","","null","28","NaN","","","","","","","","","","","","","","",""
"","S2","","html-keyboard-response","205","583787","0.0-1.0-256.0","0","0","76070","","null","","","null","28","","NaN","","","","","","","","","","","","","",""
"","response","","html-keyboard-response","206","584448","0.0-1.0-257.0-0.0","0","0","76070","","655","","","75","28","","","1","28","training","adjacent","EF","5","6","M.jpg","P.jpg","0","1","0","",""
"","feedback","","html-keyboard-response","207","585460","0.0-1.0-258.0-0.0","0","0","76070","","null","","","null","28","","","","","","","","","","","","","","","",""
"","time_out","","html-keyboard-response","208","587467","0.0-1.0-260.0-0.0","0","0","76070","","null","","","null","28","","","","","","","","","","","","","","","",""
"","ITI","","html-keyboard-response","209","588476","0.0-1.0-261.0","0","0","76070","","null","","","null","28","","","","","","","","","","","","","","","NaN",""
"","S1","","html-keyboard-response","210","588737","0.0-1.0-263.0","0","0","76070","","null","","","null","29","","","","","","","","","","","","","","","",""
"","ISI","","html-keyboard-response","211","589241","0.0-1.0-264.0","0","0","76070","","null","","","null","29","NaN","","","","","","","","","","","","","","",""
"","S2","","html-keyboard-response","212","589497","0.0-1.0-265.0","0","0","76070","","null","","","null","29","","NaN","","","","","","","","","","","","","",""
"","response","","html-keyboard-response","213","590293","0.0-1.0-266.0-0.0","0","0","76070","","789","","","75","29","","","1","29","training","adjacent","DE","4","5","Q.jpg","M.jpg","0","1","0","",""
"","feedback","","html-keyboard-response","214","591301","0.0-1.0-267.0-0.0","0","0","76070","","null","","","null","29","","","","","","","","","","","","","","","",""
"","time_out","","html-keyboard-response","215","593314","0.0-1.0-269.0-0.0","0","0","76070","","null","","","null","29","","","","","","","","","","","","","","","",""
"","ITI","","html-keyboard-response","216","594324","0.0-1.0-270.0","0","0","76070","","null","","","null","29","","","","","","","","","","","","","","","NaN",""
"","S1","","html-keyboard-response","217","594581","0.0-1.0-272.0","0","0","76070","","null","","","null","30","","","","","","","","","","","","","","","",""
"","ISI","","html-keyboard-response","218","595088","0.0-1.0-273.0","0","0","76070","","null","","","null","30","NaN","","","","","","","","","","","","","","",""
"","S2","","html-keyboard-response","219","595345","0.0-1.0-274.0","0","0","76070","","null","","","null","30","","NaN","","","","","","","","","","","","","",""
"","response","","html-keyboard-response","220","596337","0.0-1.0-275.0-0.0","0","0","76070","","983","","","75","30","","","1","30","training","adjacent","FE","6","5","P.jpg","M.jpg","0","0","1","",""
"","feedback","","html-keyboard-response","221","597348","0.0-1.0-276.0-0.0","0","0","76070","","null","","","null","30","","","","","","","","","","","","","","","",""
"","ITI","","html-keyboard-response","222","598357","0.0-1.0-279.0","0","0","76070","","null","","","null","30","","","","","","","","","","","","","","","NaN",""
"","S1","","html-keyboard-response","223","598611","0.0-1.0-281.0","0","0","76070","","null","","","null","31","","","","","","","","","","","","","","","",""
"","ISI","","html-keyboard-response","224","599116","0.0-1.0-282.0","0","0","76070","","null","","","null","31","NaN","","","","","","","","","","","","","","",""
"","S2","","html-keyboard-response","225","599372","0.0-1.0-283.0","0","0","76070","","null","","","null","31","","NaN","","","","","","","","","","","","","",""
"","response","","html-keyboard-response","226","600244","0.0-1.0-284.0-0.0","0","0","76070","","865","","","75","31","","","1","31","training","adjacent","CD","3","4","N.jpg","Q.jpg","0","1","0","",""
"","feedback","","html-keyboard-response","227","601257","0.0-1.0-285.0-0.0","0","0","76070","","null","","","null","31","","","","","","","","","","","","","","","",""
"","time_out","","html-keyboard-response","228","603265","0.0-1.0-287.0-0.0","0","0","76070","","null","","","null","31","","","","","","","","","","","","","","","",""
"","ITI","","html-keyboard-response","229","604272","0.0-1.0-288.0","0","0","76070","","null","","","null","31","","","","","","","","","","","","","","","NaN",""
"","S1","","html-keyboard-response","230","604529","0.0-1.0-290.0","0","0","76070","","null","","","null","32","","","","","","","","","","","","","","","",""
"","ISI","","html-keyboard-response","231","605034","0.0-1.0-291.0","0","0","76070","","null","","","null","32","NaN","","","","","","","","","","","","","","",""
"","S2","","html-keyboard-response","232","605289","0.0-1.0-292.0","0","0","76070","","null","","","null","32","","NaN","","","","","","","","","","","","","",""
"","response","","html-keyboard-response","233","605752","0.0-1.0-293.0-0.0","0","0","76070","","455","","","68","32","","","1","32","training","adjacent","GF","7","6","L.jpg","P.jpg","1","0","0","",""
"","feedback","","html-keyboard-response","234","606756","0.0-1.0-294.0-0.0","0","0","76070","","null","","","null","32","","","","","","","","","","","","","","","",""
"","time_out","","html-keyboard-response","235","608762","0.0-1.0-296.0-0.0","0","0","76070","","null","","","null","32","","","","","","","","","","","","","","","",""
"","ITI","","html-keyboard-response","236","609768","0.0-1.0-297.0","0","0","76070","","null","","","null","32","","","","","","","","","","","","","","","NaN",""
"","S1","","html-keyboard-response","237","610023","0.0-1.0-299.0","0","0","76070","","null","","","null","33","","","","","","","","","","","","","","","",""
"","ISI","","html-keyboard-response","238","610528","0.0-1.0-300.0","0","0","76070","","null","","","null","33","NaN","","","","","","","","","","","","","","",""
"","S2","","html-keyboard-response","239","610790","0.0-1.0-301.0","0","0","76070","","null","","","null","33","","NaN","","","","","","","","","","","","","",""
"","response","","html-keyboard-response","240","611481","0.0-1.0-302.0-0.0","0","0","76070","","686","","","75","33","","","1","33","training","adjacent","EF","5","6","M.jpg","P.jpg","0","1","0","",""
"","feedback","","html-keyboard-response","241","612489","0.0-1.0-303.0-0.0","0","0","76070","","null","","","null","33","","","","","","","","","","","","","","","",""
"","time_out","","html-keyboard-response","242","614498","0.0-1.0-305.0-0.0","0","0","76070","","null","","","null","33","","","","","","","","","","","","","","","",""
"","ITI","","html-keyboard-response","243","615506","0.0-1.0-306.0","0","0","76070","","null","","","null","33","","","","","","","","","","","","","","","NaN",""
"","S1","","html-keyboard-response","244","615762","0.0-1.0-308.0","0","0","76070","","null","","","null","34","","","","","","","","","","","","","","","",""
"","ISI","","html-keyboard-response","245","616270","0.0-1.0-309.0","0","0","76070","","null","","","null","34","NaN","","","","","","","","","","","","","","",""
"","S2","","html-keyboard-response","246","616528","0.0-1.0-310.0","0","0","76070","","null","","","null","34","","NaN","","","","","","","","","","","","","",""
"","response","","html-keyboard-response","247","617161","0.0-1.0-311.0-0.0","0","0","76070","","628","","","75","34","","","1","34","training","adjacent","FG","6","7","P.jpg","L.jpg","0","1","0","",""
"","feedback","","html-keyboard-response","248","618167","0.0-1.0-312.0-0.0","0","0","76070","","null","","","null","34","","","","","","","","","","","","","","","",""
"","time_out","","html-keyboard-response","249","620283","0.0-1.0-314.0-0.0","0","0","76070","","null","","","null","34","","","","","","","","","","","","","","","",""
"","ITI","","html-keyboard-response","250","621292","0.0-1.0-315.0","0","0","76070","","null","","","null","34","","","","","","","","","","","","","","","NaN",""
"","S1","","html-keyboard-response","251","621577","0.0-1.0-317.0","0","0","76070","","null","","","null","35","","","","","","","","","","","","","","","",""
"","ISI","","html-keyboard-response","252","622096","0.0-1.0-318.0","0","0","76070","","null","","","null","35","NaN","","","","","","","","","","","","","","",""
"","S2","","html-keyboard-response","253","622354","0.0-1.0-319.0","0","0","76070","","null","","","null","35","","NaN","","","","","","","","","","","","","",""
"","response","","html-keyboard-response","254","623168","0.0-1.0-320.0-0.0","0","0","76070","","808","","","68","35","","","1","35","training","adjacent","DC","4","3","Q.jpg","N.jpg","1","0","0","",""
"","feedback","","html-keyboard-response","255","624177","0.0-1.0-321.0-0.0","0","0","76070","","null","","","null","35","","","","","","","","","","","","","","","",""
"","time_out","","html-keyboard-response","256","626214","0.0-1.0-323.0-0.0","0","0","76070","","null","","","null","35","","","","","","","","","","","","","","","",""
"","ITI","","html-keyboard-response","257","627227","0.0-1.0-324.0","0","0","76070","","null","","","null","35","","","","","","","","","","","","","","","NaN",""
"","S1","","html-keyboard-response","258","627485","0.0-1.0-326.0","0","0","76070","","null","","","null","36","","","","","","","","","","","","","","","",""
"","ISI","","html-keyboard-response","259","627988","0.0-1.0-327.0","0","0","76070","","null","","","null","36","NaN","","","","","","","","","","","","","","",""
"","S2","","html-keyboard-response","260","628249","0.0-1.0-328.0","0","0","76070","","null","","","null","36","","NaN","","","","","","","","","","","","","",""
"","response","","html-keyboard-response","261","628986","0.0-1.0-329.0-0.0","0","0","76070","","728","","","75","36","","","1","36","training","adjacent","GF","7","6","L.jpg","P.jpg","0","0","1","",""
"","feedback","","html-keyboard-response","262","629992","0.0-1.0-330.0-0.0","0","0","76070","","null","","","null","36","","","","","","","","","","","","","","","",""
"","ITI","","html-keyboard-response","263","631007","0.0-1.0-333.0","0","0","76070","","null","","","null","36","","","","","","","","","","","","","","","NaN",""
"","S1","","html-keyboard-response","264","631264","0.0-1.0-335.0","0","0","76070","","null","","","null","37","","","","","","","","","","","","","","","",""
"","ISI","","html-keyboard-response","265","631769","0.0-1.0-336.0","0","0","76070","","null","","","null","37","NaN","","","","","","","","","","","","","","",""
"","S2","","html-keyboard-response","266","632027","0.0-1.0-337.0","0","0","76070","","null","","","null","37","","NaN","","","","","","","","","","","","","",""
"","response","","html-keyboard-response","267","633289","0.0-1.0-338.0-0.0","0","0","76070","","1254","","","68","37","","","1","37","training","adjacent","CB","3","2","N.jpg","R.jpg","1","0","0","",""
"","feedback","","html-keyboard-response","268","634301","0.0-1.0-339.0-0.0","0","0","76070","","null","","","null","37","","","","","","","","","","","","","","","",""
"","time_out","","html-keyboard-response","269","636311","0.0-1.0-341.0-0.0","0","0","76070","","null","","","null","37","","","","","","","","","","","","","","","",""
"","ITI","","html-keyboard-response","270","637323","0.0-1.0-342.0","0","0","76070","","null","","","null","37","","","","","","","","","","","","","","","NaN",""
"","S1","","html-keyboard-response","271","637578","0.0-1.0-344.0","0","0","76070","","null","","","null","38","","","","","","","","","","","","","","","",""
"","ISI","","html-keyboard-response","272","638084","0.0-1.0-345.0","0","0","76070","","null","","","null","38","NaN","","","","","","","","","","","","","","",""
"","S2","","html-keyboard-response","273","638341","0.0-1.0-346.0","0","0","76070","","null","","","null","38","","NaN","","","","","","","","","","","","","",""
"","response","","html-keyboard-response","274","639233","0.0-1.0-347.0-0.0","0","0","76070","","889","","","75","38","","","1","38","training","adjacent","AB","1","2","O.jpg","R.jpg","0","1","0","",""
"","feedback","","html-keyboard-response","275","640243","0.0-1.0-348.0-0.0","0","0","76070","","null","","","null","38","","","","","","","","","","","","","","","",""
"","time_out","","html-keyboard-response","276","642254","0.0-1.0-350.0-0.0","0","0","76070","","null","","","null","38","","","","","","","","","","","","","","","",""
"","ITI","","html-keyboard-response","277","643261","0.0-1.0-351.0","0","0","76070","","null","","","null","38","","","","","","","","","","","","","","","NaN",""
"","S1","","html-keyboard-response","278","643517","0.0-1.0-353.0","0","0","76070","","null","","","null","39","","","","","","","","","","","","","","","",""
"","ISI","","html-keyboard-response","279","644030","0.0-1.0-354.0","0","0","76070","","null","","","null","39","NaN","","","","","","","","","","","","","","",""
"","S2","","html-keyboard-response","280","644290","0.0-1.0-355.0","0","0","76070","","null","","","null","39","","NaN","","","","","","","","","","","","","",""
"","response","","html-keyboard-response","281","645055","0.0-1.0-356.0-0.0","0","0","76070","","761","","","68","39","","","1","39","training","adjacent","CD","3","4","N.jpg","Q.jpg","1","1","1","",""
"","feedback","","html-keyboard-response","282","646065","0.0-1.0-357.0-0.0","0","0","76070","","null","","","null","39","","","","","","","","","","","","","","","",""
"","ITI","","html-keyboard-response","283","647072","0.0-1.0-360.0","0","0","76070","","null","","","null","39","","","","","","","","","","","","","","","NaN",""
"","S1","","html-keyboard-response","284","647328","0.0-1.0-362.0","0","0","76070","","null","","","null","40","","","","","","","","","","","","","","","",""
"","ISI","","html-keyboard-response","285","647838","0.0-1.0-363.0","0","0","76070","","null","","","null","40","NaN","","","","","","","","","","","","","","",""
"","S2","","html-keyboard-response","286","648093","0.0-1.0-364.0","0","0","76070","","null","","","null","40","","NaN","","","","","","","","","","","","","",""
"","response","","html-keyboard-response","287","648838","0.0-1.0-365.0-0.0","0","0","76070","","737","","","68","40","","","1","40","training","adjacent","FG","6","7","P.jpg","L.jpg","1","1","1","",""
"","feedback","","html-keyboard-response","288","649846","0.0-1.0-366.0-0.0","0","0","76070","","null","","","null","40","","","","","","","","","","","","","","","",""
"","ITI","","html-keyboard-response","289","650855","0.0-1.0-369.0","0","0","76070","","null","","","null","40","","","","","","","","","","","","","","","NaN",""
"","S1","","html-keyboard-response","290","651113","0.0-1.0-371.0","0","0","76070","","null","","","null","41","","","","","","","","","","","","","","","",""
"","ISI","","html-keyboard-response","291","651617","0.0-1.0-372.0","0","0","76070","","null","","","null","41","NaN","","","","","","","","","","","","","","",""
"","S2","","html-keyboard-response","292","651876","0.0-1.0-373.0","0","0","76070","","null","","","null","41","","NaN","","","","","","","","","","","","","",""
"","response","","html-keyboard-response","293","652597","0.0-1.0-374.0-0.0","0","0","76070","","711","","","75","41","","","1","41","training","adjacent","CB","3","2","N.jpg","R.jpg","0","0","1","",""
"","feedback","","html-keyboard-response","294","653608","0.0-1.0-375.0-0.0","0","0","76070","","null","","","null","41","","","","","","","","","","","","","","","",""
"","ITI","","html-keyboard-response","295","654628","0.0-1.0-378.0","0","0","76070","","null","","","null","41","","","","","","","","","","","","","","","NaN",""
"","S1","","html-keyboard-response","296","654883","0.0-1.0-380.0","0","0","76070","","null","","","null","42","","","","","","","","","","","","","","","",""
"","ISI","","html-keyboard-response","297","655389","0.0-1.0-381.0","0","0","76070","","null","","","null","42","NaN","","","","","","","","","","","","","","",""
"","S2","","html-keyboard-response","298","655648","0.0-1.0-382.0","0","0","76070","","null","","","null","42","","NaN","","","","","","","","","","","","","",""
"","response","","html-keyboard-response","299","656389","0.0-1.0-383.0-0.0","0","0","76070","","735","","","75","42","","","1","42","training","adjacent","FG","6","7","P.jpg","L.jpg","0","1","0","",""
"","feedback","","html-keyboard-response","300","657399","0.0-1.0-384.0-0.0","0","0","76070","","null","","","null","42","","","","","","","","","","","","","","","",""
"","time_out","","html-keyboard-response","301","659425","0.0-1.0-386.0-0.0","0","0","76070","","null","","","null","42","","","","","","","","","","","","","","","",""
"","ITI","","html-keyboard-response","302","660433","0.0-1.0-387.0","0","0","76070","","null","","","null","42","","","","","","","","","","","","","","","NaN",""
"","S1","","html-keyboard-response","303","660689","0.0-1.0-389.0","0","0","76070","","null","","","null","43","","","","","","","","","","","","","","","",""
"","ISI","","html-keyboard-response","304","661193","0.0-1.0-390.0","0","0","76070","","null","","","null","43","NaN","","","","","","","","","","","","","","",""
"","S2","","html-keyboard-response","305","661450","0.0-1.0-391.0","0","0","76070","","null","","","null","43","","NaN","","","","","","","","","","","","","",""
"","response","","html-keyboard-response","306","662401","0.0-1.0-392.0-0.0","0","0","76070","","942","","","68","43","","","1","43","training","adjacent","AB","1","2","O.jpg","R.jpg","1","1","1","",""
"","feedback","","html-keyboard-response","307","663409","0.0-1.0-393.0-0.0","0","0","76070","","null","","","null","43","","","","","","","","","","","","","","","",""
"","ITI","","html-keyboard-response","308","664415","0.0-1.0-396.0","0","0","76070","","null","","","null","43","","","","","","","","","","","","","","","NaN",""
"","S1","","html-keyboard-response","309","664672","0.0-1.0-398.0","0","0","76070","","null","","","null","44","","","","","","","","","","","","","","","",""
"","ISI","","html-keyboard-response","310","665184","0.0-1.0-399.0","0","0","76070","","null","","","null","44","NaN","","","","","","","","","","","","","","",""
"","S2","","html-keyboard-response","311","665442","0.0-1.0-400.0","0","0","76070","","null","","","null","44","","NaN","","","","","","","","","","","","","",""
"","response","","html-keyboard-response","312","666757","0.0-1.0-401.0-0.0","0","0","76070","","1310","","","68","44","","","1","44","training","adjacent","BC","2","3","R.jpg","N.jpg","1","1","1","",""
"","feedback","","html-keyboard-response","313","667761","0.0-1.0-402.0-0.0","0","0","76070","","null","","","null","44","","","","","","","","","","","","","","","",""
"","ITI","","html-keyboard-response","314","668781","0.0-1.0-405.0","0","0","76070","","null","","","null","44","","","","","","","","","","","","","","","NaN",""
"","S1","","html-keyboard-response","315","669041","0.0-1.0-407.0","0","0","76070","","null","","","null","45","","","","","","","","","","","","","","","",""
"","ISI","","html-keyboard-response","316","669544","0.0-1.0-408.0","0","0","76070","","null","","","null","45","NaN","","","","","","","","","","","","","","",""
"","S2","","html-keyboard-response","317","669805","0.0-1.0-409.0","0","0","76070","","null","","","null","45","","NaN","","","","","","","","","","","","","",""
"","response","","html-keyboard-response","318","670958","0.0-1.0-410.0-0.0","0","0","76070","","1134","","","75","45","","","1","45","training","adjacent","AB","1","2","O.jpg","R.jpg","0","1","0","",""
"","feedback","","html-keyboard-response","319","671973","0.0-1.0-411.0-0.0","0","0","76070","","null","","","null","45","","","","","","","","","","","","","","","",""
"","time_out","","html-keyboard-response","320","673988","0.0-1.0-413.0-0.0","0","0","76070","","null","","","null","45","","","","","","","","","","","","","","","",""
"","ITI","","html-keyboard-response","321","674996","0.0-1.0-414.0","0","0","76070","","null","","","null","45","","","","","","","","","","","","","","","NaN",""
"","S1","","html-keyboard-response","322","675251","0.0-1.0-416.0","0","0","76070","","null","","","null","46","","","","","","","","","","","","","","","",""
"","ISI","","html-keyboard-response","323","675756","0.0-1.0-417.0","0","0","76070","","null","","","null","46","NaN","","","","","","","","","","","","","","",""
"","S2","","html-keyboard-response","324","676012","0.0-1.0-418.0","0","0","76070","","null","","","null","46","","NaN","","","","","","","","","","","","","",""
"","response","","html-keyboard-response","325","676736","0.0-1.0-419.0-0.0","0","0","76070","","713","","","68","46","","","1","46","training","adjacent","CD","3","4","N.jpg","Q.jpg","1","1","1","",""
"","feedback","","html-keyboard-response","326","677745","0.0-1.0-420.0-0.0","0","0","76070","","null","","","null","46","","","","","","","","","","","","","","","",""
"","ITI","","html-keyboard-response","327","678754","0.0-1.0-423.0","0","0","76070","","null","","","null","46","","","","","","","","","","","","","","","NaN",""
"","S1","","html-keyboard-response","328","679009","0.0-1.0-425.0","0","0","76070","","null","","","null","47","","","","","","","","","","","","","","","",""
"","ISI","","html-keyboard-response","329","679518","0.0-1.0-426.0","0","0","76070","","null","","","null","47","NaN","","","","","","","","","","","","","","",""
"","S2","","html-keyboard-response","330","679774","0.0-1.0-427.0","0","0","76070","","null","","","null","47","","NaN","","","","","","","","","","","","","",""
"","response","","html-keyboard-response","331","680914","0.0-1.0-428.0-0.0","0","0","76070","","1131","","","68","47","","","1","47","training","adjacent","BA","2","1","R.jpg","O.jpg","1","0","0","",""
"","feedback","","html-keyboard-response","332","681928","0.0-1.0-429.0-0.0","0","0","76070","","null","","","null","47","","","","","","","","","","","","","","","",""
"","time_out","","html-keyboard-response","333","683934","0.0-1.0-431.0-0.0","0","0","76070","","null","","","null","47","","","","","","","","","","","","","","","",""
"","ITI","","html-keyboard-response","334","684944","0.0-1.0-432.0","0","0","76070","","null","","","null","47","","","","","","","","","","","","","","","NaN",""
"","block_over","","html-keyboard-response","335","692551","0.0-1.0-433.0-0.0","0","0","76070","","7589","","","32","47","","","","","","","","","","","","","","","",""
"","S1","","html-keyboard-response","336","692817","0.0-1.0-434.0","0","0","76070","","null","","","null","48","","","","","","","","","","","","","","","",""
"","ISI","","html-keyboard-response","337","693324","0.0-1.0-435.0","0","0","76070","","null","","","null","48","NaN","","","","","","","","","","","","","","",""
"","S2","","html-keyboard-response","338","693579","0.0-1.0-436.0","0","0","76070","","null","","","null","48","","NaN","","","","","","","","","","","","","",""
"","response","","html-keyboard-response","339","694694","0.0-1.0-437.0-0.0","0","0","76070","","1108","","","75","48","","","2","48","training","adjacent","AB","1","2","O.jpg","R.jpg","0","1","0","",""
"","feedback","","html-keyboard-response","340","695704","0.0-1.0-438.0-0.0","0","0","76070","","null","","","null","48","","","","","","","","","","","","","","","",""
"","time_out","","html-keyboard-response","341","697714","0.0-1.0-440.0-0.0","0","0","76070","","null","","","null","48","","","","","","","","","","","","","","","",""
"","ITI","","html-keyboard-response","342","698721","0.0-1.0-441.0","0","0","76070","","null","","","null","48","","","","","","","","","","","","","","","NaN",""
"","S1","","html-keyboard-response","343","698977","0.0-1.0-443.0","0","0","76070","","null","","","null","49","","","","","","","","","","","","","","","",""
"","ISI","","html-keyboard-response","344","699484","0.0-1.0-444.0","0","0","76070","","null","","","null","49","NaN","","","","","","","","","","","","","","",""
"","S2","","html-keyboard-response","345","699741","0.0-1.0-445.0","0","0","76070","","null","","","null","49","","NaN","","","","","","","","","","","","","",""
"","response","","html-keyboard-response","346","700387","0.0-1.0-446.0-0.0","0","0","76070","","639","","","68","49","","","2","49","training","adjacent","FE","6","5","P.jpg","M.jpg","1","0","0","",""
"","feedback","","html-keyboard-response","347","701395","0.0-1.0-447.0-0.0","0","0","76070","","null","","","null","49","","","","","","","","","","","","","","","",""
"","time_out","","html-keyboard-response","348","703437","0.0-1.0-449.0-0.0","0","0","76070","","null","","","null","49","","","","","","","","","","","","","","","",""
"","ITI","","html-keyboard-response","349","704448","0.0-1.0-450.0","0","0","76070","","null","","","null","49","","","","","","","","","","","","","","","NaN",""
"","S1","","html-keyboard-response","350","704705","0.0-1.0-452.0","0","0","76070","","null","","","null","50","","","","","","","","","","","","","","","",""
"","ISI","","html-keyboard-response","351","705213","0.0-1.0-453.0","0","0","76070","","159","","","75","50","k","","","","","","","","","","","","","","",""
"","S2","","html-keyboard-response","352","705476","0.0-1.0-454.0","0","0","76070","","null","","","null","50","","NaN","","","","","","","","","","","","","",""
"","response","","html-keyboard-response","353","706665","0.0-1.0-455.0-0.0","0","0","76070","","1179","","","75","50","","","2","50","training","adjacent","DC","4","3","Q.jpg","N.jpg","0","0","1","",""
"","feedback","","html-keyboard-response","354","707674","0.0-1.0-456.0-0.0","0","0","76070","","null","","","null","50","","","","","","","","","","","","","","","",""
"","ITI","","html-keyboard-response","355","708687","0.0-1.0-459.0","0","0","76070","","null","","","null","50","","","","","","","","","","","","","","","NaN",""
"","S1","","html-keyboard-response","356","708945","0.0-1.0-461.0","0","0","76070","","null","","","null","51","","","","","","","","","","","","","","","",""
"","ISI","","html-keyboard-response","357","709451","0.0-1.0-462.0","0","0","76070","","null","","","null","51","NaN","","","","","","","","","","","","","","",""
"","S2","","html-keyboard-response","358","709706","0.0-1.0-463.0","0","0","76070","","null","","","null","51","","NaN","","","","","","","","","","","","","",""
"","response","","html-keyboard-response","359","710565","0.0-1.0-464.0-0.0","0","0","76070","","855","","","75","51","","","2","51","training","adjacent","BC","2","3","R.jpg","N.jpg","0","1","0","",""
"","feedback","","html-keyboard-response","360","711571","0.0-1.0-465.0-0.0","0","0","76070","","null","","","null","51","","","","","","","","","","","","","","","",""
"","time_out","","html-keyboard-response","361","713578","0.0-1.0-467.0-0.0","0","0","76070","","null","","","null","51","","","","","","","","","","","","","","","",""
"","ITI","","html-keyboard-response","362","714584","0.0-1.0-468.0","0","0","76070","","null","","","null","51","","","","","","","","","","","","","","","NaN",""
"","S1","","html-keyboard-response","363","714840","0.0-1.0-470.0","0","0","76070","","null","","","null","52","","","","","","","","","","","","","","","",""
"","ISI","","html-keyboard-response","364","715352","0.0-1.0-471.0","0","0","76070","","null","","","null","52","NaN","","","","","","","","","","","","","","",""
"","S2","","html-keyboard-response","365","715619","0.0-1.0-472.0","0","0","76070","","null","","","null","52","","NaN","","","","","","","","","","","","","",""
"","response","","html-keyboard-response","366","716490","0.0-1.0-473.0-0.0","0","0","76070","","864","","","68","52","","","2","52","training","adjacent","FG","6","7","P.jpg","L.jpg","1","1","1","",""
"","feedback","","html-keyboard-response","367","717499","0.0-1.0-474.0-0.0","0","0","76070","","null","","","null","52","","","","","","","","","","","","","","","",""
"","ITI","","html-keyboard-response","368","718507","0.0-1.0-477.0","0","0","76070","","null","","","null","52","","","","","","","","","","","","","","","NaN",""
"","S1","","html-keyboard-response","369","718768","0.0-1.0-479.0","0","0","76070","","null","","","null","53","","","","","","","","","","","","","","","",""
"","ISI","","html-keyboard-response","370","719276","0.0-1.0-480.0","0","0","76070","","null","","","null","53","NaN","","","","","","","","","","","","","","",""
"","S2","","html-keyboard-response","371","719533","0.0-1.0-481.0","0","0","76070","","null","","","null","53","","NaN","","","","","","","","","","","","","",""
"","response","","html-keyboard-response","372","720658","0.0-1.0-482.0-0.0","0","0","76070","","1117","","","68","53","","","2","53","training","adjacent","DE","4","5","Q.jpg","M.jpg","1","1","1","",""
"","feedback","","html-keyboard-response","373","721664","0.0-1.0-483.0-0.0","0","0","76070","","null","","","null","53","","","","","","","","","","","","","","","",""
"","ITI","","html-keyboard-response","374","722703","0.0-1.0-486.0","0","0","76070","","null","","","null","53","","","","","","","","","","","","","","","NaN",""
"","S1","","html-keyboard-response","375","722964","0.0-1.0-488.0","0","0","76070","","null","","","null","54","","","","","","","","","","","","","","","",""
"","ISI","","html-keyboard-response","376","723470","0.0-1.0-489.0","0","0","76070","","null","","","null","54","NaN","","","","","","","","","","","","","","",""
"","S2","","html-keyboard-response","377","723725","0.0-1.0-490.0","0","0","76070","","null","","","null","54","","NaN","","","","","","","","","","","","","",""
"","response","","html-keyboard-response","378","724779","0.0-1.0-491.0-0.0","0","0","76070","","1049","","","75","54","","","2","54","training","adjacent","FG","6","7","P.jpg","L.jpg","0","1","0","",""
"","feedback","","html-keyboard-response","379","725785","0.0-1.0-492.0-0.0","0","0","76070","","null","","","null","54","","","","","","","","","","","","","","","",""
"","time_out","","html-keyboard-response","380","727791","0.0-1.0-494.0-0.0","0","0","76070","","null","","","null","54","","","","","","","","","","","","","","","",""
"","ITI","","html-keyboard-response","381","728798","0.0-1.0-495.0","0","0","76070","","null","","","null","54","","","","","","","","","","","","","","","NaN",""
"","S1","","html-keyboard-response","382","729055","0.0-1.0-497.0","0","0","76070","","null","","","null","55","","","","","","","","","","","","","","","",""
"","ISI","","html-keyboard-response","383","729564","0.0-1.0-498.0","0","0","76070","","null","","","null","55","NaN","","","","","","","","","","","","","","",""
"","S2","","html-keyboard-response","384","729821","0.0-1.0-499.0","0","0","76070","","null","","","null","55","","NaN","","","","","","","","","","","","","",""
"","response","","html-keyboard-response","385","730547","0.0-1.0-500.0-0.0","0","0","76070","","719","","","68","55","","","2","55","training","adjacent","ED","5","4","M.jpg","Q.jpg","1","0","0","",""
"","feedback","","html-keyboard-response","386","731554","0.0-1.0-501.0-0.0","0","0","76070","","null","","","null","55","","","","","","","","","","","","","","","",""
"","time_out","","html-keyboard-response","387","733563","0.0-1.0-503.0-0.0","0","0","76070","","null","","","null","55","","","","","","","","","","","","","","","",""
"","ITI","","html-keyboard-response","388","734570","0.0-1.0-504.0","0","0","76070","","null","","","null","55","","","","","","","","","","","","","","","NaN",""
"","S1","","html-keyboard-response","389","734827","0.0-1.0-506.0","0","0","76070","","null","","","null","56","","","","","","","","","","","","","","","",""
"","ISI","","html-keyboard-response","390","735345","0.0-1.0-507.0","0","0","76070","","null","","","null","56","NaN","","","","","","","","","","","","","","",""
"","S2","","html-keyboard-response","391","735606","0.0-1.0-508.0","0","0","76070","","null","","","null","56","","NaN","","","","","","","","","","","","","",""
"","response","","html-keyboard-response","392","736464","0.0-1.0-509.0-0.0","0","0","76070","","852","","","75","56","","","2","56","training","adjacent","BC","2","3","R.jpg","N.jpg","0","1","0","",""
"","feedback","","html-keyboard-response","393","737503","0.0-1.0-510.0-0.0","0","0","76070","","null","","","null","56","","","","","","","","","","","","","","","",""
"","time_out","","html-keyboard-response","394","739514","0.0-1.0-512.0-0.0","0","0","76070","","null","","","null","56","","","","","","","","","","","","","","","",""
"","ITI","","html-keyboard-response","395","740522","0.0-1.0-513.0","0","0","76070","","null","","","null","56","","","","","","","","","","","","","","","NaN",""
"","S1","","html-keyboard-response","396","740774","0.0-1.0-515.0","0","0","76070","","null","","","null","57","","","","","","","","","","","","","","","",""
"","ISI","","html-keyboard-response","397","741278","0.0-1.0-516.0","0","0","76070","","null","","","null","57","NaN","","","","","","","","","","","","","","",""
"","S2","","html-keyboard-response","398","741544","0.0-1.0-517.0","0","0","76070","","null","","","null","57","","NaN","","","","","","","","","","","","","",""
"","response","","html-keyboard-response","399","742984","0.0-1.0-518.0-0.0","0","0","76070","","1432","","","68","57","","","2","57","training","adjacent","ED","5","4","M.jpg","Q.jpg","1","0","0","",""
"","feedback","","html-keyboard-response","400","743992","0.0-1.0-519.0-0.0","0","0","76070","","null","","","null","57","","","","","","","","","","","","","","","",""
"","time_out","","html-keyboard-response","401","746003","0.0-1.0-521.0-0.0","0","0","76070","","null","","","null","57","","","","","","","","","","","","","","","",""
"","ITI","","html-keyboard-response","402","747018","0.0-1.0-522.0","0","0","76070","","null","","","null","57","","","","","","","","","","","","","","","NaN",""
"","S1","","html-keyboard-response","403","747278","0.0-1.0-524.0","0","0","76070","","null","","","null","58","","","","","","","","","","","","","","","",""
"","ISI","","html-keyboard-response","404","747785","0.0-1.0-525.0","0","0","76070","","null","","","null","58","NaN","","","","","","","","","","","","","","",""
"","S2","","html-keyboard-response","405","748042","0.0-1.0-526.0","0","0","76070","","null","","","null","58","","NaN","","","","","","","","","","","","","",""
"","response","","html-keyboard-response","406","748747","0.0-1.0-527.0-0.0","0","0","76070","","697","","","75","58","","","2","58","training","adjacent","FG","6","7","P.jpg","L.jpg","0","1","0","",""
"","feedback","","html-keyboard-response","407","749758","0.0-1.0-528.0-0.0","0","0","76070","","null","","","null","58","","","","","","","","","","","","","","","",""
"","time_out","","html-keyboard-response","408","751767","0.0-1.0-530.0-0.0","0","0","76070","","null","","","null","58","","","","","","","","","","","","","","","",""
"","ITI","","html-keyboard-response","409","752773","0.0-1.0-531.0","0","0","76070","","null","","","null","58","","","","","","","","","","","","","","","NaN",""
"","S1","","html-keyboard-response","410","753028","0.0-1.0-533.0","0","0","76070","","null","","","null","59","","","","","","","","","","","","","","","",""
"","ISI","","html-keyboard-response","411","753533","0.0-1.0-534.0","0","0","76070","","null","","","null","59","NaN","","","","","","","","","","","","","","",""
"","S2","","html-keyboard-response","412","753798","0.0-1.0-535.0","0","0","76070","","null","","","null","59","","NaN","","","","","","","","","","","","","",""
"","response","","html-keyboard-response","413","754795","0.0-1.0-536.0-0.0","0","0","76070","","990","","","68","59","","","2","59","training","adjacent","GF","7","6","L.jpg","P.jpg","1","0","0","",""
"","feedback","","html-keyboard-response","414","755803","0.0-1.0-537.0-0.0","0","0","76070","","null","","","null","59","","","","","","","","","","","","","","","",""
"","time_out","","html-keyboard-response","415","757811","0.0-1.0-539.0-0.0","0","0","76070","","null","","","null","59","","","","","","","","","","","","","","","",""
"","ITI","","html-keyboard-response","416","758826","0.0-1.0-540.0","0","0","76070","","null","","","null","59","","","","","","","","","","","","","","","NaN",""
"","S1","","html-keyboard-response","417","759094","0.0-1.0-542.0","0","0","76070","","null","","","null","60","","","","","","","","","","","","","","","",""
"","ISI","","html-keyboard-response","418","759601","0.0-1.0-543.0","0","0","76070","","null","","","null","60","NaN","","","","","","","","","","","","","","",""
"","S2","","html-keyboard-response","419","759860","0.0-1.0-544.0","0","0","76070","","null","","","null","60","","NaN","","","","","","","","","","","","","",""
"","response","","html-keyboard-response","420","760864","0.0-1.0-545.0-0.0","0","0","76070","","995","","","75","60","","","2","60","training","adjacent","BA","2","1","R.jpg","O.jpg","0","0","1","",""
"","feedback","","html-keyboard-response","421","761872","0.0-1.0-546.0-0.0","0","0","76070","","null","","","null","60","","","","","","","","","","","","","","","",""
"","ITI","","html-keyboard-response","422","762882","0.0-1.0-549.0","0","0","76070","","null","","","null","60","","","","","","","","","","","","","","","NaN",""
"","S1","","html-keyboard-response","423","763138","0.0-1.0-551.0","0","0","76070","","null","","","null","61","","","","","","","","","","","","","","","",""
"","ISI","","html-keyboard-response","424","763641","0.0-1.0-552.0","0","0","76070","","null","","","null","61","NaN","","","","","","","","","","","","","","",""
"","S2","","html-keyboard-response","425","763900","0.0-1.0-553.0","0","0","76070","","null","","","null","61","","NaN","","","","","","","","","","","","","",""
"","response","","html-keyboard-response","426","764888","0.0-1.0-554.0-0.0","0","0","76070","","981","","","75","61","","","2","61","training","adjacent","EF","5","6","M.jpg","P.jpg","0","1","0","",""
"","feedback","","html-keyboard-response","427","765906","0.0-1.0-555.0-0.0","0","0","76070","","null","","","null","61","","","","","","","","","","","","","","","",""
"","time_out","","html-keyboard-response","428","767917","0.0-1.0-557.0-0.0","0","0","76070","","null","","","null","61","","","","","","","","","","","","","","","",""
"","ITI","","html-keyboard-response","429","768923","0.0-1.0-558.0","0","0","76070","","null","","","null","61","","","","","","","","","","","","","","","NaN",""
"","S1","","html-keyboard-response","430","769180","0.0-1.0-560.0","0","0","76070","","null","","","null","62","","","","","","","","","","","","","","","",""
"","ISI","","html-keyboard-response","431","769687","0.0-1.0-561.0","0","0","76070","","null","","","null","62","NaN","","","","","","","","","","","","","","",""
"","S2","","html-keyboard-response","432","769957","0.0-1.0-562.0","0","0","76070","","null","","","null","62","","NaN","","","","","","","","","","","","","",""
"","response","","html-keyboard-response","433","771261","0.0-1.0-563.0-0.0","0","0","76070","","1296","","","68","62","","","2","62","training","adjacent","FE","6","5","P.jpg","M.jpg","1","0","0","",""
"","feedback","","html-keyboard-response","434","772266","0.0-1.0-564.0-0.0","0","0","76070","","null","","","null","62","","","","","","","","","","","","","","","",""
"","time_out","","html-keyboard-response","435","774280","0.0-1.0-566.0-0.0","0","0","76070","","null","","","null","62","","","","","","","","","","","","","","","",""
"","ITI","","html-keyboard-response","436","775288","0.0-1.0-567.0","0","0","76070","","null","","","null","62","","","","","","","","","","","","","","","NaN",""
"","S1","","html-keyboard-response","437","775544","0.0-1.0-569.0","0","0","76070","","null","","","null","63","","","","","","","","","","","","","","","",""
"","ISI","","html-keyboard-response","438","776047","0.0-1.0-570.0","0","0","76070","","null","","","null","63","NaN","","","","","","","","","","","","","","",""
"","S2","","html-keyboard-response","439","776305","0.0-1.0-571.0","0","0","76070","","null","","","null","63","","NaN","","","","","","","","","","","","","",""
"","response","","html-keyboard-response","440","777250","0.0-1.0-572.0-0.0","0","0","76070","","937","","","75","63","","","2","63","training","adjacent","CB","3","2","N.jpg","R.jpg","0","0","1","",""
"","feedback","","html-keyboard-response","441","778256","0.0-1.0-573.0-0.0","0","0","76070","","null","","","null","63","","","","","","","","","","","","","","","",""
"","ITI","","html-keyboard-response","442","779261","0.0-1.0-576.0","0","0","76070","","null","","","null","63","","","","","","","","","","","","","","","NaN",""
"","S1","","html-keyboard-response","443","779516","0.0-1.0-578.0","0","0","76070","","null","","","null","64","","","","","","","","","","","","","","","",""
"","ISI","","html-keyboard-response","444","780044","0.0-1.0-579.0","0","0","76070","","null","","","null","64","NaN","","","","","","","","","","","","","","",""
"","S2","","html-keyboard-response","445","780334","0.0-1.0-580.0","0","0","76070","","null","","","null","64","","NaN","","","","","","","","","","","","","",""
"","response","","html-keyboard-response","446","781465","0.0-1.0-581.0-0.0","0","0","76070","","1126","","","75","64","","","2","64","training","adjacent","AB","1","2","O.jpg","R.jpg","0","1","0","",""
"","feedback","","html-keyboard-response","447","782477","0.0-1.0-582.0-0.0","0","0","76070","","null","","","null","64","","","","","","","","","","","","","","","",""
"","time_out","","html-keyboard-response","448","784497","0.0-1.0-584.0-0.0","0","0","76070","","null","","","null","64","","","","","","","","","","","","","","","",""
"","ITI","","html-keyboard-response","449","785506","0.0-1.0-585.0","0","0","76070","","null","","","null","64","","","","","","","","","","","","","","","NaN",""
"","S1","","html-keyboard-response","450","785766","0.0-1.0-587.0","0","0","76070","","null","","","null","65","","","","","","","","","","","","","","","",""
"","ISI","","html-keyboard-response","451","786272","0.0-1.0-588.0","0","0","76070","","null","","","null","65","NaN","","","","","","","","","","","","","","",""
"","S2","","html-keyboard-response","452","786549","0.0-1.0-589.0","0","0","76070","","null","","","null","65","","NaN","","","","","","","","","","","","","",""
"","response","","html-keyboard-response","453","787524","0.0-1.0-590.0-0.0","0","0","76070","","961","","","68","65","","","2","65","training","adjacent","EF","5","6","M.jpg","P.jpg","1","1","1","",""
"","feedback","","html-keyboard-response","454","788531","0.0-1.0-591.0-0.0","0","0","76070","","null","","","null","65","","","","","","","","","","","","","","","",""
"","ITI","","html-keyboard-response","455","789538","0.0-1.0-594.0","0","0","76070","","null","","","null","65","","","","","","","","","","","","","","","NaN",""
"","S1","","html-keyboard-response","456","789794","0.0-1.0-596.0","0","0","76070","","null","","","null","66","","","","","","","","","","","","","","","",""
"","ISI","","html-keyboard-response","457","790302","0.0-1.0-597.0","0","0","76070","","null","","","null","66","NaN","","","","","","","","","","","","","","",""
"","S2","","html-keyboard-response","458","790558","0.0-1.0-598.0","0","0","76070","","null","","","null","66","","NaN","","","","","","","","","","","","","",""
"","response","","html-keyboard-response","459","791638","0.0-1.0-599.0-0.0","0","0","76070","","1074","","","75","66","","","2","66","training","adjacent","CD","3","4","N.jpg","Q.jpg","0","1","0","",""
"","feedback","","html-keyboard-response","460","792644","0.0-1.0-600.0-0.0","0","0","76070","","null","","","null","66","","","","","","","","","","","","","","","",""
"","time_out","","html-keyboard-response","461","794654","0.0-1.0-602.0-0.0","0","0","76070","","null","","","null","66","","","","","","","","","","","","","","","",""
"","ITI","","html-keyboard-response","462","795663","0.0-1.0-603.0","0","0","76070","","null","","","null","66","","","","","","","","","","","","","","","NaN",""
"","S1","","html-keyboard-response","463","795920","0.0-1.0-605.0","0","0","76070","","null","","","null","67","","","","","","","","","","","","","","","",""
"","ISI","","html-keyboard-response","464","796425","0.0-1.0-606.0","0","0","76070","","null","","","null","67","NaN","","","","","","","","","","","","","","",""
"","S2","","html-keyboard-response","465","796684","0.0-1.0-607.0","0","0","76070","","null","","","null","67","","NaN","","","","","","","","","","","","","",""
"","response","","html-keyboard-response","466","797514","0.0-1.0-608.0-0.0","0","0","76070","","823","","","75","67","","","2","67","training","adjacent","AB","1","2","O.jpg","R.jpg","0","1","0","",""
"","feedback","","html-keyboard-response","467","798522","0.0-1.0-609.0-0.0","0","0","76070","","null","","","null","67","","","","","","","","","","","","","","","",""
"","time_out","","html-keyboard-response","468","800530","0.0-1.0-611.0-0.0","0","0","76070","","null","","","null","67","","","","","","","","","","","","","","","",""
"","ITI","","html-keyboard-response","469","801537","0.0-1.0-612.0","0","0","76070","","null","","","null","67","","","","","","","","","","","","","","","NaN",""
"","S1","","html-keyboard-response","470","801792","0.0-1.0-614.0","0","0","76070","","null","","","null","68","","","","","","","","","","","","","","","",""
"","ISI","","html-keyboard-response","471","802298","0.0-1.0-615.0","0","0","76070","","null","","","null","68","NaN","","","","","","","","","","","","","","",""
"","S2","","html-keyboard-response","472","802556","0.0-1.0-616.0","0","0","76070","","null","","","null","68","","NaN","","","","","","","","","","","","","",""
"","response","","html-keyboard-response","473","803033","0.0-1.0-617.0-0.0","0","0","76070","","469","","","68","68","","","2","68","training","adjacent","CD","3","4","N.jpg","Q.jpg","1","1","1","",""
"","feedback","","html-keyboard-response","474","804042","0.0-1.0-618.0-0.0","0","0","76070","","null","","","null","68","","","","","","","","","","","","","","","",""
"","ITI","","html-keyboard-response","475","805050","0.0-1.0-621.0","0","0","76070","","null","","","null","68","","","","","","","","","","","","","","","NaN",""
"","S1","","html-keyboard-response","476","805306","0.0-1.0-623.0","0","0","76070","","null","","","null","69","","","","","","","","","","","","","","","",""
"","ISI","","html-keyboard-response","477","805829","0.0-1.0-624.0","0","0","76070","","null","","","null","69","NaN","","","","","","","","","","","","","","",""
"","S2","","html-keyboard-response","478","806085","0.0-1.0-625.0","0","0","76070","","null","","","null","69","","NaN","","","","","","","","","","","","","",""
"","response","","html-keyboard-response","479","806959","0.0-1.0-626.0-0.0","0","0","76070","","866","","","68","69","","","2","69","training","adjacent","DC","4","3","Q.jpg","N.jpg","1","0","0","",""
"","feedback","","html-keyboard-response","480","807965","0.0-1.0-627.0-0.0","0","0","76070","","null","","","null","69","","","","","","","","","","","","","","","",""
"","time_out","","html-keyboard-response","481","809977","0.0-1.0-629.0-0.0","0","0","76070","","null","","","null","69","","","","","","","","","","","","","","","",""
"","ITI","","html-keyboard-response","482","810984","0.0-1.0-630.0","0","0","76070","","null","","","null","69","","","","","","","","","","","","","","","NaN",""
"","S1","","html-keyboard-response","483","811241","0.0-1.0-632.0","0","0","76070","","null","","","null","70","","","","","","","","","","","","","","","",""
"","ISI","","html-keyboard-response","484","811745","0.0-1.0-633.0","0","0","76070","","null","","","null","70","NaN","","","","","","","","","","","","","","",""
"","S2","","html-keyboard-response","485","812003","0.0-1.0-634.0","0","0","76070","","null","","","null","70","","NaN","","","","","","","","","","","","","",""
"","response","","html-keyboard-response","486","812836","0.0-1.0-635.0-0.0","0","0","76070","","827","","","75","70","","","2","70","training","adjacent","FG","6","7","P.jpg","L.jpg","0","1","0","",""
"","feedback","","html-keyboard-response","487","813843","0.0-1.0-636.0-0.0","0","0","76070","","null","","","null","70","","","","","","","","","","","","","","","",""
"","time_out","","html-keyboard-response","488","815849","0.0-1.0-638.0-0.0","0","0","76070","","null","","","null","70","","","","","","","","","","","","","","","",""
"","ITI","","html-keyboard-response","489","816861","0.0-1.0-639.0","0","0","76070","","null","","","null","70","","","","","","","","","","","","","","","NaN",""
"","S1","","html-keyboard-response","490","817117","0.0-1.0-641.0","0","0","76070","","null","","","null","71","","","","","","","","","","","","","","","",""
"","ISI","","html-keyboard-response","491","817621","0.0-1.0-642.0","0","0","76070","","null","","","null","71","NaN","","","","","","","","","","","","","","",""
"","S2","","html-keyboard-response","492","817875","0.0-1.0-643.0","0","0","76070","","null","","","null","71","","NaN","","","","","","","","","","","","","",""
"","response","","html-keyboard-response","493","818953","0.0-1.0-644.0-0.0","0","0","76070","","1071","","","68","71","","","2","71","training","adjacent","DC","4","3","Q.jpg","N.jpg","1","0","0","",""
"","feedback","","html-keyboard-response","494","819961","0.0-1.0-645.0-0.0","0","0","76070","","null","","","null","71","","","","","","","","","","","","","","","",""
"","time_out","","html-keyboard-response","495","821970","0.0-1.0-647.0-0.0","0","0","76070","","null","","","null","71","","","","","","","","","","","","","","","",""
"","ITI","","html-keyboard-response","496","822976","0.0-1.0-648.0","0","0","76070","","null","","","null","71","","","","","","","","","","","","","","","NaN",""
"","S1","","html-keyboard-response","497","823231","0.0-1.0-650.0","0","0","76070","","null","","","null","72","","","","","","","","","","","","","","","",""
"","ISI","","html-keyboard-response","498","823738","0.0-1.0-651.0","0","0","76070","","null","","","null","72","NaN","","","","","","","","","","","","","","",""
"","S2","","html-keyboard-response","499","823995","0.0-1.0-652.0","0","0","76070","","null","","","null","72","","NaN","","","","","","","","","","","","","",""
"","response","","html-keyboard-response","500","825029","0.0-1.0-653.0-0.0","0","0","76070","","1028","","","75","72","","","2","72","training","adjacent","EF","5","6","M.jpg","P.jpg","0","1","0","",""
"","feedback","","html-keyboard-response","501","826041","0.0-1.0-654.0-0.0","0","0","76070","","null","","","null","72","","","","","","","","","","","","","","","",""
"","time_out","","html-keyboard-response","502","828049","0.0-1.0-656.0-0.0","0","0","76070","","null","","","null","72","","","","","","","","","","","","","","","",""
"","ITI","","html-keyboard-response","503","829061","0.0-1.0-657.0","0","0","76070","","null","","","null","72","","","","","","","","","","","","","","","NaN",""
"","S1","","html-keyboard-response","504","829318","0.0-1.0-659.0","0","0","76070","","null","","","null","73","","","","","","","","","","","","","","","",""
"","ISI","","html-keyboard-response","505","829827","0.0-1.0-660.0","0","0","76070","","null","","","null","73","NaN","","","","","","","","","","","","","","",""
"","S2","","html-keyboard-response","506","830085","0.0-1.0-661.0","0","0","76070","","null","","","null","73","","NaN","","","","","","","","","","","","","",""
"","response","","html-keyboard-response","507","831292","0.0-1.0-662.0-0.0","0","0","76070","","1202","","","68","73","","","2","73","training","adjacent","BA","2","1","R.jpg","O.jpg","1","0","0","",""
"","feedback","","html-keyboard-response","508","832300","0.0-1.0-663.0-0.0","0","0","76070","","null","","","null","73","","","","","","","","","","","","","","","",""
"","time_out","","html-keyboard-response","509","834310","0.0-1.0-665.0-0.0","0","0","76070","","null","","","null","73","","","","","","","","","","","","","","","",""
"","ITI","","html-keyboard-response","510","835316","0.0-1.0-666.0","0","0","76070","","null","","","null","73","","","","","","","","","","","","","","","NaN",""
"","S1","","html-keyboard-response","511","835574","0.0-1.0-668.0","0","0","76070","","null","","","null","74","","","","","","","","","","","","","","","",""
"","ISI","","html-keyboard-response","512","836082","0.0-1.0-669.0","0","0","76070","","null","","","null","74","NaN","","","","","","","","","","","","","","",""
"","S2","","html-keyboard-response","513","836341","0.0-1.0-670.0","0","0","76070","","null","","","null","74","","NaN","","","","","","","","","","","","","",""
"","response","","html-keyboard-response","514","837342","0.0-1.0-671.0-0.0","0","0","76070","","993","","","75","74","","","2","74","training","adjacent","GF","7","6","L.jpg","P.jpg","0","0","1","",""
"","feedback","","html-keyboard-response","515","838350","0.0-1.0-672.0-0.0","0","0","76070","","null","","","null","74","","","","","","","","","","","","","","","",""
"","ITI","","html-keyboard-response","516","839357","0.0-1.0-675.0","0","0","76070","","null","","","null","74","","","","","","","","","","","","","","","NaN",""
"","S1","","html-keyboard-response","517","839640","0.0-1.0-677.0","0","0","76070","","null","","","null","75","","","","","","","","","","","","","","","",""
"","ISI","","html-keyboard-response","518","840165","0.0-1.0-678.0","0","0","76070","","null","","","null","75","NaN","","","","","","","","","","","","","","",""
"","S2","","html-keyboard-response","519","840423","0.0-1.0-679.0","0","0","76070","","null","","","null","75","","NaN","","","","","","","","","","","","","",""
"","response","","html-keyboard-response","520","842178","0.0-1.0-680.0-0.0","0","0","76070","","null","","","null","75","","","2","75","training","adjacent","CB","3","2","N.jpg","R.jpg","NaN","0","0","",""
"","too_slow_prompt","","html-keyboard-response","521","843182","0.0-1.0-682.0-0.0","1","0","76070","","null","","","null","","","","","","","","","","","","","","","","",""
"","time_out","","html-keyboard-response","522","845190","0.0-1.0-683.0-0.0","0","0","76070","","null","","","null","75","","","","","","","","","","","","","","","",""
"","ITI","","html-keyboard-response","523","846200","0.0-1.0-684.0","0","0","76070","","null","","","null","75","","","","","","","","","","","","","","","NaN",""
"","S1","","html-keyboard-response","524","846457","0.0-1.0-686.0","0","0","76070","","null","","","null","76","","","","","","","","","","","","","","","",""
"","ISI","","html-keyboard-response","525","846965","0.0-1.0-687.0","0","0","76070","","null","","","null","76","NaN","","","","","","","","","","","","","","",""
"","S2","","html-keyboard-response","526","847221","0.0-1.0-688.0","0","0","76070","","null","","","null","76","","NaN","","","","","","","","","","","","","",""
"","response","","html-keyboard-response","527","848979","0.0-1.0-689.0-0.0","0","0","76070","","null","","","null","76","","","2","76","training","adjacent","EF","5","6","M.jpg","P.jpg","NaN","1","0","",""
"","too_slow_prompt","","html-keyboard-response","528","849986","0.0-1.0-691.0-0.0","1","0","76070","","null","","","null","","","","","","","","","","","","","","","","",""
"","time_out","","html-keyboard-response","529","851995","0.0-1.0-692.0-0.0","0","0","76070","","null","","","null","76","","","","","","","","","","","","","","","",""
"","ITI","","html-keyboard-response","530","853004","0.0-1.0-693.0","0","0","76070","","null","","","null","76","","","","","","","","","","","","","","","NaN",""
"","S1","","html-keyboard-response","531","853264","0.0-1.0-695.0","0","0","76070","","null","","","null","77","","","","","","","","","","","","","","","",""
"","ISI","","html-keyboard-response","532","853770","0.0-1.0-696.0","0","0","76070","","null","","","null","77","NaN","","","","","","","","","","","","","","",""
"","S2","","html-keyboard-response","533","854026","0.0-1.0-697.0","0","0","76070","","null","","","null","77","","NaN","","","","","","","","","","","","","",""
"","response","","html-keyboard-response","534","854996","0.0-1.0-698.0-0.0","0","0","76070","","964","","","75","77","","","2","77","training","adjacent","CD","3","4","N.jpg","Q.jpg","0","1","0","",""
"","feedback","","html-keyboard-response","535","856005","0.0-1.0-699.0-0.0","0","0","76070","","null","","","null","77","","","","","","","","","","","","","","","",""
"","time_out","","html-keyboard-response","536","858015","0.0-1.0-701.0-0.0","0","0","76070","","null","","","null","77","","","","","","","","","","","","","","","",""
"","ITI","","html-keyboard-response","537","859022","0.0-1.0-702.0","0","0","76070","","null","","","null","77","","","","","","","","","","","","","","","NaN",""
"","S1","","html-keyboard-response","538","859280","0.0-1.0-704.0","0","0","76070","","null","","","null","78","","","","","","","","","","","","","","","",""
"","ISI","","html-keyboard-response","539","859783","0.0-1.0-705.0","0","0","76070","","null","","","null","78","NaN","","","","","","","","","","","","","","",""
"","S2","","html-keyboard-response","540","860040","0.0-1.0-706.0","0","0","76070","","null","","","null","78","","NaN","","","","","","","","","","","","","",""
"","response","","html-keyboard-response","541","860567","0.0-1.0-707.0-0.0","0","0","76070","","519","","","68","78","","","2","78","training","adjacent","DE","4","5","Q.jpg","M.jpg","1","1","1","",""
"","feedback","","html-keyboard-response","542","861573","0.0-1.0-708.0-0.0","0","0","76070","","null","","","null","78","","","","","","","","","","","","","","","",""
"","ITI","","html-keyboard-response","543","862579","0.0-1.0-711.0","0","0","76070","","null","","","null","78","","","","","","","","","","","","","","","NaN",""
"","S1","","html-keyboard-response","544","862833","0.0-1.0-713.0","0","0","76070","","null","","","null","79","","","","","","","","","","","","","","","",""
"","ISI","","html-keyboard-response","545","863339","0.0-1.0-714.0","0","0","76070","","null","","","null","79","NaN","","","","","","","","","","","","","","",""
"","S2","","html-keyboard-response","546","863596","0.0-1.0-715.0","0","0","76070","","null","","","null","79","","NaN","","","","","","","","","","","","","",""
"","response","","html-keyboard-response","547","863853","0.0-1.0-716.0-0.0","0","0","76070","","251","","","68","79","","","2","79","training","adjacent","GF","7","6","L.jpg","P.jpg","1","0","0","",""
"","feedback","","html-keyboard-response","548","864860","0.0-1.0-717.0-0.0","0","0","76070","","null","","","null","79","","","","","","","","","","","","","","","",""
"","time_out","","html-keyboard-response","549","866870","0.0-1.0-719.0-0.0","0","0","76070","","null","","","null","79","","","","","","","","","","","","","","","",""
"","ITI","","html-keyboard-response","550","867879","0.0-1.0-720.0","0","0","76070","","null","","","null","79","","","","","","","","","","","","","","","NaN",""
"","S1","","html-keyboard-response","551","868139","0.0-1.0-722.0","0","0","76070","","null","","","null","80","","","","","","","","","","","","","","","",""
"","ISI","","html-keyboard-response","552","868650","0.0-1.0-723.0","0","0","76070","","null","","","null","80","NaN","","","","","","","","","","","","","","",""
"","S2","","html-keyboard-response","553","868909","0.0-1.0-724.0","0","0","76070","","null","","","null","80","","NaN","","","","","","","","","","","","","",""
"","response","","html-keyboard-response","554","869294","0.0-1.0-725.0-0.0","0","0","76070","","377","","","75","80","","","2","80","training","adjacent","BA","2","1","R.jpg","O.jpg","0","0","1","",""
"","feedback","","html-keyboard-response","555","870304","0.0-1.0-726.0-0.0","0","0","76070","","null","","","null","80","","","","","","","","","","","","","","","",""
"","ITI","","html-keyboard-response","556","871321","0.0-1.0-729.0","0","0","76070","","null","","","null","80","","","","","","","","","","","","","","","NaN",""
"","S1","","html-keyboard-response","557","871577","0.0-1.0-731.0","0","0","76070","","null","","","null","81","","","","","","","","","","","","","","","",""
"","ISI","","html-keyboard-response","558","872081","0.0-1.0-732.0","0","0","76070","","null","","","null","81","NaN","","","","","","","","","","","","","","",""
"","S2","","html-keyboard-response","559","872348","0.0-1.0-733.0","0","0","76070","","null","","","null","81","","NaN","","","","","","","","","","","","","",""
"","response","","html-keyboard-response","560","873164","0.0-1.0-734.0-0.0","0","0","76070","","808","","","75","81","","","2","81","training","adjacent","CD","3","4","N.jpg","Q.jpg","0","1","0","",""
"","feedback","","html-keyboard-response","561","874171","0.0-1.0-735.0-0.0","0","0","76070","","null","","","null","81","","","","","","","","","","","","","","","",""
"","time_out","","html-keyboard-response","562","876179","0.0-1.0-737.0-0.0","0","0","76070","","null","","","null","81","","","","","","","","","","","","","","","",""
"","ITI","","html-keyboard-response","563","877186","0.0-1.0-738.0","0","0","76070","","null","","","null","81","","","","","","","","","","","","","","","NaN",""
"","S1","","html-keyboard-response","564","877446","0.0-1.0-740.0","0","0","76070","","null","","","null","82","","","","","","","","","","","","","","","",""
"","ISI","","html-keyboard-response","565","877952","0.0-1.0-741.0","0","0","76070","","null","","","null","82","NaN","","","","","","","","","","","","","","",""
"","S2","","html-keyboard-response","566","878210","0.0-1.0-742.0","0","0","76070","","null","","","null","82","","NaN","","","","","","","","","","","","","",""
"","response","","html-keyboard-response","567","878983","0.0-1.0-743.0-0.0","0","0","76070","","764","","","75","82","","","2","82","training","adjacent","BA","2","1","R.jpg","O.jpg","0","0","1","",""
"","feedback","","html-keyboard-response","568","879995","0.0-1.0-744.0-0.0","0","0","76070","","null","","","null","82","","","","","","","","","","","","","","","",""
"","ITI","","html-keyboard-response","569","881005","0.0-1.0-747.0","0","0","76070","","null","","","null","82","","","","","","","","","","","","","","","NaN",""
