"success","ttype","start_time","trial_type","trial_index","time_elapsed","internal_node_id","warning","missed_checkup","PID","view_history","rt","responses","repeat_instructions","key_press","index","keypress_isi","keypress_S2","block","trial_num","phase","group_type","pair_type","S1_stim","S2_stim","S1_img","S2_img","S1_chosen","S1_higher","accuracy","keypress_iti","total_bonus_tally"
"true","full_screen","d04132023hr2120","fullscreen","0","4431","0.0-0.0","0","0","91055","","","","","","","","","","","","","","","","","","","","","",""
"","instructions","","instructions","1","36907","0.0-1.0-0.0-0.0","0","0","91055","[{""page_index"":0,""viewing_time"":4299},{""page_index"":1,""viewing_time"":15303},{""page_index"":2,""viewing_time"":10889},{""page_index"":3,""viewing_time"":1983}]","32475","","","","","","","","","","","","","","","","","","","",""
"","comprehension_check","","survey-multi-choice","2","71548","0.0-1.0-0.0-1.0","0","0","91055","","34638","{""Q0"":""True"",""Q1"":""D"",""Q2"":""Only when the screen 'MAKE A CHOICE' is shown"",""Q3"":""Green mark"",""Q4"":""either D or K""}","1","","","","","","","","","","","","","","","","","",""
"","missed_instruction_checkup","","html-keyboard-response","3","74979","0.0-1.0-0.0-2.0-0.0","0","1","91055","","3428","","","32","","","","","","","","","","","","","","","","",""
"","instructions","","instructions","4","85042","0.0-1.0-0.1-0.1","0","0","91055","[{""page_index"":0,""viewing_time"":2837},{""page_index"":1,""viewing_time"":4577},{""page_index"":2,""viewing_time"":1391},{""page_index"":3,""viewing_time"":1256}]","10061","","","","","","","","","","","","","","","","","","","",""
"","comprehension_check","","survey-multi-choice","5","98107","0.0-1.0-0.1-1.1","0","0","91055","","13061","{""Q0"":""True"",""Q1"":""D"",""Q2"":""Once the second image appears and while the screen 'MAKE A CHOICE' is shown"",""Q3"":""Green mark"",""Q4"":""either D or K""}","1","","","","","","","","","","","","","","","","","",""
"","missed_instruction_checkup","","html-keyboard-response","6","100726","0.0-1.0-0.1-2.1-0.1","0","1","91055","","2615","","","32","","","","","","","","","","","","","","","","",""
"","instructions","","instructions","7","120546","0.0-1.0-0.2-0.2","0","0","91055","[{""page_index"":0,""viewing_time"":3979},{""page_index"":1,""viewing_time"":13079},{""page_index"":2,""viewing_time"":2032},{""page_index"":3,""viewing_time"":728}]","19819","","","","","","","","","","","","","","","","","","","",""
"","comprehension_check","","survey-multi-choice","8","142762","0.0-1.0-0.2-1.2","0","0","91055","","22210","{""Q0"":""True"",""Q1"":""D"",""Q2"":""Only while the second image is shown"",""Q3"":""Green mark"",""Q4"":""either D or K""}","1","","","","","","","","","","","","","","","","","",""
"","missed_instruction_checkup","","html-keyboard-response","9","144718","0.0-1.0-0.2-2.2-0.2","0","1","91055","","1951","","","32","","","","","","","","","","","","","","","","",""
"","instructions","","instructions","10","164186","0.0-1.0-0.3-0.3","0","0","91055","[{""page_index"":0,""viewing_time"":5482},{""page_index"":1,""viewing_time"":11808},{""page_index"":2,""viewing_time"":1112},{""page_index"":3,""viewing_time"":1064}]","19466","","","","","","","","","","","","","","","","","","","",""
"","comprehension_check","","survey-multi-choice","11","176106","0.0-1.0-0.3-1.3","0","0","91055","","11916","{""Q0"":""True"",""Q1"":""K"",""Q2"":""Once the second image appears and while the screen 'MAKE A CHOICE' is shown"",""Q3"":""Green mark"",""Q4"":""either D or K""}","0","","","","","","","","","","","","","","","","","",""
"","start_exp","","html-keyboard-response","12","180611","0.0-1.0-1.0","0","0","91055","","4500","","","32","","","","","","","","","","","","","","","","",""
"","S1","","html-keyboard-response","13","180873","0.0-1.0-2.0","0","0","91055","","null","","","null","0","","","","","","","","","","","","","","","",""
"","ISI","","html-keyboard-response","14","181881","0.0-1.0-3.0","0","0","91055","","null","","","null","0","NaN","","","","","","","","","","","","","","",""
"","S2","","html-keyboard-response","15","182138","0.0-1.0-4.0","0","0","91055","","null","","","null","0","","NaN","","","","","","","","","","","","","",""
"","response","","html-keyboard-response","16","182644","0.0-1.0-5.0-0.0","0","0","91055","","504","","","75","0","","","1","0","training","adjacent","BC","2","3","N.jpg","Q.jpg","1","1","1","",""
"","feedback","","html-keyboard-response","17","183649","0.0-1.0-6.0-0.0","0","0","91055","","null","","","null","0","","","","","","","","","","","","","","","",""
"","ITI","","html-keyboard-response","18","184661","0.0-1.0-9.0","0","0","91055","","null","","","null","0","","","","","","","","","","","","","","","NaN",""
"","S1","","html-keyboard-response","19","184920","0.0-1.0-11.0","0","0","91055","","null","","","null","1","","","","","","","","","","","","","","","",""
"","ISI","","html-keyboard-response","20","185929","0.0-1.0-12.0","0","0","91055","","null","","","null","1","NaN","","","","","","","","","","","","","","",""
"","S2","","html-keyboard-response","21","186184","0.0-1.0-13.0","0","0","91055","","null","","","null","1","","NaN","","","","","","","","","","","","","",""
"","response","","html-keyboard-response","22","186738","0.0-1.0-14.0-0.0","0","0","91055","","553","","","75","1","","","1","1","training","adjacent","AB","1","2","P.jpg","N.jpg","1","1","1","",""
"","feedback","","html-keyboard-response","23","187755","0.0-1.0-15.0-0.0","0","0","91055","","null","","","null","1","","","","","","","","","","","","","","","",""
"","ITI","","html-keyboard-response","24","188761","0.0-1.0-18.0","0","0","91055","","null","","","null","1","","","","","","","","","","","","","","","NaN",""
"","S1","","html-keyboard-response","25","189020","0.0-1.0-20.0","0","0","91055","","null","","","null","2","","","","","","","","","","","","","","","",""
"","ISI","","html-keyboard-response","26","190023","0.0-1.0-21.0","0","0","91055","","null","","","null","2","NaN","","","","","","","","","","","","","","",""
"","S2","","html-keyboard-response","27","190280","0.0-1.0-22.0","0","0","91055","","null","","","null","2","","NaN","","","","","","","","","","","","","",""
"","response","","html-keyboard-response","28","190886","0.0-1.0-23.0-0.0","0","0","91055","","603","","","75","2","","","1","2","training","adjacent","CB","3","2","Q.jpg","N.jpg","1","0","0","",""
"","feedback","","html-keyboard-response","29","191896","0.0-1.0-24.0-0.0","0","0","91055","","null","","","null","2","","","","","","","","","","","","","","","",""
"","time_out","","html-keyboard-response","30","193905","0.0-1.0-26.0-0.0","0","0","91055","","null","","","null","2","","","","","","","","","","","","","","","",""
"","ITI","","html-keyboard-response","31","194911","0.0-1.0-27.0","0","0","91055","","null","","","null","2","","","","","","","","","","","","","","","NaN",""
"","S1","","html-keyboard-response","32","195169","0.0-1.0-29.0","0","0","91055","","null","","","null","3","","","","","","","","","","","","","","","",""
"","ISI","","html-keyboard-response","33","196177","0.0-1.0-30.0","0","0","91055","","null","","","null","3","NaN","","","","","","","","","","","","","","",""
"","S2","","html-keyboard-response","34","196444","0.0-1.0-31.0","0","0","91055","","null","","","null","3","","NaN","","","","","","","","","","","","","",""
"","response","","html-keyboard-response","35","196916","0.0-1.0-32.0-0.0","0","0","91055","","471","","","75","3","","","1","3","training","adjacent","ED","5","4","R.jpg","M.jpg","1","0","0","",""
"","feedback","","html-keyboard-response","36","197921","0.0-1.0-33.0-0.0","0","0","91055","","null","","","null","3","","","","","","","","","","","","","","","",""
"","time_out","","html-keyboard-response","37","199928","0.0-1.0-35.0-0.0","0","0","91055","","null","","","null","3","","","","","","","","","","","","","","","",""
"","ITI","","html-keyboard-response","38","200938","0.0-1.0-36.0","0","0","91055","","null","","","null","3","","","","","","","","","","","","","","","NaN",""
"","S1","","html-keyboard-response","39","201192","0.0-1.0-38.0","0","0","91055","","null","","","null","4","","","","","","","","","","","","","","","",""
"","ISI","","html-keyboard-response","40","202199","0.0-1.0-39.0","0","0","91055","","null","","","null","4","NaN","","","","","","","","","","","","","","",""
"","S2","","html-keyboard-response","41","202455","0.0-1.0-40.0","0","0","91055","","null","","","null","4","","NaN","","","","","","","","","","","","","",""
"","response","","html-keyboard-response","42","202644","0.0-1.0-41.0-0.0","0","0","91055","","186","","","75","4","","","1","4","training","adjacent","DE","4","5","M.jpg","R.jpg","1","1","1","",""
"","feedback","","html-keyboard-response","43","203647","0.0-1.0-42.0-0.0","0","0","91055","","null","","","null","4","","","","","","","","","","","","","","","",""
"","ITI","","html-keyboard-response","44","204662","0.0-1.0-45.0","0","0","91055","","null","","","null","4","","","","","","","","","","","","","","","NaN",""
"","S1","","html-keyboard-response","45","204920","0.0-1.0-47.0","0","0","91055","","null","","","null","5","","","","","","","","","","","","","","","",""
"","ISI","","html-keyboard-response","46","205928","0.0-1.0-48.0","0","0","91055","","null","","","null","5","NaN","","","","","","","","","","","","","","",""
"","S2","","html-keyboard-response","47","206197","0.0-1.0-49.0","0","0","91055","","null","","","null","5","","NaN","","","","","","","","","","","","","",""
"","response","","html-keyboard-response","48","206826","0.0-1.0-50.0-0.0","0","0","91055","","627","","","75","5","","","1","5","training","adjacent","CB","3","2","Q.jpg","N.jpg","1","0","0","",""
"","feedback","","html-keyboard-response","49","207835","0.0-1.0-51.0-0.0","0","0","91055","","null","","","null","5","","","","","","","","","","","","","","","",""
"","time_out","","html-keyboard-response","50","209840","0.0-1.0-53.0-0.0","0","0","91055","","null","","","null","5","","","","","","","","","","","","","","","",""
"","ITI","","html-keyboard-response","51","210860","0.0-1.0-54.0","0","0","91055","","null","","","null","5","","","","","","","","","","","","","","","NaN",""
"","S1","","html-keyboard-response","52","211121","0.0-1.0-56.0","0","0","91055","","null","","","null","6","","","","","","","","","","","","","","","",""
"","ISI","","html-keyboard-response","53","212129","0.0-1.0-57.0","0","0","91055","","null","","","null","6","NaN","","","","","","","","","","","","","","",""
"","S2","","html-keyboard-response","54","212384","0.0-1.0-58.0","0","0","91055","","null","","","null","6","","NaN","","","","","","","","","","","","","",""
"","response","","html-keyboard-response","55","212647","0.0-1.0-59.0-0.0","0","0","91055","","261","","","75","6","","","1","6","training","adjacent","EF","5","6","R.jpg","L.jpg","1","1","1","",""
"","feedback","","html-keyboard-response","56","213656","0.0-1.0-60.0-0.0","0","0","91055","","null","","","null","6","","","","","","","","","","","","","","","",""
"","ITI","","html-keyboard-response","57","214664","0.0-1.0-63.0","0","0","91055","","null","","","null","6","","","","","","","","","","","","","","","NaN",""
"","S1","","html-keyboard-response","58","214921","0.0-1.0-65.0","0","0","91055","","null","","","null","7","","","","","","","","","","","","","","","",""
"","ISI","","html-keyboard-response","59","215928","0.0-1.0-66.0","0","0","91055","","null","","","null","7","NaN","","","","","","","","","","","","","","",""
"","S2","","html-keyboard-response","60","216197","0.0-1.0-67.0","0","0","91055","","null","","","null","7","","NaN","","","","","","","","","","","","","",""
"","response","","html-keyboard-response","61","216651","0.0-1.0-68.0-0.0","0","0","91055","","451","","","75","7","","","1","7","training","adjacent","CD","3","4","Q.jpg","M.jpg","1","1","1","",""
"","feedback","","html-keyboard-response","62","217655","0.0-1.0-69.0-0.0","0","0","91055","","null","","","null","7","","","","","","","","","","","","","","","",""
"","ITI","","html-keyboard-response","63","218665","0.0-1.0-72.0","0","0","91055","","null","","","null","7","","","","","","","","","","","","","","","NaN",""
"","S1","","html-keyboard-response","64","218921","0.0-1.0-74.0","0","0","91055","","null","","","null","8","","","","","","","","","","","","","","","",""
"","ISI","","html-keyboard-response","65","219928","0.0-1.0-75.0","0","0","91055","","null","","","null","8","NaN","","","","","","","","","","","","","","",""
"","S2","","html-keyboard-response","66","220184","0.0-1.0-76.0","0","0","91055","","null","","","null","8","","NaN","","","","","","","","","","","","","",""
"","response","","html-keyboard-response","67","220504","0.0-1.0-77.0-0.0","0","0","91055","","317","","","75","8","","","1","8","training","adjacent","BC","2","3","N.jpg","Q.jpg","1","1","1","",""
"","feedback","","html-keyboard-response","68","221511","0.0-1.0-78.0-0.0","0","0","91055","","null","","","null","8","","","","","","","","","","","","","","","",""
"","ITI","","html-keyboard-response","69","222520","0.0-1.0-81.0","0","0","91055","","null","","","null","8","","","","","","","","","","","","","","","NaN",""
"","S1","","html-keyboard-response","70","222775","0.0-1.0-83.0","0","0","91055","","null","","","null","9","","","","","","","","","","","","","","","",""
"","ISI","","html-keyboard-response","71","223784","0.0-1.0-84.0","0","0","91055","","null","","","null","9","NaN","","","","","","","","","","","","","","",""
"","S2","","html-keyboard-response","72","224039","0.0-1.0-85.0","0","0","91055","","null","","","null","9","","NaN","","","","","","","","","","","","","",""
"","response","","html-keyboard-response","73","224532","0.0-1.0-86.0-0.0","0","0","91055","","491","","","75","9","","","1","9","training","adjacent","AB","1","2","P.jpg","N.jpg","1","1","1","",""
"","feedback","","html-keyboard-response","74","225537","0.0-1.0-87.0-0.0","0","0","91055","","null","","","null","9","","","","","","","","","","","","","","","",""
"","ITI","","html-keyboard-response","75","226545","0.0-1.0-90.0","0","0","91055","","null","","","null","9","","","","","","","","","","","","","","","NaN",""
"","S1","","html-keyboard-response","76","226808","0.0-1.0-92.0","0","0","91055","","null","","","null","10","","","","","","","","","","","","","","","",""
"","ISI","","html-keyboard-response","77","227816","0.0-1.0-93.0","0","0","91055","","null","","","null","10","NaN","","","","","","","","","","","","","","",""
"","S2","","html-keyboard-response","78","228071","0.0-1.0-94.0","0","0","91055","","null","","","null","10","","NaN","","","","","","","","","","","","","",""
"","response","","html-keyboard-response","79","228394","0.0-1.0-95.0-0.0","0","0","91055","","322","","","75","10","","","1","10","training","adjacent","ED","5","4","R.jpg","M.jpg","1","0","0","",""
"","feedback","","html-keyboard-response","80","229400","0.0-1.0-96.0-0.0","0","0","91055","","null","","","null","10","","","","","","","","","","","","","","","",""
"","time_out","","html-keyboard-response","81","231408","0.0-1.0-98.0-0.0","0","0","91055","","null","","","null","10","","","","","","","","","","","","","","","",""
"","ITI","","html-keyboard-response","82","232416","0.0-1.0-99.0","0","0","91055","","null","","","null","10","","","","","","","","","","","","","","","NaN",""
"","S1","","html-keyboard-response","83","232673","0.0-1.0-101.0","0","0","91055","","null","","","null","11","","","","","","","","","","","","","","","",""
"","ISI","","html-keyboard-response","84","233680","0.0-1.0-102.0","0","0","91055","","null","","","null","11","NaN","","","","","","","","","","","","","","",""
"","S2","","html-keyboard-response","85","233936","0.0-1.0-103.0","0","0","91055","","null","","","null","11","","NaN","","","","","","","","","","","","","",""
"","response","","html-keyboard-response","86","234362","0.0-1.0-104.0-0.0","0","0","91055","","424","","","75","11","","","1","11","training","adjacent","FG","6","7","L.jpg","O.jpg","1","1","1","",""
"","feedback","","html-keyboard-response","87","235370","0.0-1.0-105.0-0.0","0","0","91055","","null","","","null","11","","","","","","","","","","","","","","","",""
"","ITI","","html-keyboard-response","88","236377","0.0-1.0-108.0","0","0","91055","","null","","","null","11","","","","","","","","","","","","","","","NaN",""
"","S1","","html-keyboard-response","89","236633","0.0-1.0-110.0","0","0","91055","","null","","","null","12","","","","","","","","","","","","","","","",""
"","ISI","","html-keyboard-response","90","237642","0.0-1.0-111.0","0","0","91055","","null","","","null","12","NaN","","","","","","","","","","","","","","",""
"","S2","","html-keyboard-response","91","237895","0.0-1.0-112.0","0","0","91055","","null","","","null","12","","NaN","","","","","","","","","","","","","",""
"","response","","html-keyboard-response","92","238444","0.0-1.0-113.0-0.0","0","0","91055","","548","","","75","12","","","1","12","training","adjacent","GF","7","6","O.jpg","L.jpg","1","0","0","",""
"","feedback","","html-keyboard-response","93","239448","0.0-1.0-114.0-0.0","0","0","91055","","null","","","null","12","","","","","","","","","","","","","","","",""
"","time_out","","html-keyboard-response","94","241456","0.0-1.0-116.0-0.0","0","0","91055","","null","","","null","12","","","","","","","","","","","","","","","",""
"","ITI","","html-keyboard-response","95","242464","0.0-1.0-117.0","0","0","91055","","null","","","null","12","","","","","","","","","","","","","","","NaN",""
"","S1","","html-keyboard-response","96","242720","0.0-1.0-119.0","0","0","91055","","null","","","null","13","","","","","","","","","","","","","","","",""
"","ISI","","html-keyboard-response","97","243729","0.0-1.0-120.0","0","0","91055","","null","","","null","13","NaN","","","","","","","","","","","","","","",""
"","S2","","html-keyboard-response","98","243984","0.0-1.0-121.0","0","0","91055","","null","","","null","13","","NaN","","","","","","","","","","","","","",""
"","response","","html-keyboard-response","99","244674","0.0-1.0-122.0-0.0","0","0","91055","","688","","","75","13","","","1","13","training","adjacent","BA","2","1","N.jpg","P.jpg","1","0","0","",""
"","feedback","","html-keyboard-response","100","245684","0.0-1.0-123.0-0.0","0","0","91055","","null","","","null","13","","","","","","","","","","","","","","","",""
"","time_out","","html-keyboard-response","101","247688","0.0-1.0-125.0-0.0","0","0","91055","","null","","","null","13","","","","","","","","","","","","","","","",""
"","ITI","","html-keyboard-response","102","248699","0.0-1.0-126.0","0","0","91055","","null","","","null","13","","","","","","","","","","","","","","","NaN",""
"","S1","","html-keyboard-response","103","248955","0.0-1.0-128.0","0","0","91055","","null","","","null","14","","","","","","","","","","","","","","","",""
"","ISI","","html-keyboard-response","104","249961","0.0-1.0-129.0","0","0","91055","","null","","","null","14","NaN","","","","","","","","","","","","","","",""
"","S2","","html-keyboard-response","105","250216","0.0-1.0-130.0","0","0","91055","","null","","","null","14","","NaN","","","","","","","","","","","","","",""
"","response","","html-keyboard-response","106","250548","0.0-1.0-131.0-0.0","0","0","91055","","331","","","75","14","","","1","14","training","adjacent","FE","6","5","L.jpg","R.jpg","1","0","0","",""
"","feedback","","html-keyboard-response","107","251552","0.0-1.0-132.0-0.0","0","0","91055","","null","","","null","14","","","","","","","","","","","","","","","",""
"","time_out","","html-keyboard-response","108","253562","0.0-1.0-134.0-0.0","0","0","91055","","null","","","null","14","","","","","","","","","","","","","","","",""
"","ITI","","html-keyboard-response","109","254568","0.0-1.0-135.0","0","0","91055","","867","","","75","14","","","","","","","","","","","","","","","k",""
"","S1","","html-keyboard-response","110","254824","0.0-1.0-137.0","0","0","91055","","null","","","null","15","","","","","","","","","","","","","","","",""
"","ISI","","html-keyboard-response","111","255833","0.0-1.0-138.0","0","0","91055","","null","","","null","15","NaN","","","","","","","","","","","","","","",""
"","S2","","html-keyboard-response","112","256088","0.0-1.0-139.0","0","0","91055","","null","","","null","15","","NaN","","","","","","","","","","","","","",""
"","response","","html-keyboard-response","113","256555","0.0-1.0-140.0-0.0","0","0","91055","","465","","","75","15","","","1","15","training","adjacent","CD","3","4","Q.jpg","M.jpg","1","1","1","",""
"","feedback","","html-keyboard-response","114","257559","0.0-1.0-141.0-0.0","0","0","91055","","null","","","null","15","","","","","","","","","","","","","","","",""
"","ITI","","html-keyboard-response","115","258568","0.0-1.0-144.0","0","0","91055","","null","","","null","15","","","","","","","","","","","","","","","NaN",""
"","S1","","html-keyboard-response","116","258823","0.0-1.0-146.0","0","0","91055","","null","","","null","16","","","","","","","","","","","","","","","",""
"","ISI","","html-keyboard-response","117","259840","0.0-1.0-147.0","0","0","91055","","null","","","null","16","NaN","","","","","","","","","","","","","","",""
"","S2","","html-keyboard-response","118","260103","0.0-1.0-148.0","0","0","91055","","null","","","null","16","","NaN","","","","","","","","","","","","","",""
"","response","","html-keyboard-response","119","260684","0.0-1.0-149.0-0.0","0","0","91055","","579","","","75","16","","","1","16","training","adjacent","DC","4","3","M.jpg","Q.jpg","1","0","0","",""
"","feedback","","html-keyboard-response","120","261688","0.0-1.0-150.0-0.0","0","0","91055","","null","","","null","16","","","","","","","","","","","","","","","",""
"","time_out","","html-keyboard-response","121","263697","0.0-1.0-152.0-0.0","0","0","91055","","null","","","null","16","","","","","","","","","","","","","","","",""
"","ITI","","html-keyboard-response","122","264705","0.0-1.0-153.0","0","0","91055","","null","","","null","16","","","","","","","","","","","","","","","NaN",""
"","S1","","html-keyboard-response","123","264959","0.0-1.0-155.0","0","0","91055","","null","","","null","17","","","","","","","","","","","","","","","",""
"","ISI","","html-keyboard-response","124","265968","0.0-1.0-156.0","0","0","91055","","null","","","null","17","NaN","","","","","","","","","","","","","","",""
"","S2","","html-keyboard-response","125","266225","0.0-1.0-157.0","0","0","91055","","null","","","null","17","","NaN","","","","","","","","","","","","","",""
"","response","","html-keyboard-response","126","266715","0.0-1.0-158.0-0.0","0","0","91055","","487","","","75","17","","","1","17","training","adjacent","FE","6","5","L.jpg","R.jpg","1","0","0","",""
"","feedback","","html-keyboard-response","127","267723","0.0-1.0-159.0-0.0","0","0","91055","","null","","","null","17","","","","","","","","","","","","","","","",""
"","time_out","","html-keyboard-response","128","269727","0.0-1.0-161.0-0.0","0","0","91055","","null","","","null","17","","","","","","","","","","","","","","","",""
"","ITI","","html-keyboard-response","129","270736","0.0-1.0-162.0","0","0","91055","","null","","","null","17","","","","","","","","","","","","","","","NaN",""
"","S1","","html-keyboard-response","130","270997","0.0-1.0-164.0","0","0","91055","","null","","","null","18","","","","","","","","","","","","","","","",""
"","ISI","","html-keyboard-response","131","272008","0.0-1.0-165.0","0","0","91055","","null","","","null","18","NaN","","","","","","","","","","","","","","",""
"","S2","","html-keyboard-response","132","272268","0.0-1.0-166.0","0","0","91055","","null","","","null","18","","NaN","","","","","","","","","","","","","",""
"","response","","html-keyboard-response","133","272717","0.0-1.0-167.0-0.0","0","0","91055","","447","","","75","18","","","1","18","training","adjacent","FG","6","7","L.jpg","O.jpg","1","1","1","",""
"","feedback","","html-keyboard-response","134","273719","0.0-1.0-168.0-0.0","0","0","91055","","null","","","null","18","","","","","","","","","","","","","","","",""
"","ITI","","html-keyboard-response","135","274727","0.0-1.0-171.0","0","0","91055","","null","","","null","18","","","","","","","","","","","","","","","NaN",""
"","S1","","html-keyboard-response","136","274984","0.0-1.0-173.0","0","0","91055","","null","","","null","19","","","","","","","","","","","","","","","",""
"","ISI","","html-keyboard-response","137","275993","0.0-1.0-174.0","0","0","91055","","null","","","null","19","NaN","","","","","","","","","","","","","","",""
"","S2","","html-keyboard-response","138","276248","0.0-1.0-175.0","0","0","91055","","null","","","null","19","","NaN","","","","","","","","","","","","","",""
"","response","","html-keyboard-response","139","276778","0.0-1.0-176.0-0.0","0","0","91055","","529","","","75","19","","","1","19","training","adjacent","AB","1","2","P.jpg","N.jpg","1","1","1","",""
"","feedback","","html-keyboard-response","140","277783","0.0-1.0-177.0-0.0","0","0","91055","","null","","","null","19","","","","","","","","","","","","","","","",""
"","ITI","","html-keyboard-response","141","278793","0.0-1.0-180.0","0","0","91055","","null","","","null","19","","","","","","","","","","","","","","","NaN",""
"","S1","","html-keyboard-response","142","279048","0.0-1.0-182.0","0","0","91055","","null","","","null","20","","","","","","","","","","","","","","","",""
"","ISI","","html-keyboard-response","143","280056","0.0-1.0-183.0","0","0","91055","","null","","","null","20","NaN","","","","","","","","","","","","","","",""
"","S2","","html-keyboard-response","144","280314","0.0-1.0-184.0","0","0","91055","","null","","","null","20","","NaN","","","","","","","","","","","","","",""
"","response","","html-keyboard-response","145","281011","0.0-1.0-185.0-0.0","0","0","91055","","694","","","75","20","","","1","20","training","adjacent","DC","4","3","M.jpg","Q.jpg","1","0","0","",""
"","feedback","","html-keyboard-response","146","282017","0.0-1.0-186.0-0.0","0","0","91055","","null","","","null","20","","","","","","","","","","","","","","","",""
"","time_out","","html-keyboard-response","147","284025","0.0-1.0-188.0-0.0","0","0","91055","","null","","","null","20","","","","","","","","","","","","","","","",""
"","ITI","","html-keyboard-response","148","285032","0.0-1.0-189.0","0","0","91055","","null","","","null","20","","","","","","","","","","","","","","","NaN",""
"","S1","","html-keyboard-response","149","285288","0.0-1.0-191.0","0","0","91055","","null","","","null","21","","","","","","","","","","","","","","","",""
"","ISI","","html-keyboard-response","150","286309","0.0-1.0-192.0","0","0","91055","","null","","","null","21","NaN","","","","","","","","","","","","","","",""
"","S2","","html-keyboard-response","151","286572","0.0-1.0-193.0","0","0","91055","","null","","","null","21","","NaN","","","","","","","","","","","","","",""
"","response","","html-keyboard-response","152","286949","0.0-1.0-194.0-0.0","0","0","91055","","374","","","75","21","","","1","21","training","adjacent","EF","5","6","R.jpg","L.jpg","1","1","1","",""
"","feedback","","html-keyboard-response","153","287952","0.0-1.0-195.0-0.0","0","0","91055","","null","","","null","21","","","","","","","","","","","","","","","",""
"","ITI","","html-keyboard-response","154","288961","0.0-1.0-198.0","0","0","91055","","null","","","null","21","","","","","","","","","","","","","","","NaN",""
"","S1","","html-keyboard-response","155","289216","0.0-1.0-200.0","0","0","91055","","null","","","null","22","","","","","","","","","","","","","","","",""
"","ISI","","html-keyboard-response","156","290226","0.0-1.0-201.0","0","0","91055","","null","","","null","22","NaN","","","","","","","","","","","","","","",""
"","S2","","html-keyboard-response","157","290481","0.0-1.0-202.0","0","0","91055","","null","","","null","22","","NaN","","","","","","","","","","","","","",""
"","response","","html-keyboard-response","158","291663","0.0-1.0-203.0-0.0","0","0","91055","","1178","","","75","22","","","1","22","training","adjacent","BC","2","3","N.jpg","Q.jpg","1","1","1","",""
"","feedback","","html-keyboard-response","159","292673","0.0-1.0-204.0-0.0","0","0","91055","","null","","","null","22","","","","","","","","","","","","","","","",""
"","ITI","","html-keyboard-response","160","293679","0.0-1.0-207.0","0","0","91055","","null","","","null","22","","","","","","","","","","","","","","","NaN",""
"","S1","","html-keyboard-response","161","293938","0.0-1.0-209.0","0","0","91055","","null","","","null","23","","","","","","","","","","","","","","","",""
"","ISI","","html-keyboard-response","162","294946","0.0-1.0-210.0","0","0","91055","","null","","","null","23","NaN","","","","","","","","","","","","","","",""
"","S2","","html-keyboard-response","163","295200","0.0-1.0-211.0","0","0","91055","","null","","","null","23","","NaN","","","","","","","","","","","","","",""
"","response","","html-keyboard-response","164","295717","0.0-1.0-212.0-0.0","0","0","91055","","515","","","75","23","","","1","23","training","adjacent","DC","4","3","M.jpg","Q.jpg","1","0","0","",""
"","feedback","","html-keyboard-response","165","296729","0.0-1.0-213.0-0.0","0","0","91055","","null","","","null","23","","","","","","","","","","","","","","","",""
"","time_out","","html-keyboard-response","166","298737","0.0-1.0-215.0-0.0","0","0","91055","","null","","","null","23","","","","","","","","","","","","","","","",""
"","ITI","","html-keyboard-response","167","299744","0.0-1.0-216.0","0","0","91055","","null","","","null","23","","","","","","","","","","","","","","","NaN",""
"","S1","","html-keyboard-response","168","300011","0.0-1.0-218.0","0","0","91055","","null","","","null","24","","","","","","","","","","","","","","","",""
"","ISI","","html-keyboard-response","169","301016","0.0-1.0-219.0","0","0","91055","","null","","","null","24","NaN","","","","","","","","","","","","","","",""
"","S2","","html-keyboard-response","170","301273","0.0-1.0-220.0","0","0","91055","","null","","","null","24","","NaN","","","","","","","","","","","","","",""
"","response","","html-keyboard-response","171","301828","0.0-1.0-221.0-0.0","0","0","91055","","554","","","75","24","","","1","24","training","adjacent","FE","6","5","L.jpg","R.jpg","1","0","0","",""
"","feedback","","html-keyboard-response","172","302831","0.0-1.0-222.0-0.0","0","0","91055","","null","","","null","24","","","","","","","","","","","","","","","",""
"","time_out","","html-keyboard-response","173","304840","0.0-1.0-224.0-0.0","0","0","91055","","null","","","null","24","","","","","","","","","","","","","","","",""
"","ITI","","html-keyboard-response","174","305848","0.0-1.0-225.0","0","0","91055","","null","","","null","24","","","","","","","","","","","","","","","NaN",""
"","S1","","html-keyboard-response","175","306104","0.0-1.0-227.0","0","0","91055","","null","","","null","25","","","","","","","","","","","","","","","",""
"","ISI","","html-keyboard-response","176","307112","0.0-1.0-228.0","0","0","91055","","null","","","null","25","NaN","","","","","","","","","","","","","","",""
"","S2","","html-keyboard-response","177","307368","0.0-1.0-229.0","0","0","91055","","null","","","null","25","","NaN","","","","","","","","","","","","","",""
"","response","","html-keyboard-response","178","307778","0.0-1.0-230.0-0.0","0","0","91055","","408","","","75","25","","","1","25","training","adjacent","FG","6","7","L.jpg","O.jpg","1","1","1","",""
"","feedback","","html-keyboard-response","179","308784","0.0-1.0-231.0-0.0","0","0","91055","","null","","","null","25","","","","","","","","","","","","","","","",""
"","ITI","","html-keyboard-response","180","309793","0.0-1.0-234.0","0","0","91055","","null","","","null","25","","","","","","","","","","","","","","","NaN",""
"","S1","","html-keyboard-response","181","310056","0.0-1.0-236.0","0","0","91055","","null","","","null","26","","","","","","","","","","","","","","","",""
"","ISI","","html-keyboard-response","182","311066","0.0-1.0-237.0","0","0","91055","","null","","","null","26","NaN","","","","","","","","","","","","","","",""
"","S2","","html-keyboard-response","183","311319","0.0-1.0-238.0","0","0","91055","","null","","","null","26","","NaN","","","","","","","","","","","","","",""
"","response","","html-keyboard-response","184","312028","0.0-1.0-239.0-0.0","0","0","91055","","707","","","75","26","","","1","26","training","adjacent","AB","1","2","P.jpg","N.jpg","1","1","1","",""
"","feedback","","html-keyboard-response","185","313033","0.0-1.0-240.0-0.0","0","0","91055","","null","","","null","26","","","","","","","","","","","","","","","",""
"","ITI","","html-keyboard-response","186","314039","0.0-1.0-243.0","0","0","91055","","null","","","null","26","","","","","","","","","","","","","","","NaN",""
"","S1","","html-keyboard-response","187","314296","0.0-1.0-245.0","0","0","91055","","null","","","null","27","","","","","","","","","","","","","","","",""
"","ISI","","html-keyboard-response","188","315305","0.0-1.0-246.0","0","0","91055","","null","","","null","27","NaN","","","","","","","","","","","","","","",""
"","S2","","html-keyboard-response","189","315560","0.0-1.0-247.0","0","0","91055","","null","","","null","27","","NaN","","","","","","","","","","","","","",""
"","response","","html-keyboard-response","190","315787","0.0-1.0-248.0-0.0","0","0","91055","","226","","","75","27","","","1","27","training","adjacent","CD","3","4","Q.jpg","M.jpg","1","1","1","",""
"","feedback","","html-keyboard-response","191","316792","0.0-1.0-249.0-0.0","0","0","91055","","null","","","null","27","","","","","","","","","","","","","","","",""
"","ITI","","html-keyboard-response","192","317799","0.0-1.0-252.0","0","0","91055","","null","","","null","27","","","","","","","","","","","","","","","NaN",""
"","S1","","html-keyboard-response","193","318056","0.0-1.0-254.0","0","0","91055","","null","","","null","28","","","","","","","","","","","","","","","",""
"","ISI","","html-keyboard-response","194","319063","0.0-1.0-255.0","0","0","91055","","null","","","null","28","NaN","","","","","","","","","","","","","","",""
"","S2","","html-keyboard-response","195","319320","0.0-1.0-256.0","0","0","91055","","null","","","null","28","","NaN","","","","","","","","","","","","","",""
"","response","","html-keyboard-response","196","319738","0.0-1.0-257.0-0.0","0","0","91055","","416","","","75","28","","","1","28","training","adjacent","EF","5","6","R.jpg","L.jpg","1","1","1","",""
"","feedback","","html-keyboard-response","197","320746","0.0-1.0-258.0-0.0","0","0","91055","","null","","","null","28","","","","","","","","","","","","","","","",""
"","ITI","","html-keyboard-response","198","321752","0.0-1.0-261.0","0","0","91055","","null","","","null","28","","","","","","","","","","","","","","","NaN",""
"","S1","","html-keyboard-response","199","322008","0.0-1.0-263.0","0","0","91055","","null","","","null","29","","","","","","","","","","","","","","","",""
"","ISI","","html-keyboard-response","200","323030","0.0-1.0-264.0","0","0","91055","","null","","","null","29","NaN","","","","","","","","","","","","","","",""
"","S2","","html-keyboard-response","201","323288","0.0-1.0-265.0","0","0","91055","","null","","","null","29","","NaN","","","","","","","","","","","","","",""
"","response","","html-keyboard-response","202","324369","0.0-1.0-266.0-0.0","0","0","91055","","1080","","","75","29","","","1","29","training","adjacent","DC","4","3","M.jpg","Q.jpg","1","0","0","",""
"","feedback","","html-keyboard-response","203","325377","0.0-1.0-267.0-0.0","0","0","91055","","null","","","null","29","","","","","","","","","","","","","","","",""
"","time_out","","html-keyboard-response","204","327384","0.0-1.0-269.0-0.0","0","0","91055","","null","","","null","29","","","","","","","","","","","","","","","",""
"","ITI","","html-keyboard-response","205","328393","0.0-1.0-270.0","0","0","91055","","null","","","null","29","","","","","","","","","","","","","","","NaN",""
"","S1","","html-keyboard-response","206","328649","0.0-1.0-272.0","0","0","91055","","null","","","null","30","","","","","","","","","","","","","","","",""
"","ISI","","html-keyboard-response","207","329664","0.0-1.0-273.0","0","0","91055","","null","","","null","30","NaN","","","","","","","","","","","","","","",""
"","S2","","html-keyboard-response","208","329921","0.0-1.0-274.0","0","0","91055","","null","","","null","30","","NaN","","","","","","","","","","","","","",""
"","response","","html-keyboard-response","209","330590","0.0-1.0-275.0-0.0","0","0","91055","","667","","","75","30","","","1","30","training","adjacent","ED","5","4","R.jpg","M.jpg","1","0","0","",""
"","feedback","","html-keyboard-response","210","331603","0.0-1.0-276.0-0.0","0","0","91055","","null","","","null","30","","","","","","","","","","","","","","","",""
"","time_out","","html-keyboard-response","211","333607","0.0-1.0-278.0-0.0","0","0","91055","","null","","","null","30","","","","","","","","","","","","","","","",""
"","ITI","","html-keyboard-response","212","334612","0.0-1.0-279.0","0","0","91055","","null","","","null","30","","","","","","","","","","","","","","","NaN",""
"","S1","","html-keyboard-response","213","334887","0.0-1.0-281.0","0","0","91055","","null","","","null","31","","","","","","","","","","","","","","","",""
"","ISI","","html-keyboard-response","214","335897","0.0-1.0-282.0","0","0","91055","","null","","","null","31","NaN","","","","","","","","","","","","","","",""
"","S2","","html-keyboard-response","215","336154","0.0-1.0-283.0","0","0","91055","","null","","","null","31","","NaN","","","","","","","","","","","","","",""
"","response","","html-keyboard-response","216","336628","0.0-1.0-284.0-0.0","0","0","91055","","472","","","75","31","","","1","31","training","adjacent","GF","7","6","O.jpg","L.jpg","1","0","0","",""
"","feedback","","html-keyboard-response","217","337632","0.0-1.0-285.0-0.0","0","0","91055","","null","","","null","31","","","","","","","","","","","","","","","",""
"","time_out","","html-keyboard-response","218","339639","0.0-1.0-287.0-0.0","0","0","91055","","null","","","null","31","","","","","","","","","","","","","","","",""
"","ITI","","html-keyboard-response","219","340648","0.0-1.0-288.0","0","0","91055","","null","","","null","31","","","","","","","","","","","","","","","NaN",""
"","S1","","html-keyboard-response","220","340903","0.0-1.0-290.0","0","0","91055","","null","","","null","32","","","","","","","","","","","","","","","",""
"","ISI","","html-keyboard-response","221","341913","0.0-1.0-291.0","0","0","91055","","null","","","null","32","NaN","","","","","","","","","","","","","","",""
"","S2","","html-keyboard-response","222","342168","0.0-1.0-292.0","0","0","91055","","null","","","null","32","","NaN","","","","","","","","","","","","","",""
"","response","","html-keyboard-response","223","342498","0.0-1.0-293.0-0.0","0","0","91055","","329","","","75","32","","","1","32","training","adjacent","EF","5","6","R.jpg","L.jpg","1","1","1","",""
"","feedback","","html-keyboard-response","224","343505","0.0-1.0-294.0-0.0","0","0","91055","","null","","","null","32","","","","","","","","","","","","","","","",""
"","ITI","","html-keyboard-response","225","344512","0.0-1.0-297.0","0","0","91055","","null","","","null","32","","","","","","","","","","","","","","","NaN",""
"","S1","","html-keyboard-response","226","344768","0.0-1.0-299.0","0","0","91055","","null","","","null","33","","","","","","","","","","","","","","","",""
"","ISI","","html-keyboard-response","227","345776","0.0-1.0-300.0","0","0","91055","","null","","","null","33","NaN","","","","","","","","","","","","","","",""
"","S2","","html-keyboard-response","228","346032","0.0-1.0-301.0","0","0","91055","","null","","","null","33","","NaN","","","","","","","","","","","","","",""
"","response","","html-keyboard-response","229","346811","0.0-1.0-302.0-0.0","0","0","91055","","779","","","75","33","","","1","33","training","adjacent","BA","2","1","N.jpg","P.jpg","1","0","0","",""
"","feedback","","html-keyboard-response","230","347817","0.0-1.0-303.0-0.0","0","0","91055","","null","","","null","33","","","","","","","","","","","","","","","",""
"","time_out","","html-keyboard-response","231","349824","0.0-1.0-305.0-0.0","0","0","91055","","null","","","null","33","","","","","","","","","","","","","","","",""
"","ITI","","html-keyboard-response","232","350831","0.0-1.0-306.0","0","0","91055","","null","","","null","33","","","","","","","","","","","","","","","NaN",""
"","S1","","html-keyboard-response","233","351088","0.0-1.0-308.0","0","0","91055","","null","","","null","34","","","","","","","","","","","","","","","",""
"","ISI","","html-keyboard-response","234","352096","0.0-1.0-309.0","0","0","91055","","null","","","null","34","NaN","","","","","","","","","","","","","","",""
"","S2","","html-keyboard-response","235","352352","0.0-1.0-310.0","0","0","91055","","null","","","null","34","","NaN","","","","","","","","","","","","","",""
"","response","","html-keyboard-response","236","353283","0.0-1.0-311.0-0.0","0","0","91055","","930","","","75","34","","","1","34","training","adjacent","FE","6","5","L.jpg","R.jpg","1","0","0","",""
"","feedback","","html-keyboard-response","237","354289","0.0-1.0-312.0-0.0","0","0","91055","","null","","","null","34","","","","","","","","","","","","","","","",""
"","time_out","","html-keyboard-response","238","356295","0.0-1.0-314.0-0.0","0","0","91055","","null","","","null","34","","","","","","","","","","","","","","","",""
"","ITI","","html-keyboard-response","239","357305","0.0-1.0-315.0","0","0","91055","","null","","","null","34","","","","","","","","","","","","","","","NaN",""
"","S1","","html-keyboard-response","240","357562","0.0-1.0-317.0","0","0","91055","","null","","","null","35","","","","","","","","","","","","","","","",""
"","ISI","","html-keyboard-response","241","358568","0.0-1.0-318.0","0","0","91055","","null","","","null","35","NaN","","","","","","","","","","","","","","",""
"","S2","","html-keyboard-response","242","358824","0.0-1.0-319.0","0","0","91055","","null","","","null","35","","NaN","","","","","","","","","","","","","",""
"","response","","html-keyboard-response","243","359267","0.0-1.0-320.0-0.0","0","0","91055","","442","","","75","35","","","1","35","training","adjacent","BA","2","1","N.jpg","P.jpg","1","0","0","",""
"","feedback","","html-keyboard-response","244","360272","0.0-1.0-321.0-0.0","0","0","91055","","null","","","null","35","","","","","","","","","","","","","","","",""
"","time_out","","html-keyboard-response","245","362281","0.0-1.0-323.0-0.0","0","0","91055","","null","","","null","35","","","","","","","","","","","","","","","",""
"","ITI","","html-keyboard-response","246","363291","0.0-1.0-324.0","0","0","91055","","null","","","null","35","","","","","","","","","","","","","","","NaN",""
"","S1","","html-keyboard-response","247","363544","0.0-1.0-326.0","0","0","91055","","null","","","null","36","","","","","","","","","","","","","","","",""
"","ISI","","html-keyboard-response","248","364551","0.0-1.0-327.0","0","0","91055","","null","","","null","36","NaN","","","","","","","","","","","","","","",""
"","S2","","html-keyboard-response","249","364808","0.0-1.0-328.0","0","0","91055","","null","","","null","36","","NaN","","","","","","","","","","","","","",""
"","response","","html-keyboard-response","250","366560","0.0-1.0-329.0-0.0","0","0","91055","","null","","","null","36","","","1","36","training","adjacent","GF","7","6","O.jpg","L.jpg","NaN","0","0","",""
"","too_slow_prompt","","html-keyboard-response","251","367570","0.0-1.0-331.0-0.0","1","0","91055","","null","","","null","","","","","","","","","","","","","","","","",""
"","time_out","","html-keyboard-response","252","369576","0.0-1.0-332.0-0.0","0","0","91055","","null","","","null","36","","","","","","","","","","","","","","","",""
"","ITI","","html-keyboard-response","253","370586","0.0-1.0-333.0","0","0","91055","","null","","","null","36","","","","","","","","","","","","","","","NaN",""
"","S1","","html-keyboard-response","254","370852","0.0-1.0-335.0","0","0","91055","","null","","","null","37","","","","","","","","","","","","","","","",""
"","ISI","","html-keyboard-response","255","371857","0.0-1.0-336.0","0","0","91055","","null","","","null","37","NaN","","","","","","","","","","","","","","",""
"","S2","","html-keyboard-response","256","372114","0.0-1.0-337.0","0","0","91055","","null","","","null","37","","NaN","","","","","","","","","","","","","",""
"","response","","html-keyboard-response","257","372644","0.0-1.0-338.0-0.0","0","0","91055","","528","","","75","37","","","1","37","training","adjacent","DE","4","5","M.jpg","R.jpg","1","1","1","",""
"","feedback","","html-keyboard-response","258","373649","0.0-1.0-339.0-0.0","0","0","91055","","null","","","null","37","","","","","","","","","","","","","","","",""
"","ITI","","html-keyboard-response","259","374664","0.0-1.0-342.0","0","0","91055","","null","","","null","37","","","","","","","","","","","","","","","NaN",""
"","S1","","html-keyboard-response","260","374920","0.0-1.0-344.0","0","0","91055","","null","","","null","38","","","","","","","","","","","","","","","",""
"","ISI","","html-keyboard-response","261","375928","0.0-1.0-345.0","0","0","91055","","null","","","null","38","NaN","","","","","","","","","","","","","","",""
"","S2","","html-keyboard-response","262","376184","0.0-1.0-346.0","0","0","91055","","null","","","null","38","","NaN","","","","","","","","","","","","","",""
"","response","","html-keyboard-response","263","377042","0.0-1.0-347.0-0.0","0","0","91055","","856","","","75","38","","","1","38","training","adjacent","DE","4","5","M.jpg","R.jpg","1","1","1","",""
"","feedback","","html-keyboard-response","264","378048","0.0-1.0-348.0-0.0","0","0","91055","","null","","","null","38","","","","","","","","","","","","","","","",""
"","ITI","","html-keyboard-response","265","379058","0.0-1.0-351.0","0","0","91055","","null","","","null","38","","","","","","","","","","","","","","","NaN",""
"","S1","","html-keyboard-response","266","379312","0.0-1.0-353.0","0","0","91055","","null","","","null","39","","","","","","","","","","","","","","","",""
"","ISI","","html-keyboard-response","267","380321","0.0-1.0-354.0","0","0","91055","","null","","","null","39","NaN","","","","","","","","","","","","","","",""
"","S2","","html-keyboard-response","268","380576","0.0-1.0-355.0","0","0","91055","","null","","","null","39","","NaN","","","","","","","","","","","","","",""
"","response","","html-keyboard-response","269","381491","0.0-1.0-356.0-0.0","0","0","91055","","914","","","75","39","","","1","39","training","adjacent","GF","7","6","O.jpg","L.jpg","1","0","0","",""
"","feedback","","html-keyboard-response","270","382496","0.0-1.0-357.0-0.0","0","0","91055","","null","","","null","39","","","","","","","","","","","","","","","",""
"","time_out","","html-keyboard-response","271","384506","0.0-1.0-359.0-0.0","0","0","91055","","null","","","null","39","","","","","","","","","","","","","","","",""
"","ITI","","html-keyboard-response","272","385513","0.0-1.0-360.0","0","0","91055","","null","","","null","39","","","","","","","","","","","","","","","NaN",""
"","S1","","html-keyboard-response","273","385768","0.0-1.0-362.0","0","0","91055","","null","","","null","40","","","","","","","","","","","","","","","",""
"","ISI","","html-keyboard-response","274","386777","0.0-1.0-363.0","0","0","91055","","null","","","null","40","NaN","","","","","","","","","","","","","","",""
"","S2","","html-keyboard-response","275","387032","0.0-1.0-364.0","0","0","91055","","null","","","null","40","","NaN","","","","","","","","","","","","","",""
"","response","","html-keyboard-response","276","387871","0.0-1.0-365.0-0.0","0","0","91055","","836","","","75","40","","","1","40","training","adjacent","BC","2","3","N.jpg","Q.jpg","1","1","1","",""
"","feedback","","html-keyboard-response","277","388879","0.0-1.0-366.0-0.0","0","0","91055","","null","","","null","40","","","","","","","","","","","","","","","",""
"","ITI","","html-keyboard-response","278","389888","0.0-1.0-369.0","0","0","91055","","null","","","null","40","","","","","","","","","","","","","","","NaN",""
"","S1","","html-keyboard-response","279","390144","0.0-1.0-371.0","0","0","91055","","null","","","null","41","","","","","","","","","","","","","","","",""
"","ISI","","html-keyboard-response","280","391153","0.0-1.0-372.0","0","0","91055","","null","","","null","41","NaN","","","","","","","","","","","","","","",""
"","S2","","html-keyboard-response","281","391409","0.0-1.0-373.0","0","0","91055","","null","","","null","41","","NaN","","","","","","","","","","","","","",""
"","response","","html-keyboard-response","282","391914","0.0-1.0-374.0-0.0","0","0","91055","","504","","","75","41","","","1","41","training","adjacent","ED","5","4","R.jpg","M.jpg","1","0","0","",""
"","feedback","","html-keyboard-response","283","392920","0.0-1.0-375.0-0.0","0","0","91055","","null","","","null","41","","","","","","","","","","","","","","","",""
"","time_out","","html-keyboard-response","284","394929","0.0-1.0-377.0-0.0","0","0","91055","","null","","","null","41","","","","","","","","","","","","","","","",""
"","ITI","","html-keyboard-response","285","395938","0.0-1.0-378.0","0","0","91055","","null","","","null","41","","","","","","","","","","","","","","","NaN",""
"","S1","","html-keyboard-response","286","396193","0.0-1.0-380.0","0","0","91055","","null","","","null","42","","","","","","","","","","","","","","","",""
"","ISI","","html-keyboard-response","287","397201","0.0-1.0-381.0","0","0","91055","","null","","","null","42","NaN","","","","","","","","","","","","","","",""
"","S2","","html-keyboard-response","288","397465","0.0-1.0-382.0","0","0","91055","","null","","","null","42","","NaN","","","","","","","","","","","","","",""
"","response","","html-keyboard-response","289","398100","0.0-1.0-383.0-0.0","0","0","91055","","634","","","75","42","","","1","42","training","adjacent","FG","6","7","L.jpg","O.jpg","1","1","1","",""
"","feedback","","html-keyboard-response","290","399117","0.0-1.0-384.0-0.0","0","0","91055","","null","","","null","42","","","","","","","","","","","","","","","",""
"","ITI","","html-keyboard-response","291","400120","0.0-1.0-387.0","0","0","91055","","null","","","null","42","","","","","","","","","","","","","","","NaN",""
"","S1","","html-keyboard-response","292","400376","0.0-1.0-389.0","0","0","91055","","null","","","null","43","","","","","","","","","","","","","","","",""
"","ISI","","html-keyboard-response","293","401384","0.0-1.0-390.0","0","0","91055","","null","","","null","43","NaN","","","","","","","","","","","","","","",""
"","S2","","html-keyboard-response","294","401642","0.0-1.0-391.0","0","0","91055","","null","","","null","43","","NaN","","","","","","","","","","","","","",""
"","response","","html-keyboard-response","295","402258","0.0-1.0-392.0-0.0","0","0","91055","","614","","","75","43","","","1","43","training","adjacent","DE","4","5","M.jpg","R.jpg","1","1","1","",""
"","feedback","","html-keyboard-response","296","403265","0.0-1.0-393.0-0.0","0","0","91055","","null","","","null","43","","","","","","","","","","","","","","","",""
"","ITI","","html-keyboard-response","297","404272","0.0-1.0-396.0","0","0","91055","","null","","","null","43","","","","","","","","","","","","","","","NaN",""
"","S1","","html-keyboard-response","298","404529","0.0-1.0-398.0","0","0","91055","","null","","","null","44","","","","","","","","","","","","","","","",""
"","ISI","","html-keyboard-response","299","405537","0.0-1.0-399.0","0","0","91055","","null","","","null","44","NaN","","","","","","","","","","","","","","",""
"","S2","","html-keyboard-response","300","405793","0.0-1.0-400.0","0","0","91055","","null","","","null","44","","NaN","","","","","","","","","","","","","",""
"","response","","html-keyboard-response","301","406219","0.0-1.0-401.0-0.0","0","0","91055","","424","","","75","44","","","1","44","training","adjacent","CB","3","2","Q.jpg","N.jpg","1","0","0","",""
"","feedback","","html-keyboard-response","302","407224","0.0-1.0-402.0-0.0","0","0","91055","","null","","","null","44","","","","","","","","","","","","","","","",""
"","time_out","","html-keyboard-response","303","409231","0.0-1.0-404.0-0.0","0","0","91055","","null","","","null","44","","","","","","","","","","","","","","","",""
"","ITI","","html-keyboard-response","304","410241","0.0-1.0-405.0","0","0","91055","","null","","","null","44","","","","","","","","","","","","","","","NaN",""
"","S1","","html-keyboard-response","305","410496","0.0-1.0-407.0","0","0","91055","","null","","","null","45","","","","","","","","","","","","","","","",""
"","ISI","","html-keyboard-response","306","411504","0.0-1.0-408.0","0","0","91055","","null","","","null","45","NaN","","","","","","","","","","","","","","",""
"","S2","","html-keyboard-response","307","411771","0.0-1.0-409.0","0","0","91055","","null","","","null","45","","NaN","","","","","","","","","","","","","",""
"","response","","html-keyboard-response","308","412468","0.0-1.0-410.0-0.0","0","0","91055","","697","","","75","45","","","1","45","training","adjacent","CD","3","4","Q.jpg","M.jpg","1","1","1","",""
"","feedback","","html-keyboard-response","309","413473","0.0-1.0-411.0-0.0","0","0","91055","","null","","","null","45","","","","","","","","","","","","","","","",""
"","ITI","","html-keyboard-response","310","414488","0.0-1.0-414.0","0","0","91055","","null","","","null","45","","","","","","","","","","","","","","","NaN",""
"","S1","","html-keyboard-response","311","414746","0.0-1.0-416.0","0","0","91055","","null","","","null","46","","","","","","","","","","","","","","","",""
"","ISI","","html-keyboard-response","312","415755","0.0-1.0-417.0","0","0","91055","","null","","","null","46","NaN","","","","","","","","","","","","","","",""
"","S2","","html-keyboard-response","313","416014","0.0-1.0-418.0","0","0","91055","","null","","","null","46","","NaN","","","","","","","","","","","","","",""
"","response","","html-keyboard-response","314","416530","0.0-1.0-419.0-0.0","0","0","91055","","514","","","75","46","","","1","46","training","adjacent","BA","2","1","N.jpg","P.jpg","1","0","0","",""
"","feedback","","html-keyboard-response","315","417544","0.0-1.0-420.0-0.0","0","0","91055","","null","","","null","46","","","","","","","","","","","","","","","",""
"","time_out","","html-keyboard-response","316","419553","0.0-1.0-422.0-0.0","0","0","91055","","null","","","null","46","","","","","","","","","","","","","","","",""
"","ITI","","html-keyboard-response","317","420562","0.0-1.0-423.0","0","0","91055","","null","","","null","46","","","","","","","","","","","","","","","NaN",""
"","S1","","html-keyboard-response","318","420816","0.0-1.0-425.0","0","0","91055","","null","","","null","47","","","","","","","","","","","","","","","",""
"","ISI","","html-keyboard-response","319","421824","0.0-1.0-426.0","0","0","91055","","null","","","null","47","NaN","","","","","","","","","","","","","","",""
"","S2","","html-keyboard-response","320","421975","0.0-1.0-427.0","0","0","91055","","147","","","75","47","","k","1","47","training","adjacent","CB","3","2","Q.jpg","N.jpg","1","0","0","",""
"","feedback","","html-keyboard-response","321","422986","0.0-1.0-429.0-0.0","0","0","91055","","null","","","null","47","","","","","","","","","","","","","","","",""
"","time_out","","html-keyboard-response","322","424993","0.0-1.0-431.0-0.0","0","0","91055","","null","","","null","47","","","","","","","","","","","","","","","",""
"","ITI","","html-keyboard-response","323","426001","0.0-1.0-432.0","0","0","91055","","null","","","null","47","","","","","","","","","","","","","","","NaN",""
"","block_over","","html-keyboard-response","324","432700","0.0-1.0-433.0-0.0","0","0","91055","","6696","","","32","47","","","","","","","","","","","","","","","",""
"","S1","","html-keyboard-response","325","432956","0.0-1.0-434.0","0","0","91055","","null","","","null","48","","","","","","","","","","","","","","","",""
"","ISI","","html-keyboard-response","326","433961","0.0-1.0-435.0","0","0","91055","","null","","","null","48","NaN","","","","","","","","","","","","","","",""
"","S2","","html-keyboard-response","327","434231","0.0-1.0-436.0","0","0","91055","","null","","","null","48","","NaN","","","","","","","","","","","","","",""
"","response","","html-keyboard-response","328","434722","0.0-1.0-437.0-0.0","0","0","91055","","489","","","75","48","","","2","48","training","adjacent","CD","3","4","Q.jpg","M.jpg","1","1","1","",""
"","feedback","","html-keyboard-response","329","435726","0.0-1.0-438.0-0.0","0","0","91055","","null","","","null","48","","","","","","","","","","","","","","","",""
"","ITI","","html-keyboard-response","330","436728","0.0-1.0-441.0","0","0","91055","","null","","","null","48","","","","","","","","","","","","","","","NaN",""
"","S1","","html-keyboard-response","331","436984","0.0-1.0-443.0","0","0","91055","","null","","","null","49","","","","","","","","","","","","","","","",""
"","ISI","","html-keyboard-response","332","437992","0.0-1.0-444.0","0","0","91055","","null","","","null","49","NaN","","","","","","","","","","","","","","",""
"","S2","","html-keyboard-response","333","438259","0.0-1.0-445.0","0","0","91055","","null","","","null","49","","NaN","","","","","","","","","","","","","",""
"","response","","html-keyboard-response","334","439382","0.0-1.0-446.0-0.0","0","0","91055","","1120","","","75","49","","","2","49","training","adjacent","GF","7","6","O.jpg","L.jpg","1","0","0","",""
"","feedback","","html-keyboard-response","335","440394","0.0-1.0-447.0-0.0","0","0","91055","","null","","","null","49","","","","","","","","","","","","","","","",""
"","time_out","","html-keyboard-response","336","442401","0.0-1.0-449.0-0.0","0","0","91055","","null","","","null","49","","","","","","","","","","","","","","","",""
"","ITI","","html-keyboard-response","337","443409","0.0-1.0-450.0","0","0","91055","","null","","","null","49","","","","","","","","","","","","","","","NaN",""
"","S1","","html-keyboard-response","338","443665","0.0-1.0-452.0","0","0","91055","","null","","","null","50","","","","","","","","","","","","","","","",""
"","ISI","","html-keyboard-response","339","444673","0.0-1.0-453.0","0","0","91055","","null","","","null","50","NaN","","","","","","","","","","","","","","",""
"","S2","","html-keyboard-response","340","444929","0.0-1.0-454.0","0","0","91055","","null","","","null","50","","NaN","","","","","","","","","","","","","",""
"","response","","html-keyboard-response","341","445345","0.0-1.0-455.0-0.0","0","0","91055","","414","","","75","50","","","2","50","training","adjacent","EF","5","6","R.jpg","L.jpg","1","1","1","",""
"","feedback","","html-keyboard-response","342","446353","0.0-1.0-456.0-0.0","0","0","91055","","null","","","null","50","","","","","","","","","","","","","","","",""
"","ITI","","html-keyboard-response","343","447361","0.0-1.0-459.0","0","0","91055","","null","","","null","50","","","","","","","","","","","","","","","NaN",""
"","S1","","html-keyboard-response","344","447617","0.0-1.0-461.0","0","0","91055","","null","","","null","51","","","","","","","","","","","","","","","",""
"","ISI","","html-keyboard-response","345","448625","0.0-1.0-462.0","0","0","91055","","null","","","null","51","NaN","","","","","","","","","","","","","","",""
"","S2","","html-keyboard-response","346","448888","0.0-1.0-463.0","0","0","91055","","null","","","null","51","","NaN","","","","","","","","","","","","","",""
"","response","","html-keyboard-response","347","449501","0.0-1.0-464.0-0.0","0","0","91055","","610","","","75","51","","","2","51","training","adjacent","ED","5","4","R.jpg","M.jpg","1","0","0","",""
"","feedback","","html-keyboard-response","348","450518","0.0-1.0-465.0-0.0","0","0","91055","","null","","","null","51","","","","","","","","","","","","","","","",""
"","time_out","","html-keyboard-response","349","452520","0.0-1.0-467.0-0.0","0","0","91055","","null","","","null","51","","","","","","","","","","","","","","","",""
"","ITI","","html-keyboard-response","350","453528","0.0-1.0-468.0","0","0","91055","","null","","","null","51","","","","","","","","","","","","","","","NaN",""
"","S1","","html-keyboard-response","351","453784","0.0-1.0-470.0","0","0","91055","","null","","","null","52","","","","","","","","","","","","","","","",""
"","ISI","","html-keyboard-response","352","454793","0.0-1.0-471.0","0","0","91055","","null","","","null","52","NaN","","","","","","","","","","","","","","",""
"","S2","","html-keyboard-response","353","455049","0.0-1.0-472.0","0","0","91055","","null","","","null","52","","NaN","","","","","","","","","","","","","",""
"","response","","html-keyboard-response","354","455571","0.0-1.0-473.0-0.0","0","0","91055","","520","","","75","52","","","2","52","training","adjacent","FE","6","5","L.jpg","R.jpg","1","0","0","",""
"","feedback","","html-keyboard-response","355","456577","0.0-1.0-474.0-0.0","0","0","91055","","null","","","null","52","","","","","","","","","","","","","","","",""
"","time_out","","html-keyboard-response","356","458585","0.0-1.0-476.0-0.0","0","0","91055","","null","","","null","52","","","","","","","","","","","","","","","",""
"","ITI","","html-keyboard-response","357","459592","0.0-1.0-477.0","0","0","91055","","null","","","null","52","","","","","","","","","","","","","","","NaN",""
"","S1","","html-keyboard-response","358","459849","0.0-1.0-479.0","0","0","91055","","null","","","null","53","","","","","","","","","","","","","","","",""
"","ISI","","html-keyboard-response","359","460857","0.0-1.0-480.0","0","0","91055","","160","","","75","53","k","","","","","","","","","","","","","","",""
"","S2","","html-keyboard-response","360","461111","0.0-1.0-481.0","0","0","91055","","null","","","null","53","","NaN","","","","","","","","","","","","","",""
"","response","","html-keyboard-response","361","461253","0.0-1.0-482.0-0.0","0","0","91055","","139","","","75","53","","","2","53","training","adjacent","EF","5","6","R.jpg","L.jpg","1","1","1","",""
"","feedback","","html-keyboard-response","362","462265","0.0-1.0-483.0-0.0","0","0","91055","","null","","","null","53","","","","","","","","","","","","","","","",""
"","ITI","","html-keyboard-response","363","463273","0.0-1.0-486.0","0","0","91055","","null","","","null","53","","","","","","","","","","","","","","","NaN",""
"","S1","","html-keyboard-response","364","463528","0.0-1.0-488.0","0","0","91055","","null","","","null","54","","","","","","","","","","","","","","","",""
"","ISI","","html-keyboard-response","365","464537","0.0-1.0-489.0","0","0","91055","","null","","","null","54","NaN","","","","","","","","","","","","","","",""
"","S2","","html-keyboard-response","366","464792","0.0-1.0-490.0","0","0","91055","","null","","","null","54","","NaN","","","","","","","","","","","","","",""
"","response","","html-keyboard-response","367","465026","0.0-1.0-491.0-0.0","0","0","91055","","233","","","75","54","","","2","54","training","adjacent","CB","3","2","Q.jpg","N.jpg","1","0","0","",""
"","feedback","","html-keyboard-response","368","466033","0.0-1.0-492.0-0.0","0","0","91055","","null","","","null","54","","","","","","","","","","","","","","","",""
"","time_out","","html-keyboard-response","369","468043","0.0-1.0-494.0-0.0","0","0","91055","","null","","","null","54","","","","","","","","","","","","","","","",""
"","ITI","","html-keyboard-response","370","469049","0.0-1.0-495.0","0","0","91055","","null","","","null","54","","","","","","","","","","","","","","","NaN",""
"","S1","","html-keyboard-response","371","469306","0.0-1.0-497.0","0","0","91055","","null","","","null","55","","","","","","","","","","","","","","","",""
"","ISI","","html-keyboard-response","372","470313","0.0-1.0-498.0","0","0","91055","","null","","","null","55","NaN","","","","","","","","","","","","","","",""
"","S2","","html-keyboard-response","373","470584","0.0-1.0-499.0","0","0","91055","","null","","","null","55","","NaN","","","","","","","","","","","","","",""
"","response","","html-keyboard-response","374","470702","0.0-1.0-500.0-0.0","0","0","91055","","116","","","75","55","","","2","55","training","adjacent","BC","2","3","N.jpg","Q.jpg","1","1","1","",""
"","feedback","","html-keyboard-response","375","471712","0.0-1.0-501.0-0.0","0","0","91055","","null","","","null","55","","","","","","","","","","","","","","","",""
"","ITI","","html-keyboard-response","376","472721","0.0-1.0-504.0","0","0","91055","","null","","","null","55","","","","","","","","","","","","","","","NaN",""
"","S1","","html-keyboard-response","377","472976","0.0-1.0-506.0","0","0","91055","","null","","","null","56","","","","","","","","","","","","","","","",""
"","ISI","","html-keyboard-response","378","473977","0.0-1.0-507.0","0","0","91055","","null","","","null","56","NaN","","","","","","","","","","","","","","",""
"","S2","","html-keyboard-response","379","474240","0.0-1.0-508.0","0","0","91055","","null","","","null","56","","NaN","","","","","","","","","","","","","",""
"","response","","html-keyboard-response","380","474715","0.0-1.0-509.0-0.0","0","0","91055","","473","","","75","56","","","2","56","training","adjacent","CD","3","4","Q.jpg","M.jpg","1","1","1","",""
"","feedback","","html-keyboard-response","381","475720","0.0-1.0-510.0-0.0","0","0","91055","","null","","","null","56","","","","","","","","","","","","","","","",""
"","ITI","","html-keyboard-response","382","476729","0.0-1.0-513.0","0","0","91055","","null","","","null","56","","","","","","","","","","","","","","","NaN",""
"","S1","","html-keyboard-response","383","476984","0.0-1.0-515.0","0","0","91055","","null","","","null","57","","","","","","","","","","","","","","","",""
"","ISI","","html-keyboard-response","384","477993","0.0-1.0-516.0","0","0","91055","","null","","","null","57","NaN","","","","","","","","","","","","","","",""
"","S2","","html-keyboard-response","385","478248","0.0-1.0-517.0","0","0","91055","","null","","","null","57","","NaN","","","","","","","","","","","","","",""
"","response","","html-keyboard-response","386","478540","0.0-1.0-518.0-0.0","0","0","91055","","289","","","75","57","","","2","57","training","adjacent","AB","1","2","P.jpg","N.jpg","1","1","1","",""
"","feedback","","html-keyboard-response","387","479544","0.0-1.0-519.0-0.0","0","0","91055","","null","","","null","57","","","","","","","","","","","","","","","",""
"","ITI","","html-keyboard-response","388","480554","0.0-1.0-522.0","0","0","91055","","null","","","null","57","","","","","","","","","","","","","","","NaN",""
"","S1","","html-keyboard-response","389","480808","0.0-1.0-524.0","0","0","91055","","null","","","null","58","","","","","","","","","","","","","","","",""
"","ISI","","html-keyboard-response","390","481816","0.0-1.0-525.0","0","0","91055","","null","","","null","58","NaN","","","","","","","","","","","","","","",""
"","S2","","html-keyboard-response","391","482072","0.0-1.0-526.0","0","0","91055","","null","","","null","58","","NaN","","","","","","","","","","","","","",""
"","response","","html-keyboard-response","392","482132","0.0-1.0-527.0-0.0","0","0","91055","","59","","","75","58","","","2","58","training","adjacent","FG","6","7","L.jpg","O.jpg","1","1","1","",""
"","feedback","","html-keyboard-response","393","483135","0.0-1.0-528.0-0.0","0","0","91055","","null","","","null","58","","","","","","","","","","","","","","","",""
"","ITI","","html-keyboard-response","394","484144","0.0-1.0-531.0","0","0","91055","","null","","","null","58","","","","","","","","","","","","","","","NaN",""
"","S1","","html-keyboard-response","395","484403","0.0-1.0-533.0","0","0","91055","","null","","","null","59","","","","","","","","","","","","","","","",""
"","ISI","","html-keyboard-response","396","485419","0.0-1.0-534.0","0","0","91055","","null","","","null","59","NaN","","","","","","","","","","","","","","",""
"","S2","","html-keyboard-response","397","485674","0.0-1.0-535.0","0","0","91055","","null","","","null","59","","NaN","","","","","","","","","","","","","",""
"","response","","html-keyboard-response","398","485771","0.0-1.0-536.0-0.0","0","0","91055","","95","","","75","59","","","2","59","training","adjacent","BA","2","1","N.jpg","P.jpg","1","0","0","",""
"","feedback","","html-keyboard-response","399","486778","0.0-1.0-537.0-0.0","0","0","91055","","null","","","null","59","","","","","","","","","","","","","","","",""
"","time_out","","html-keyboard-response","400","488794","0.0-1.0-539.0-0.0","0","0","91055","","null","","","null","59","","","","","","","","","","","","","","","",""
"","ITI","","html-keyboard-response","401","489801","0.0-1.0-540.0","0","0","91055","","null","","","null","59","","","","","","","","","","","","","","","NaN",""
"","S1","","html-keyboard-response","402","490062","0.0-1.0-542.0","0","0","91055","","null","","","null","60","","","","","","","","","","","","","","","",""
"","ISI","","html-keyboard-response","403","491064","0.0-1.0-543.0","0","0","91055","","null","","","null","60","NaN","","","","","","","","","","","","","","",""
"","S2","","html-keyboard-response","404","491328","0.0-1.0-544.0","0","0","91055","","null","","","null","60","","NaN","","","","","","","","","","","","","",""
"","response","","html-keyboard-response","405","491445","0.0-1.0-545.0-0.0","0","0","91055","","115","","","75","60","","","2","60","training","adjacent","FE","6","5","L.jpg","R.jpg","1","0","0","",""
"","feedback","","html-keyboard-response","406","492459","0.0-1.0-546.0-0.0","0","0","91055","","null","","","null","60","","","","","","","","","","","","","","","",""
"","time_out","","html-keyboard-response","407","494464","0.0-1.0-548.0-0.0","0","0","91055","","null","","","null","60","","","","","","","","","","","","","","","",""
"","ITI","","html-keyboard-response","408","495472","0.0-1.0-549.0","0","0","91055","","null","","","null","60","","","","","","","","","","","","","","","NaN",""
"","S1","","html-keyboard-response","409","495730","0.0-1.0-551.0","0","0","91055","","null","","","null","61","","","","","","","","","","","","","","","",""
"","ISI","","html-keyboard-response","410","496749","0.0-1.0-552.0","0","0","91055","","null","","","null","61","NaN","","","","","","","","","","","","","","",""
"","S2","","html-keyboard-response","411","497010","0.0-1.0-553.0","0","0","91055","","null","","","null","61","","NaN","","","","","","","","","","","","","",""
"","response","","html-keyboard-response","412","497059","0.0-1.0-554.0-0.0","0","0","91055","","48","","","75","61","","","2","61","training","adjacent","DE","4","5","M.jpg","R.jpg","1","1","1","",""
"","feedback","","html-keyboard-response","413","498064","0.0-1.0-555.0-0.0","0","0","91055","","null","","","null","61","","","","","","","","","","","","","","","",""
"","ITI","","html-keyboard-response","414","499072","0.0-1.0-558.0","0","0","91055","","null","","","null","61","","","","","","","","","","","","","","","NaN",""
"","S1","","html-keyboard-response","415","499329","0.0-1.0-560.0","0","0","91055","","null","","","null","62","","","","","","","","","","","","","","","",""
"","ISI","","html-keyboard-response","416","500336","0.0-1.0-561.0","0","0","91055","","null","","","null","62","NaN","","","","","","","","","","","","","","",""
"","S2","","html-keyboard-response","417","500592","0.0-1.0-562.0","0","0","91055","","null","","","null","62","","NaN","","","","","","","","","","","","","",""
"","response","","html-keyboard-response","418","501542","0.0-1.0-563.0-0.0","0","0","91055","","947","","","75","62","","","2","62","training","adjacent","DC","4","3","M.jpg","Q.jpg","1","0","0","",""
"","feedback","","html-keyboard-response","419","502553","0.0-1.0-564.0-0.0","0","0","91055","","null","","","null","62","","","","","","","","","","","","","","","",""
"","time_out","","html-keyboard-response","420","504560","0.0-1.0-566.0-0.0","0","0","91055","","null","","","null","62","","","","","","","","","","","","","","","",""
"","ITI","","html-keyboard-response","421","505568","0.0-1.0-567.0","0","0","91055","","null","","","null","62","","","","","","","","","","","","","","","NaN",""
"","S1","","html-keyboard-response","422","505824","0.0-1.0-569.0","0","0","91055","","null","","","null","63","","","","","","","","","","","","","","","",""
"","ISI","","html-keyboard-response","423","506831","0.0-1.0-570.0","0","0","91055","","170","","","75","63","k","","","","","","","","","","","","","","",""
"","S2","","html-keyboard-response","424","507088","0.0-1.0-571.0","0","0","91055","","null","","","null","63","","NaN","","","","","","","","","","","","","",""
"","response","","html-keyboard-response","425","507306","0.0-1.0-572.0-0.0","0","0","91055","","216","","","75","63","","","2","63","training","adjacent","CB","3","2","Q.jpg","N.jpg","1","0","0","",""
"","feedback","","html-keyboard-response","426","508313","0.0-1.0-573.0-0.0","0","0","91055","","null","","","null","63","","","","","","","","","","","","","","","",""
"","time_out","","html-keyboard-response","427","510319","0.0-1.0-575.0-0.0","0","0","91055","","null","","","null","63","","","","","","","","","","","","","","","",""
"","ITI","","html-keyboard-response","428","511329","0.0-1.0-576.0","0","0","91055","","null","","","null","63","","","","","","","","","","","","","","","NaN",""
"","S1","","html-keyboard-response","429","511585","0.0-1.0-578.0","0","0","91055","","null","","","null","64","","","","","","","","","","","","","","","",""
"","ISI","","html-keyboard-response","430","512596","0.0-1.0-579.0","0","0","91055","","null","","","null","64","NaN","","","","","","","","","","","","","","",""
"","S2","","html-keyboard-response","431","512857","0.0-1.0-580.0","0","0","91055","","null","","","null","64","","NaN","","","","","","","","","","","","","",""
"","response","","html-keyboard-response","432","513050","0.0-1.0-581.0-0.0","0","0","91055","","192","","","75","64","","","2","64","training","adjacent","CB","3","2","Q.jpg","N.jpg","1","0","0","",""
"","feedback","","html-keyboard-response","433","514068","0.0-1.0-582.0-0.0","0","0","91055","","null","","","null","64","","","","","","","","","","","","","","","",""
"","time_out","","html-keyboard-response","434","516079","0.0-1.0-584.0-0.0","0","0","91055","","null","","","null","64","","","","","","","","","","","","","","","",""
"","ITI","","html-keyboard-response","435","517088","0.0-1.0-585.0","0","0","91055","","null","","","null","64","","","","","","","","","","","","","","","NaN",""
"","S1","","html-keyboard-response","436","517358","0.0-1.0-587.0","0","0","91055","","null","","","null","65","","","","","","","","","","","","","","","",""
"","ISI","","html-keyboard-response","437","518372","0.0-1.0-588.0","0","0","91055","","null","","","null","65","NaN","","","","","","","","","","","","","","",""
"","S2","","html-keyboard-response","438","518632","0.0-1.0-589.0","0","0","91055","","null","","","null","65","","NaN","","","","","","","","","","","","","",""
"","response","","html-keyboard-response","439","519044","0.0-1.0-590.0-0.0","0","0","91055","","410","","","75","65","","","2","65","training","adjacent","CD","3","4","Q.jpg","M.jpg","1","1","1","",""
"","feedback","","html-keyboard-response","440","520051","0.0-1.0-591.0-0.0","0","0","91055","","null","","","null","65","","","","","","","","","","","","","","","",""
"","ITI","","html-keyboard-response","441","521056","0.0-1.0-594.0","0","0","91055","","null","","","null","65","","","","","","","","","","","","","","","NaN",""
"","S1","","html-keyboard-response","442","521314","0.0-1.0-596.0","0","0","91055","","null","","","null","66","","","","","","","","","","","","","","","",""
"","ISI","","html-keyboard-response","443","522320","0.0-1.0-597.0","0","0","91055","","null","","","null","66","NaN","","","","","","","","","","","","","","",""
"","S2","","html-keyboard-response","444","522402","0.0-1.0-598.0","0","0","91055","","81","","","75","66","","k","2","66","training","adjacent","BA","2","1","N.jpg","P.jpg","1","0","0","",""
"","feedback","","html-keyboard-response","445","523408","0.0-1.0-600.0-0.0","0","0","91055","","null","","","null","66","","","","","","","","","","","","","","","",""
"","time_out","","html-keyboard-response","446","525412","0.0-1.0-602.0-0.0","0","0","91055","","null","","","null","66","","","","","","","","","","","","","","","",""
"","ITI","","html-keyboard-response","447","526417","0.0-1.0-603.0","0","0","91055","","null","","","null","66","","","","","","","","","","","","","","","NaN",""
"","S1","","html-keyboard-response","448","526676","0.0-1.0-605.0","0","0","91055","","null","","","null","67","","","","","","","","","","","","","","","",""
"","ISI","","html-keyboard-response","449","527681","0.0-1.0-606.0","0","0","91055","","null","","","null","67","NaN","","","","","","","","","","","","","","",""
"","S2","","html-keyboard-response","450","527936","0.0-1.0-607.0","0","0","91055","","null","","","null","67","","NaN","","","","","","","","","","","","","",""
"","response","","html-keyboard-response","451","528019","0.0-1.0-608.0-0.0","0","0","91055","","82","","","75","67","","","2","67","training","adjacent","DE","4","5","M.jpg","R.jpg","1","1","1","",""
"","feedback","","html-keyboard-response","452","529024","0.0-1.0-609.0-0.0","0","0","91055","","null","","","null","67","","","","","","","","","","","","","","","",""
"","ITI","","html-keyboard-response","453","530032","0.0-1.0-612.0","0","0","91055","","null","","","null","67","","","","","","","","","","","","","","","NaN",""
"","S1","","html-keyboard-response","454","530288","0.0-1.0-614.0","0","0","91055","","null","","","null","68","","","","","","","","","","","","","","","",""
"","ISI","","html-keyboard-response","455","531297","0.0-1.0-615.0","0","0","91055","","null","","","null","68","NaN","","","","","","","","","","","","","","",""
"","S2","","html-keyboard-response","456","531552","0.0-1.0-616.0","0","0","91055","","null","","","null","68","","NaN","","","","","","","","","","","","","",""
"","response","","html-keyboard-response","457","531669","0.0-1.0-617.0-0.0","0","0","91055","","116","","","75","68","","","2","68","training","adjacent","DC","4","3","M.jpg","Q.jpg","1","0","0","",""
"","feedback","","html-keyboard-response","458","532672","0.0-1.0-618.0-0.0","0","0","91055","","null","","","null","68","","","","","","","","","","","","","","","",""
"","time_out","","html-keyboard-response","459","534680","0.0-1.0-620.0-0.0","0","0","91055","","null","","","null","68","","","","","","","","","","","","","","","",""
"","ITI","","html-keyboard-response","460","535690","0.0-1.0-621.0","0","0","91055","","null","","","null","68","","","","","","","","","","","","","","","NaN",""
"","S1","","html-keyboard-response","461","535944","0.0-1.0-623.0","0","0","91055","","null","","","null","69","","","","","","","","","","","","","","","",""
"","ISI","","html-keyboard-response","462","536952","0.0-1.0-624.0","0","0","91055","","null","","","null","69","NaN","","","","","","","","","","","","","","",""
"","S2","","html-keyboard-response","463","537210","0.0-1.0-625.0","0","0","91055","","null","","","null","69","","NaN","","","","","","","","","","","","","",""
"","response","","html-keyboard-response","464","537322","0.0-1.0-626.0-0.0","0","0","91055","","111","","","75","69","","","2","69","training","adjacent","AB","1","2","P.jpg","N.jpg","1","1","1","",""
"","feedback","","html-keyboard-response","465","538328","0.0-1.0-627.0-0.0","0","0","91055","","null","","","null","69","","","","","","","","","","","","","","","",""
"","ITI","","html-keyboard-response","466","539338","0.0-1.0-630.0","0","0","91055","","null","","","null","69","","","","","","","","","","","","","","","NaN",""
"","S1","","html-keyboard-response","467","539605","0.0-1.0-632.0","0","0","91055","","null","","","null","70","","","","","","","","","","","","","","","",""
"","ISI","","html-keyboard-response","468","540610","0.0-1.0-633.0","0","0","91055","","null","","","null","70","NaN","","","","","","","","","","","","","","",""
"","S2","","html-keyboard-response","469","540864","0.0-1.0-634.0","0","0","91055","","null","","","null","70","","NaN","","","","","","","","","","","","","",""
"","response","","html-keyboard-response","470","541027","0.0-1.0-635.0-0.0","0","0","91055","","162","","","75","70","","","2","70","training","adjacent","ED","5","4","R.jpg","M.jpg","1","0","0","",""
"","feedback","","html-keyboard-response","471","542046","0.0-1.0-636.0-0.0","0","0","91055","","null","","","null","70","","","","","","","","","","","","","","","",""
"","time_out","","html-keyboard-response","472","544056","0.0-1.0-638.0-0.0","0","0","91055","","null","","","null","70","","","","","","","","","","","","","","","",""
"","ITI","","html-keyboard-response","473","545064","0.0-1.0-639.0","0","0","91055","","null","","","null","70","","","","","","","","","","","","","","","NaN",""
"","S1","","html-keyboard-response","474","545334","0.0-1.0-641.0","0","0","91055","","null","","","null","71","","","","","","","","","","","","","","","",""
"","ISI","","html-keyboard-response","475","546341","0.0-1.0-642.0","0","0","91055","","604","","","75","71","k","","","","","","","","","","","","","","",""
"","S2","","html-keyboard-response","476","546498","0.0-1.0-643.0","0","0","91055","","154","","","75","71","","k","2","71","training","adjacent","FG","6","7","L.jpg","O.jpg","1","1","1","",""
"","feedback","","html-keyboard-response","477","547504","0.0-1.0-645.0-0.0","0","0","91055","","null","","","null","71","","","","","","","","","","","","","","","",""
"","ITI","","html-keyboard-response","478","548514","0.0-1.0-648.0","0","0","91055","","null","","","null","71","","","","","","","","","","","","","","","NaN",""
"","S1","","html-keyboard-response","479","548769","0.0-1.0-650.0","0","0","91055","","null","","","null","72","","","","","","","","","","","","","","","",""
"","ISI","","html-keyboard-response","480","549776","0.0-1.0-651.0","0","0","91055","","null","","","null","72","NaN","","","","","","","","","","","","","","",""
"","S2","","html-keyboard-response","481","550032","0.0-1.0-652.0","0","0","91055","","null","","","null","72","","NaN","","","","","","","","","","","","","",""
"","response","","html-keyboard-response","482","550493","0.0-1.0-653.0-0.0","0","0","91055","","459","","","75","72","","","2","72","training","adjacent","FG","6","7","L.jpg","O.jpg","1","1","1","",""
"","feedback","","html-keyboard-response","483","551503","0.0-1.0-654.0-0.0","0","0","91055","","null","","","null","72","","","","","","","","","","","","","","","",""
"","ITI","","html-keyboard-response","484","552514","0.0-1.0-657.0","0","0","91055","","null","","","null","72","","","","","","","","","","","","","","","NaN",""
"","S1","","html-keyboard-response","485","552769","0.0-1.0-659.0","0","0","91055","","null","","","null","73","","","","","","","","","","","","","","","",""
"","ISI","","html-keyboard-response","486","553775","0.0-1.0-660.0","0","0","91055","","216","","","75","73","k","","","","","","","","","","","","","","",""
"","S2","","html-keyboard-response","487","554033","0.0-1.0-661.0","0","0","91055","","null","","","null","73","","NaN","","","","","","","","","","","","","",""
"","response","","html-keyboard-response","488","554035","0.0-1.0-662.0-0.0","0","0","91055","","1","","","75","73","","","2","73","training","adjacent","GF","7","6","O.jpg","L.jpg","1","0","0","",""
"","feedback","","html-keyboard-response","489","555040","0.0-1.0-663.0-0.0","0","0","91055","","null","","","null","73","","","","","","","","","","","","","","","",""
"","time_out","","html-keyboard-response","490","557048","0.0-1.0-665.0-0.0","0","0","91055","","null","","","null","73","","","","","","","","","","","","","","","",""
"","ITI","","html-keyboard-response","491","558056","0.0-1.0-666.0","0","0","91055","","null","","","null","73","","","","","","","","","","","","","","","NaN",""
"","S1","","html-keyboard-response","492","558314","0.0-1.0-668.0","0","0","91055","","null","","","null","74","","","","","","","","","","","","","","","",""
"","ISI","","html-keyboard-response","493","559321","0.0-1.0-669.0","0","0","91055","","736","","","75","74","k","","","","","","","","","","","","","","",""
"","S2","","html-keyboard-response","494","559576","0.0-1.0-670.0","0","0","91055","","null","","","null","74","","NaN","","","","","","","","","","","","","",""
"","response","","html-keyboard-response","495","559706","0.0-1.0-671.0-0.0","0","0","91055","","129","","","75","74","","","2","74","training","adjacent","BC","2","3","N.jpg","Q.jpg","1","1","1","",""
"","feedback","","html-keyboard-response","496","560712","0.0-1.0-672.0-0.0","0","0","91055","","null","","","null","74","","","","","","","","","","","","","","","",""
"","ITI","","html-keyboard-response","497","561720","0.0-1.0-675.0","0","0","91055","","0","","","75","74","","","","","","","","","","","","","","","k",""
"","S1","","html-keyboard-response","498","561977","0.0-1.0-677.0","0","0","91055","","null","","","null","75","","","","","","","","","","","","","","","",""
"","ISI","","html-keyboard-response","499","562984","0.0-1.0-678.0","0","0","91055","","746","","","75","75","k","","","","","","","","","","","","","","",""
"","S2","","html-keyboard-response","500","563239","0.0-1.0-679.0","0","0","91055","","null","","","null","75","","NaN","","","","","","","","","","","","","",""
"","response","","html-keyboard-response","501","563618","0.0-1.0-680.0-0.0","0","0","91055","","377","","","75","75","","","2","75","training","adjacent","ED","5","4","R.jpg","M.jpg","1","0","0","",""
"","feedback","","html-keyboard-response","502","564624","0.0-1.0-681.0-0.0","0","0","91055","","null","","","null","75","","","","","","","","","","","","","","","",""
"","time_out","","html-keyboard-response","503","566631","0.0-1.0-683.0-0.0","0","0","91055","","null","","","null","75","","","","","","","","","","","","","","","",""
"","ITI","","html-keyboard-response","504","567640","0.0-1.0-684.0","0","0","91055","","98","","","75","75","","","","","","","","","","","","","","","k",""
"","S1","","html-keyboard-response","505","567896","0.0-1.0-686.0","0","0","91055","","null","","","null","76","","","","","","","","","","","","","","","",""
"","ISI","","html-keyboard-response","506","568905","0.0-1.0-687.0","0","0","91055","","233","","","75","76","k","","","","","","","","","","","","","","",""
"","S2","","html-keyboard-response","507","569161","0.0-1.0-688.0","0","0","91055","","null","","","null","76","","NaN","","","","","","","","","","","","","",""
"","response","","html-keyboard-response","508","569164","0.0-1.0-689.0-0.0","0","0","91055","","2","","","75","76","","","2","76","training","adjacent","EF","5","6","R.jpg","L.jpg","1","1","1","",""
"","feedback","","html-keyboard-response","509","570168","0.0-1.0-690.0-0.0","0","0","91055","","null","","","null","76","","","","","","","","","","","","","","","",""
"","ITI","","html-keyboard-response","510","571176","0.0-1.0-693.0","0","0","91055","","null","","","null","76","","","","","","","","","","","","","","","NaN",""
"","S1","","html-keyboard-response","511","571444","0.0-1.0-695.0","0","0","91055","","null","","","null","77","","","","","","","","","","","","","","","",""
"","ISI","","html-keyboard-response","512","572450","0.0-1.0-696.0","0","0","91055","","685","","","75","77","k","","","","","","","","","","","","","","",""
"","S2","","html-keyboard-response","513","572612","0.0-1.0-697.0","0","0","91055","","158","","","75","77","","k","2","77","training","adjacent","AB","1","2","P.jpg","N.jpg","1","1","1","",""
"","feedback","","html-keyboard-response","514","573618","0.0-1.0-699.0-0.0","0","0","91055","","null","","","null","77","","","","","","","","","","","","","","","",""
"","ITI","","html-keyboard-response","515","574624","0.0-1.0-702.0","0","0","91055","","null","","","null","77","","","","","","","","","","","","","","","NaN",""
"","S1","","html-keyboard-response","516","574881","0.0-1.0-704.0","0","0","91055","","null","","","null","78","","","","","","","","","","","","","","","",""
"","ISI","","html-keyboard-response","517","575888","0.0-1.0-705.0","0","0","91055","","null","","","null","78","NaN","","","","","","","","","","","","","","",""
"","S2","","html-keyboard-response","518","576020","0.0-1.0-706.0","0","0","91055","","129","","","75","78","","k","2","78","training","adjacent","DC","4","3","M.jpg","Q.jpg","1","0","0","",""
"","feedback","","html-keyboard-response","519","577025","0.0-1.0-708.0-0.0","0","0","91055","","null","","","null","78","","","","","","","","","","","","","","","",""
"","time_out","","html-keyboard-response","520","579033","0.0-1.0-710.0-0.0","0","0","91055","","null","","","null","78","","","","","","","","","","","","","","","",""
"","ITI","","html-keyboard-response","521","580041","0.0-1.0-711.0","0","0","91055","","120","","","75","78","","","","","","","","","","","","","","","k",""
"","S1","","html-keyboard-response","522","580296","0.0-1.0-713.0","0","0","91055","","null","","","null","79","","","","","","","","","","","","","","","",""
"","ISI","","html-keyboard-response","523","581304","0.0-1.0-714.0","0","0","91055","","72","","","75","79","k","","","","","","","","","","","","","","",""
"","S2","","html-keyboard-response","524","581426","0.0-1.0-715.0","0","0","91055","","120","","","75","79","","k","2","79","training","adjacent","ED","5","4","R.jpg","M.jpg","1","0","0","",""
"","feedback","","html-keyboard-response","525","582434","0.0-1.0-717.0-0.0","0","0","91055","","null","","","null","79","","","","","","","","","","","","","","","",""
"","time_out","","html-keyboard-response","526","584440","0.0-1.0-719.0-0.0","0","0","91055","","null","","","null","79","","","","","","","","","","","","","","","",""
"","ITI","","html-keyboard-response","527","585448","0.0-1.0-720.0","0","0","91055","","null","","","null","79","","","","","","","","","","","","","","","NaN",""
"","S1","","html-keyboard-response","528","585705","0.0-1.0-722.0","0","0","91055","","null","","","null","80","","","","","","","","","","","","","","","",""
"","ISI","","html-keyboard-response","529","586712","0.0-1.0-723.0","0","0","91055","","120","","","75","80","k","","","","","","","","","","","","","","",""
"","S2","","html-keyboard-response","530","586898","0.0-1.0-724.0","0","0","91055","","184","","","75","80","","k","2","80","training","adjacent","DC","4","3","M.jpg","Q.jpg","1","0","0","",""
"","feedback","","html-keyboard-response","531","587905","0.0-1.0-726.0-0.0","0","0","91055","","null","","","null","80","","","","","","","","","","","","","","","",""
"","time_out","","html-keyboard-response","532","589912","0.0-1.0-728.0-0.0","0","0","91055","","null","","","null","80","","","","","","","","","","","","","","","",""
"","ITI","","html-keyboard-response","533","590920","0.0-1.0-729.0","0","0","91055","","null","","","null","80","","","","","","","","","","","","","","","NaN",""
"","S1","","html-keyboard-response","534","591177","0.0-1.0-731.0","0","0","91055","","null","","","null","81","","","","","","","","","","","","","","","",""
"","ISI","","html-keyboard-response","535","592187","0.0-1.0-732.0","0","0","91055","","825","","","75","81","k","","","","","","","","","","","","","","",""
"","S2","","html-keyboard-response","536","592447","0.0-1.0-733.0","0","0","91055","","null","","","null","81","","NaN","","","","","","","","","","","","","",""
"","response","","html-keyboard-response","537","592636","0.0-1.0-734.0-0.0","0","0","91055","","187","","","75","81","","","2","81","training","adjacent","CB","3","2","Q.jpg","N.jpg","1","0","0","",""
"","feedback","","html-keyboard-response","538","593651","0.0-1.0-735.0-0.0","0","0","91055","","null","","","null","81","","","","","","","","","","","","","","","",""
"","time_out","","html-keyboard-response","539","595656","0.0-1.0-737.0-0.0","0","0","91055","","null","","","null","81","","","","","","","","","","","","","","","",""
"","ITI","","html-keyboard-response","540","596664","0.0-1.0-738.0","0","0","91055","","null","","","null","81","","","","","","","","","","","","","","","NaN",""
"","S1","","html-keyboard-response","541","596920","0.0-1.0-740.0","0","0","91055","","null","","","null","82","","","","","","","","","","","","","","","",""
"","ISI","","html-keyboard-response","542","597928","0.0-1.0-741.0","0","0","91055","","153","","","75","82","k","","","","","","","","","","","","","","",""
"","S2","","html-keyboard-response","543","598185","0.0-1.0-742.0","0","0","91055","","null","","","null","82","","NaN","","","","","","","","","","","","","",""
"","response","","html-keyboard-response","544","599945","0.0-1.0-743.0-0.0","0","0","91055","","null","","","null","82","","","2","82","training","adjacent","GF","7","6","O.jpg","L.jpg","NaN","0","0","",""
"","too_slow_prompt","","html-keyboard-response","545","600952","0.0-1.0-745.0-0.0","1","0","91055","","null","","","null","","","","","","","","","","","","","","","","",""
"","time_out","","html-keyboard-response","546","602961","0.0-1.0-746.0-0.0","0","0","91055","","null","","","null","82","","","","","","","","","","","","","","","",""
"","ITI","","html-keyboard-response","547","603968","0.0-1.0-747.0","0","0","91055","","297","","","75","82","","","","","","","","","","","","","","","k",""
"","S1","","html-keyboard-response","548","604224","0.0-1.0-749.0","0","0","91055","","null","","","null","83","","","","","","","","","","","","","","","",""
"","ISI","","html-keyboard-response","549","605232","0.0-1.0-750.0","0","0","91055","","281","","","75","83","k","","","","","","","","","","","","","","",""
"","S2","","html-keyboard-response","550","605487","0.0-1.0-751.0","0","0","91055","","null","","","null","83","","NaN","","","","","","","","","","","","","",""
"","response","","html-keyboard-response","551","607241","0.0-1.0-752.0-0.0","0","0","91055","","null","","","null","83","","","2","83","training","adjacent","BA","2","1","N.jpg","P.jpg","NaN","0","0","",""
"","too_slow_prompt","","html-keyboard-response","552","608253","0.0-1.0-754.0-0.0","1","0","91055","","null","","","null","","","","","","","","","","","","","","","","",""
"","time_out","","html-keyboard-response","553","610263","0.0-1.0-755.0-0.0","0","0","91055","","null","","","null","83","","","","","","","","","","","","","","","",""
"","ITI","","html-keyboard-response","554","611268","0.0-1.0-756.0","0","0","91055","","null","","","null","83","","","","","","","","","","","","","","","NaN",""
"","S1","","html-keyboard-response","555","611528","0.0-1.0-758.0","0","0","91055","","null","","","null","84","","","","","","","","","","","","","","","",""
"","ISI","","html-keyboard-response","556","612536","0.0-1.0-759.0","0","0","91055","","169","","","75","84","k","","","","","","","","","","","","","","",""
"","S2","","html-keyboard-response","557","612793","0.0-1.0-760.0","0","0","91055","","null","","","null","84","","NaN","","","","","","","","","","","","","",""
"","response","","html-keyboard-response","558","613012","0.0-1.0-761.0-0.0","0","0","91055","","217","","","75","84","","","2","84","training","adjacent","FE","6","5","L.jpg","R.jpg","1","0","0","",""
"","feedback","","html-keyboard-response","559","614016","0.0-1.0-762.0-0.0","0","0","91055","","null","","","null","84","","","","","","","","","","","","","","","",""
"","time_out","","html-keyboard-response","560","616023","0.0-1.0-764.0-0.0","0","0","91055","","null","","","null","84","","","","","","","","","","","","","","","",""
"","ITI","","html-keyboard-response","561","617032","0.0-1.0-765.0","0","0","91055","","969","","","75","84","","","","","","","","","","","","","","","k",""
"","S1","","html-keyboard-response","562","617288","0.0-1.0-767.0","0","0","91055","","null","","","null","85","","","","","","","","","","","","","","","",""
"","ISI","","html-keyboard-response","563","618296","0.0-1.0-768.0","0","0","91055","","130","","","75","85","k","","","","","","","","","","","","","","",""
"","S2","","html-keyboard-response","564","618554","0.0-1.0-769.0","0","0","91055","","null","","","null","85","","NaN","","","","","","","","","","","","","",""
"","response","","html-keyboard-response","565","618634","0.0-1.0-770.0-0.0","0","0","91055","","78","","","75","85","","","2","85","training","adjacent","DE","4","5","M.jpg","R.jpg","1","1","1","",""
"","feedback","","html-keyboard-response","566","619643","0.0-1.0-771.0-0.0","0","0","91055","","null","","","null","85","","","","","","","","","","","","","","","",""
"","ITI","","html-keyboard-response","567","620648","0.0-1.0-774.0","0","0","91055","","null","","","null","85","","","","","","","","","","","","","","","NaN",""
"","S1","","html-keyboard-response","568","620906","0.0-1.0-776.0","0","0","91055","","null","","","null","86","","","","","","","","","","","","","","","",""
"","ISI","","html-keyboard-response","569","621913","0.0-1.0-777.0","0","0","91055","","null","","","null","86","NaN","","","","","","","","","","","","","","",""
"","S2","","html-keyboard-response","570","622172","0.0-1.0-778.0","0","0","91055","","null","","","null","86","","NaN","","","","","","","","","","","","","",""
"","response","","html-keyboard-response","571","623084","0.0-1.0-779.0-0.0","0","0","91055","","910","","","75","86","","","2","86","training","adjacent","GF","7","6","O.jpg","L.jpg","1","0","0","",""
"","feedback","","html-keyboard-response","572","624088","0.0-1.0-780.0-0.0","0","0","91055","","null","","","null","86","","","","","","","","","","","","","","","",""
"","time_out","","html-keyboard-response","573","626097","0.0-1.0-782.0-0.0","0","0","91055","","null","","","null","86","","","","","","","","","","","","","","","",""
"","ITI","","html-keyboard-response","574","627104","0.0-1.0-783.0","0","0","91055","","null","","","null","86","","","","","","","","","","","","","","","NaN",""
"","S1","","html-keyboard-response","575","627369","0.0-1.0-785.0","0","0","91055","","null","","","null","87","","","","","","","","","","","","","","","",""
"","ISI","","html-keyboard-response","576","628379","0.0-1.0-786.0","0","0","91055","","363","","","75","87","k","","","","","","","","","","","","","","",""
"","S2","","html-keyboard-response","577","628382","0.0-1.0-787.0","0","0","91055","","0","","","75","87","","k","2","87","training","adjacent","BC","2","3","N.jpg","Q.jpg","1","1","1","",""
