"success","ttype","start_time","trial_type","trial_index","time_elapsed","internal_node_id","warning","missed_checkup","PID","view_history","rt","responses","repeat_instructions","key_press","index","keypress_isi","keypress_S2","block","trial_num","phase","group_type","pair_type","S1_stim","S2_stim","S1_img","S2_img","S1_chosen","S1_higher","accuracy","keypress_iti","total_bonus_tally"
"true","full_screen","d04152023hr2352","fullscreen","0","148372","0.0-0.0","0","0","86478","","","","","","","","","","","","","","","","","","","","","",""
"","instructions","","instructions","1","213290","0.0-1.0-0.0-0.0","0","0","86478","[{""page_index"":0,""viewing_time"":6432},{""page_index"":1,""viewing_time"":46424},{""page_index"":2,""viewing_time"":9098},{""page_index"":3,""viewing_time"":2953}]","64910","","","","","","","","","","","","","","","","","","","",""
"","comprehension_check","","survey-multi-choice","2","241863","0.0-1.0-0.0-1.0","0","0","86478","","28548","{""Q0"":""True"",""Q1"":""D"",""Q2"":""Once the second image appears and while the screen 'MAKE A CHOICE' is shown"",""Q3"":""Green mark"",""Q4"":""either D or K""}","0","","","","","","","","","","","","","","","","","",""
"","start_exp","","html-keyboard-response","3","243975","0.0-1.0-1.0","0","0","86478","","2100","","","32","","","","","","","","","","","","","","","","",""
"","S1","","html-keyboard-response","4","244239","0.0-1.0-2.0","0","0","86478","","null","","","null","0","","","","","","","","","","","","","","","",""
"","ISI","","html-keyboard-response","5","245247","0.0-1.0-3.0","0","0","86478","","null","","","null","0","NaN","","","","","","","","","","","","","","",""
"","S2","","html-keyboard-response","6","245505","0.0-1.0-4.0","0","0","86478","","null","","","null","0","","NaN","","","","","","","","","","","","","",""
"","response","","html-keyboard-response","7","246748","0.0-1.0-5.0-0.0","0","0","86478","","1236","","","75","0","","","1","0","training","adjacent","GF","7","6","N.jpg","P.jpg","0","0","1","",""
"","feedback","","html-keyboard-response","8","247756","0.0-1.0-6.0-0.0","0","0","86478","","null","","","null","0","","","","","","","","","","","","","","","",""
"","ITI","","html-keyboard-response","9","248770","0.0-1.0-9.0","0","0","86478","","null","","","null","0","","","","","","","","","","","","","","","NaN",""
"","S1","","html-keyboard-response","10","249034","0.0-1.0-11.0","0","0","86478","","null","","","null","1","","","","","","","","","","","","","","","",""
"","ISI","","html-keyboard-response","11","250047","0.0-1.0-12.0","0","0","86478","","null","","","null","1","NaN","","","","","","","","","","","","","","",""
"","S2","","html-keyboard-response","12","250313","0.0-1.0-13.0","0","0","86478","","null","","","null","1","","NaN","","","","","","","","","","","","","",""
"","response","","html-keyboard-response","13","250962","0.0-1.0-14.0-0.0","0","0","86478","","643","","","68","1","","","1","1","training","adjacent","AB","1","2","O.jpg","L.jpg","1","1","1","",""
"","feedback","","html-keyboard-response","14","251970","0.0-1.0-15.0-0.0","0","0","86478","","null","","","null","1","","","","","","","","","","","","","","","",""
"","ITI","","html-keyboard-response","15","252978","0.0-1.0-18.0","0","0","86478","","null","","","null","1","","","","","","","","","","","","","","","NaN",""
"","S1","","html-keyboard-response","16","253235","0.0-1.0-20.0","0","0","86478","","null","","","null","2","","","","","","","","","","","","","","","",""
"","ISI","","html-keyboard-response","17","254243","0.0-1.0-21.0","0","0","86478","","null","","","null","2","NaN","","","","","","","","","","","","","","",""
"","S2","","html-keyboard-response","18","254508","0.0-1.0-22.0","0","0","86478","","null","","","null","2","","NaN","","","","","","","","","","","","","",""
"","response","","html-keyboard-response","19","254896","0.0-1.0-23.0-0.0","0","0","86478","","375","","","75","2","","","1","2","training","adjacent","GF","7","6","N.jpg","P.jpg","0","0","1","",""
"","feedback","","html-keyboard-response","20","255905","0.0-1.0-24.0-0.0","0","0","86478","","null","","","null","2","","","","","","","","","","","","","","","",""
"","ITI","","html-keyboard-response","21","256913","0.0-1.0-27.0","0","0","86478","","null","","","null","2","","","","","","","","","","","","","","","NaN",""
"","S1","","html-keyboard-response","22","257171","0.0-1.0-29.0","0","0","86478","","null","","","null","3","","","","","","","","","","","","","","","",""
"","ISI","","html-keyboard-response","23","258178","0.0-1.0-30.0","0","0","86478","","null","","","null","3","NaN","","","","","","","","","","","","","","",""
"","S2","","html-keyboard-response","24","258437","0.0-1.0-31.0","0","0","86478","","null","","","null","3","","NaN","","","","","","","","","","","","","",""
"","response","","html-keyboard-response","25","258959","0.0-1.0-32.0-0.0","0","0","86478","","517","","","68","3","","","1","3","training","adjacent","FG","6","7","P.jpg","N.jpg","1","1","1","",""
"","feedback","","html-keyboard-response","26","259966","0.0-1.0-33.0-0.0","0","0","86478","","null","","","null","3","","","","","","","","","","","","","","","",""
"","ITI","","html-keyboard-response","27","260980","0.0-1.0-36.0","0","0","86478","","null","","","null","3","","","","","","","","","","","","","","","NaN",""
"","S1","","html-keyboard-response","28","261236","0.0-1.0-38.0","0","0","86478","","null","","","null","4","","","","","","","","","","","","","","","",""
"","ISI","","html-keyboard-response","29","262243","0.0-1.0-39.0","0","0","86478","","null","","","null","4","NaN","","","","","","","","","","","","","","",""
"","S2","","html-keyboard-response","30","262500","0.0-1.0-40.0","0","0","86478","","null","","","null","4","","NaN","","","","","","","","","","","","","",""
"","response","","html-keyboard-response","31","262990","0.0-1.0-41.0-0.0","0","0","86478","","485","","","75","4","","","1","4","training","adjacent","ED","5","4","Q.jpg","R.jpg","0","0","1","",""
"","feedback","","html-keyboard-response","32","263998","0.0-1.0-42.0-0.0","0","0","86478","","null","","","null","4","","","","","","","","","","","","","","","",""
"","ITI","","html-keyboard-response","33","265006","0.0-1.0-45.0","0","0","86478","","null","","","null","4","","","","","","","","","","","","","","","NaN",""
"","S1","","html-keyboard-response","34","265264","0.0-1.0-47.0","0","0","86478","","null","","","null","5","","","","","","","","","","","","","","","",""
"","ISI","","html-keyboard-response","35","266272","0.0-1.0-48.0","0","0","86478","","null","","","null","5","NaN","","","","","","","","","","","","","","",""
"","S2","","html-keyboard-response","36","266531","0.0-1.0-49.0","0","0","86478","","null","","","null","5","","NaN","","","","","","","","","","","","","",""
"","response","","html-keyboard-response","37","266713","0.0-1.0-50.0-0.0","0","0","86478","","176","","","68","5","","","1","5","training","adjacent","EF","5","6","Q.jpg","P.jpg","1","1","1","",""
"","feedback","","html-keyboard-response","38","267721","0.0-1.0-51.0-0.0","0","0","86478","","null","","","null","5","","","","","","","","","","","","","","","",""
"","ITI","","html-keyboard-response","39","268728","0.0-1.0-54.0","0","0","86478","","null","","","null","5","","","","","","","","","","","","","","","NaN",""
"","S1","","html-keyboard-response","40","268993","0.0-1.0-56.0","0","0","86478","","null","","","null","6","","","","","","","","","","","","","","","",""
"","ISI","","html-keyboard-response","41","270000","0.0-1.0-57.0","0","0","86478","","null","","","null","6","NaN","","","","","","","","","","","","","","",""
"","S2","","html-keyboard-response","42","270259","0.0-1.0-58.0","0","0","86478","","null","","","null","6","","NaN","","","","","","","","","","","","","",""
"","response","","html-keyboard-response","43","270633","0.0-1.0-59.0-0.0","0","0","86478","","369","","","68","6","","","1","6","training","adjacent","DE","4","5","R.jpg","Q.jpg","1","1","1","",""
"","feedback","","html-keyboard-response","44","271641","0.0-1.0-60.0-0.0","0","0","86478","","null","","","null","6","","","","","","","","","","","","","","","",""
"","ITI","","html-keyboard-response","45","272648","0.0-1.0-63.0","0","0","86478","","null","","","null","6","","","","","","","","","","","","","","","NaN",""
"","S1","","html-keyboard-response","46","272912","0.0-1.0-65.0","0","0","86478","","null","","","null","7","","","","","","","","","","","","","","","",""
"","ISI","","html-keyboard-response","47","273926","0.0-1.0-66.0","0","0","86478","","null","","","null","7","NaN","","","","","","","","","","","","","","",""
"","S2","","html-keyboard-response","48","274190","0.0-1.0-67.0","0","0","86478","","null","","","null","7","","NaN","","","","","","","","","","","","","",""
"","response","","html-keyboard-response","49","274453","0.0-1.0-68.0-0.0","0","0","86478","","249","","","75","7","","","1","7","training","adjacent","ED","5","4","Q.jpg","R.jpg","0","0","1","",""
"","feedback","","html-keyboard-response","50","275461","0.0-1.0-69.0-0.0","0","0","86478","","null","","","null","7","","","","","","","","","","","","","","","",""
"","ITI","","html-keyboard-response","51","276469","0.0-1.0-72.0","0","0","86478","","null","","","null","7","","","","","","","","","","","","","","","NaN",""
"","S1","","html-keyboard-response","52","276734","0.0-1.0-74.0","0","0","86478","","null","","","null","8","","","","","","","","","","","","","","","",""
"","ISI","","html-keyboard-response","53","277741","0.0-1.0-75.0","0","0","86478","","null","","","null","8","NaN","","","","","","","","","","","","","","",""
"","S2","","html-keyboard-response","54","278000","0.0-1.0-76.0","0","0","86478","","null","","","null","8","","NaN","","","","","","","","","","","","","",""
"","response","","html-keyboard-response","55","278299","0.0-1.0-77.0-0.0","0","0","86478","","292","","","68","8","","","1","8","training","adjacent","FG","6","7","P.jpg","N.jpg","1","1","1","",""
"","feedback","","html-keyboard-response","56","279306","0.0-1.0-78.0-0.0","0","0","86478","","null","","","null","8","","","","","","","","","","","","","","","",""
"","ITI","","html-keyboard-response","57","280314","0.0-1.0-81.0","0","0","86478","","null","","","null","8","","","","","","","","","","","","","","","NaN",""
"","S1","","html-keyboard-response","58","280570","0.0-1.0-83.0","0","0","86478","","null","","","null","9","","","","","","","","","","","","","","","",""
"","ISI","","html-keyboard-response","59","281577","0.0-1.0-84.0","0","0","86478","","null","","","null","9","NaN","","","","","","","","","","","","","","",""
"","S2","","html-keyboard-response","60","281842","0.0-1.0-85.0","0","0","86478","","null","","","null","9","","NaN","","","","","","","","","","","","","",""
"","response","","html-keyboard-response","61","282062","0.0-1.0-86.0-0.0","0","0","86478","","207","","","75","9","","","1","9","training","adjacent","CD","3","4","M.jpg","R.jpg","0","1","0","",""
"","feedback","","html-keyboard-response","62","283071","0.0-1.0-87.0-0.0","0","0","86478","","null","","","null","9","","","","","","","","","","","","","","","",""
"","time_out","","html-keyboard-response","63","285078","0.0-1.0-89.0-0.0","0","0","86478","","null","","","null","9","","","","","","","","","","","","","","","",""
"","ITI","","html-keyboard-response","64","286085","0.0-1.0-90.0","0","0","86478","","null","","","null","9","","","","","","","","","","","","","","","NaN",""
"","S1","","html-keyboard-response","65","286343","0.0-1.0-92.0","0","0","86478","","null","","","null","10","","","","","","","","","","","","","","","",""
"","ISI","","html-keyboard-response","66","287350","0.0-1.0-93.0","0","0","86478","","null","","","null","10","NaN","","","","","","","","","","","","","","",""
"","S2","","html-keyboard-response","67","287615","0.0-1.0-94.0","0","0","86478","","null","","","null","10","","NaN","","","","","","","","","","","","","",""
"","response","","html-keyboard-response","68","287909","0.0-1.0-95.0-0.0","0","0","86478","","288","","","75","10","","","1","10","training","adjacent","ED","5","4","Q.jpg","R.jpg","0","0","1","",""
"","feedback","","html-keyboard-response","69","288923","0.0-1.0-96.0-0.0","0","0","86478","","null","","","null","10","","","","","","","","","","","","","","","",""
"","ITI","","html-keyboard-response","70","289931","0.0-1.0-99.0","0","0","86478","","null","","","null","10","","","","","","","","","","","","","","","NaN",""
"","S1","","html-keyboard-response","71","290195","0.0-1.0-101.0","0","0","86478","","null","","","null","11","","","","","","","","","","","","","","","",""
"","ISI","","html-keyboard-response","72","291202","0.0-1.0-102.0","0","0","86478","","null","","","null","11","NaN","","","","","","","","","","","","","","",""
"","S2","","html-keyboard-response","73","291467","0.0-1.0-103.0","0","0","86478","","null","","","null","11","","NaN","","","","","","","","","","","","","",""
"","response","","html-keyboard-response","74","291751","0.0-1.0-104.0-0.0","0","0","86478","","270","","","68","11","","","1","11","training","adjacent","BC","2","3","L.jpg","M.jpg","1","1","1","",""
"","feedback","","html-keyboard-response","75","292759","0.0-1.0-105.0-0.0","0","0","86478","","null","","","null","11","","","","","","","","","","","","","","","",""
"","ITI","","html-keyboard-response","76","293767","0.0-1.0-108.0","0","0","86478","","null","","","null","11","","","","","","","","","","","","","","","NaN",""
"","S1","","html-keyboard-response","77","294031","0.0-1.0-110.0","0","0","86478","","null","","","null","12","","","","","","","","","","","","","","","",""
"","ISI","","html-keyboard-response","78","295038","0.0-1.0-111.0","0","0","86478","","null","","","null","12","NaN","","","","","","","","","","","","","","",""
"","S2","","html-keyboard-response","79","295304","0.0-1.0-112.0","0","0","86478","","null","","","null","12","","NaN","","","","","","","","","","","","","",""
"","response","","html-keyboard-response","80","295578","0.0-1.0-113.0-0.0","0","0","86478","","260","","","75","12","","","1","12","training","adjacent","CD","3","4","M.jpg","R.jpg","0","1","0","",""
"","feedback","","html-keyboard-response","81","296586","0.0-1.0-114.0-0.0","0","0","86478","","null","","","null","12","","","","","","","","","","","","","","","",""
"","time_out","","html-keyboard-response","82","298594","0.0-1.0-116.0-0.0","0","0","86478","","null","","","null","12","","","","","","","","","","","","","","","",""
"","ITI","","html-keyboard-response","83","299608","0.0-1.0-117.0","0","0","86478","","null","","","null","12","","","","","","","","","","","","","","","NaN",""
"","S1","","html-keyboard-response","84","299866","0.0-1.0-119.0","0","0","86478","","null","","","null","13","","","","","","","","","","","","","","","",""
"","ISI","","html-keyboard-response","85","300873","0.0-1.0-120.0","0","0","86478","","null","","","null","13","NaN","","","","","","","","","","","","","","",""
"","S2","","html-keyboard-response","86","301138","0.0-1.0-121.0","0","0","86478","","null","","","null","13","","NaN","","","","","","","","","","","","","",""
"","response","","html-keyboard-response","87","301558","0.0-1.0-122.0-0.0","0","0","86478","","414","","","68","13","","","1","13","training","adjacent","DE","4","5","R.jpg","Q.jpg","1","1","1","",""
"","feedback","","html-keyboard-response","88","302566","0.0-1.0-123.0-0.0","0","0","86478","","null","","","null","13","","","","","","","","","","","","","","","",""
"","ITI","","html-keyboard-response","89","303574","0.0-1.0-126.0","0","0","86478","","null","","","null","13","","","","","","","","","","","","","","","NaN",""
"","S1","","html-keyboard-response","90","303832","0.0-1.0-128.0","0","0","86478","","null","","","null","14","","","","","","","","","","","","","","","",""
"","ISI","","html-keyboard-response","91","304839","0.0-1.0-129.0","0","0","86478","","null","","","null","14","NaN","","","","","","","","","","","","","","",""
"","S2","","html-keyboard-response","92","305104","0.0-1.0-130.0","0","0","86478","","null","","","null","14","","NaN","","","","","","","","","","","","","",""
"","response","","html-keyboard-response","93","305482","0.0-1.0-131.0-0.0","0","0","86478","","372","","","68","14","","","1","14","training","adjacent","DE","4","5","R.jpg","Q.jpg","1","1","1","",""
"","feedback","","html-keyboard-response","94","306490","0.0-1.0-132.0-0.0","0","0","86478","","null","","","null","14","","","","","","","","","","","","","","","",""
"","ITI","","html-keyboard-response","95","307497","0.0-1.0-135.0","0","0","86478","","null","","","null","14","","","","","","","","","","","","","","","NaN",""
"","S1","","html-keyboard-response","96","307764","0.0-1.0-137.0","0","0","86478","","null","","","null","15","","","","","","","","","","","","","","","",""
"","ISI","","html-keyboard-response","97","308772","0.0-1.0-138.0","0","0","86478","","null","","","null","15","NaN","","","","","","","","","","","","","","",""
"","S2","","html-keyboard-response","98","309037","0.0-1.0-139.0","0","0","86478","","null","","","null","15","","NaN","","","","","","","","","","","","","",""
"","response","","html-keyboard-response","99","309397","0.0-1.0-140.0-0.0","0","0","86478","","348","","","75","15","","","1","15","training","adjacent","FG","6","7","P.jpg","N.jpg","0","1","0","",""
"","feedback","","html-keyboard-response","100","310406","0.0-1.0-141.0-0.0","0","0","86478","","null","","","null","15","","","","","","","","","","","","","","","",""
"","time_out","","html-keyboard-response","101","312413","0.0-1.0-143.0-0.0","0","0","86478","","null","","","null","15","","","","","","","","","","","","","","","",""
"","ITI","","html-keyboard-response","102","313421","0.0-1.0-144.0","0","0","86478","","null","","","null","15","","","","","","","","","","","","","","","NaN",""
"","S1","","html-keyboard-response","103","313685","0.0-1.0-146.0","0","0","86478","","null","","","null","16","","","","","","","","","","","","","","","",""
"","ISI","","html-keyboard-response","104","314692","0.0-1.0-147.0","0","0","86478","","null","","","null","16","NaN","","","","","","","","","","","","","","",""
"","S2","","html-keyboard-response","105","314951","0.0-1.0-148.0","0","0","86478","","null","","","null","16","","NaN","","","","","","","","","","","","","",""
"","response","","html-keyboard-response","106","315279","0.0-1.0-149.0-0.0","0","0","86478","","322","","","68","16","","","1","16","training","adjacent","CB","3","2","M.jpg","L.jpg","1","0","0","",""
"","feedback","","html-keyboard-response","107","316286","0.0-1.0-150.0-0.0","0","0","86478","","null","","","null","16","","","","","","","","","","","","","","","",""
"","time_out","","html-keyboard-response","108","318301","0.0-1.0-152.0-0.0","0","0","86478","","null","","","null","16","","","","","","","","","","","","","","","",""
"","ITI","","html-keyboard-response","109","319315","0.0-1.0-153.0","0","0","86478","","null","","","null","16","","","","","","","","","","","","","","","NaN",""
"","S1","","html-keyboard-response","110","319579","0.0-1.0-155.0","0","0","86478","","null","","","null","17","","","","","","","","","","","","","","","",""
"","ISI","","html-keyboard-response","111","320586","0.0-1.0-156.0","0","0","86478","","null","","","null","17","NaN","","","","","","","","","","","","","","",""
"","S2","","html-keyboard-response","112","320845","0.0-1.0-157.0","0","0","86478","","null","","","null","17","","NaN","","","","","","","","","","","","","",""
"","response","","html-keyboard-response","113","321121","0.0-1.0-158.0-0.0","0","0","86478","","263","","","75","17","","","1","17","training","adjacent","ED","5","4","Q.jpg","R.jpg","0","0","1","",""
"","feedback","","html-keyboard-response","114","322130","0.0-1.0-159.0-0.0","0","0","86478","","null","","","null","17","","","","","","","","","","","","","","","",""
"","ITI","","html-keyboard-response","115","323138","0.0-1.0-162.0","0","0","86478","","null","","","null","17","","","","","","","","","","","","","","","NaN",""
"","S1","","html-keyboard-response","116","323402","0.0-1.0-164.0","0","0","86478","","null","","","null","18","","","","","","","","","","","","","","","",""
"","ISI","","html-keyboard-response","117","324409","0.0-1.0-165.0","0","0","86478","","null","","","null","18","NaN","","","","","","","","","","","","","","",""
"","S2","","html-keyboard-response","118","324674","0.0-1.0-166.0","0","0","86478","","null","","","null","18","","NaN","","","","","","","","","","","","","",""
"","response","","html-keyboard-response","119","325127","0.0-1.0-167.0-0.0","0","0","86478","","447","","","68","18","","","1","18","training","adjacent","AB","1","2","O.jpg","L.jpg","1","1","1","",""
"","feedback","","html-keyboard-response","120","326135","0.0-1.0-168.0-0.0","0","0","86478","","null","","","null","18","","","","","","","","","","","","","","","",""
"","ITI","","html-keyboard-response","121","327142","0.0-1.0-171.0","0","0","86478","","null","","","null","18","","","","","","","","","","","","","","","NaN",""
"","S1","","html-keyboard-response","122","327400","0.0-1.0-173.0","0","0","86478","","null","","","null","19","","","","","","","","","","","","","","","",""
"","ISI","","html-keyboard-response","123","328407","0.0-1.0-174.0","0","0","86478","","null","","","null","19","NaN","","","","","","","","","","","","","","",""
"","S2","","html-keyboard-response","124","328666","0.0-1.0-175.0","0","0","86478","","null","","","null","19","","NaN","","","","","","","","","","","","","",""
"","response","","html-keyboard-response","125","328814","0.0-1.0-176.0-0.0","0","0","86478","","142","","","75","19","","","1","19","training","adjacent","BA","2","1","L.jpg","O.jpg","0","0","1","",""
"","feedback","","html-keyboard-response","126","329821","0.0-1.0-177.0-0.0","0","0","86478","","null","","","null","19","","","","","","","","","","","","","","","",""
"","ITI","","html-keyboard-response","127","330828","0.0-1.0-180.0","0","0","86478","","null","","","null","19","","","","","","","","","","","","","","","NaN",""
"","S1","","html-keyboard-response","128","331092","0.0-1.0-182.0","0","0","86478","","null","","","null","20","","","","","","","","","","","","","","","",""
"","ISI","","html-keyboard-response","129","332106","0.0-1.0-183.0","0","0","86478","","null","","","null","20","NaN","","","","","","","","","","","","","","",""
"","S2","","html-keyboard-response","130","332365","0.0-1.0-184.0","0","0","86478","","null","","","null","20","","NaN","","","","","","","","","","","","","",""
"","response","","html-keyboard-response","131","332786","0.0-1.0-185.0-0.0","0","0","86478","","415","","","75","20","","","1","20","training","adjacent","BA","2","1","L.jpg","O.jpg","0","0","1","",""
"","feedback","","html-keyboard-response","132","333799","0.0-1.0-186.0-0.0","0","0","86478","","null","","","null","20","","","","","","","","","","","","","","","",""
"","ITI","","html-keyboard-response","133","334807","0.0-1.0-189.0","0","0","86478","","null","","","null","20","","","","","","","","","","","","","","","NaN",""
"","S1","","html-keyboard-response","134","335071","0.0-1.0-191.0","0","0","86478","","null","","","null","21","","","","","","","","","","","","","","","",""
"","ISI","","html-keyboard-response","135","336081","0.0-1.0-192.0","0","0","86478","","null","","","null","21","NaN","","","","","","","","","","","","","","",""
"","S2","","html-keyboard-response","136","336341","0.0-1.0-193.0","0","0","86478","","null","","","null","21","","NaN","","","","","","","","","","","","","",""
"","response","","html-keyboard-response","137","336559","0.0-1.0-194.0-0.0","0","0","86478","","205","","","75","21","","","1","21","training","adjacent","GF","7","6","N.jpg","P.jpg","0","0","1","",""
"","feedback","","html-keyboard-response","138","337567","0.0-1.0-195.0-0.0","0","0","86478","","null","","","null","21","","","","","","","","","","","","","","","",""
"","ITI","","html-keyboard-response","139","338578","0.0-1.0-198.0","0","0","86478","","null","","","null","21","","","","","","","","","","","","","","","NaN",""
"","S1","","html-keyboard-response","140","338842","0.0-1.0-200.0","0","0","86478","","null","","","null","22","","","","","","","","","","","","","","","",""
"","ISI","","html-keyboard-response","141","339850","0.0-1.0-201.0","0","0","86478","","null","","","null","22","NaN","","","","","","","","","","","","","","",""
"","S2","","html-keyboard-response","142","340114","0.0-1.0-202.0","0","0","86478","","null","","","null","22","","NaN","","","","","","","","","","","","","",""
"","response","","html-keyboard-response","143","340538","0.0-1.0-203.0-0.0","0","0","86478","","411","","","68","22","","","1","22","training","adjacent","BC","2","3","L.jpg","M.jpg","1","1","1","",""
"","feedback","","html-keyboard-response","144","341547","0.0-1.0-204.0-0.0","0","0","86478","","null","","","null","22","","","","","","","","","","","","","","","",""
"","ITI","","html-keyboard-response","145","342555","0.0-1.0-207.0","0","0","86478","","null","","","null","22","","","","","","","","","","","","","","","NaN",""
"","S1","","html-keyboard-response","146","342813","0.0-1.0-209.0","0","0","86478","","null","","","null","23","","","","","","","","","","","","","","","",""
"","ISI","","html-keyboard-response","147","343821","0.0-1.0-210.0","0","0","86478","","null","","","null","23","NaN","","","","","","","","","","","","","","",""
"","S2","","html-keyboard-response","148","344079","0.0-1.0-211.0","0","0","86478","","null","","","null","23","","NaN","","","","","","","","","","","","","",""
"","response","","html-keyboard-response","149","344469","0.0-1.0-212.0-0.0","0","0","86478","","383","","","75","23","","","1","23","training","adjacent","BA","2","1","L.jpg","O.jpg","0","0","1","",""
"","feedback","","html-keyboard-response","150","345476","0.0-1.0-213.0-0.0","0","0","86478","","null","","","null","23","","","","","","","","","","","","","","","",""
"","ITI","","html-keyboard-response","151","346483","0.0-1.0-216.0","0","0","86478","","null","","","null","23","","","","","","","","","","","","","","","NaN",""
"","S1","","html-keyboard-response","152","346747","0.0-1.0-218.0","0","0","86478","","null","","","null","24","","","","","","","","","","","","","","","",""
"","ISI","","html-keyboard-response","153","347760","0.0-1.0-219.0","0","0","86478","","null","","","null","24","NaN","","","","","","","","","","","","","","",""
"","S2","","html-keyboard-response","154","348025","0.0-1.0-220.0","0","0","86478","","null","","","null","24","","NaN","","","","","","","","","","","","","",""
"","response","","html-keyboard-response","155","348406","0.0-1.0-221.0-0.0","0","0","86478","","375","","","75","24","","","1","24","training","adjacent","CD","3","4","M.jpg","R.jpg","0","1","0","",""
"","feedback","","html-keyboard-response","156","349415","0.0-1.0-222.0-0.0","0","0","86478","","null","","","null","24","","","","","","","","","","","","","","","",""
"","time_out","","html-keyboard-response","157","351428","0.0-1.0-224.0-0.0","0","0","86478","","null","","","null","24","","","","","","","","","","","","","","","",""
"","ITI","","html-keyboard-response","158","352434","0.0-1.0-225.0","0","0","86478","","null","","","null","24","","","","","","","","","","","","","","","NaN",""
"","S1","","html-keyboard-response","159","352692","0.0-1.0-227.0","0","0","86478","","null","","","null","25","","","","","","","","","","","","","","","",""
"","ISI","","html-keyboard-response","160","353705","0.0-1.0-228.0","0","0","86478","","null","","","null","25","NaN","","","","","","","","","","","","","","",""
"","S2","","html-keyboard-response","161","353971","0.0-1.0-229.0","0","0","86478","","null","","","null","25","","NaN","","","","","","","","","","","","","",""
"","response","","html-keyboard-response","162","354299","0.0-1.0-230.0-0.0","0","0","86478","","315","","","68","25","","","1","25","training","adjacent","FE","6","5","P.jpg","Q.jpg","1","0","0","",""
"","feedback","","html-keyboard-response","163","355314","0.0-1.0-231.0-0.0","0","0","86478","","null","","","null","25","","","","","","","","","","","","","","","",""
"","time_out","","html-keyboard-response","164","357321","0.0-1.0-233.0-0.0","0","0","86478","","null","","","null","25","","","","","","","","","","","","","","","",""
"","ITI","","html-keyboard-response","165","358335","0.0-1.0-234.0","0","0","86478","","null","","","null","25","","","","","","","","","","","","","","","NaN",""
"","S1","","html-keyboard-response","166","358599","0.0-1.0-236.0","0","0","86478","","null","","","null","26","","","","","","","","","","","","","","","",""
"","ISI","","html-keyboard-response","167","359607","0.0-1.0-237.0","0","0","86478","","null","","","null","26","NaN","","","","","","","","","","","","","","",""
"","S2","","html-keyboard-response","168","359865","0.0-1.0-238.0","0","0","86478","","null","","","null","26","","NaN","","","","","","","","","","","","","",""
"","response","","html-keyboard-response","169","360137","0.0-1.0-239.0-0.0","0","0","86478","","259","","","75","26","","","1","26","training","adjacent","BA","2","1","L.jpg","O.jpg","0","0","1","",""
"","feedback","","html-keyboard-response","170","361146","0.0-1.0-240.0-0.0","0","0","86478","","null","","","null","26","","","","","","","","","","","","","","","",""
"","ITI","","html-keyboard-response","171","362154","0.0-1.0-243.0","0","0","86478","","null","","","null","26","","","","","","","","","","","","","","","NaN",""
"","S1","","html-keyboard-response","172","362412","0.0-1.0-245.0","0","0","86478","","null","","","null","27","","","","","","","","","","","","","","","",""
"","ISI","","html-keyboard-response","173","363419","0.0-1.0-246.0","0","0","86478","","null","","","null","27","NaN","","","","","","","","","","","","","","",""
"","S2","","html-keyboard-response","174","363678","0.0-1.0-247.0","0","0","86478","","null","","","null","27","","NaN","","","","","","","","","","","","","",""
"","response","","html-keyboard-response","175","363951","0.0-1.0-248.0-0.0","0","0","86478","","267","","","75","27","","","1","27","training","adjacent","GF","7","6","N.jpg","P.jpg","0","0","1","",""
"","feedback","","html-keyboard-response","176","364958","0.0-1.0-249.0-0.0","0","0","86478","","null","","","null","27","","","","","","","","","","","","","","","",""
"","ITI","","html-keyboard-response","177","365966","0.0-1.0-252.0","0","0","86478","","null","","","null","27","","","","","","","","","","","","","","","NaN",""
"","S1","","html-keyboard-response","178","366230","0.0-1.0-254.0","0","0","86478","","null","","","null","28","","","","","","","","","","","","","","","",""
"","ISI","","html-keyboard-response","179","367238","0.0-1.0-255.0","0","0","86478","","null","","","null","28","NaN","","","","","","","","","","","","","","",""
"","S2","","html-keyboard-response","180","367496","0.0-1.0-256.0","0","0","86478","","null","","","null","28","","NaN","","","","","","","","","","","","","",""
"","response","","html-keyboard-response","181","367806","0.0-1.0-257.0-0.0","0","0","86478","","304","","","68","28","","","1","28","training","adjacent","CB","3","2","M.jpg","L.jpg","1","0","0","",""
"","feedback","","html-keyboard-response","182","368814","0.0-1.0-258.0-0.0","0","0","86478","","null","","","null","28","","","","","","","","","","","","","","","",""
"","time_out","","html-keyboard-response","183","370822","0.0-1.0-260.0-0.0","0","0","86478","","null","","","null","28","","","","","","","","","","","","","","","",""
"","ITI","","html-keyboard-response","184","371829","0.0-1.0-261.0","0","0","86478","","null","","","null","28","","","","","","","","","","","","","","","NaN",""
"","S1","","html-keyboard-response","185","372094","0.0-1.0-263.0","0","0","86478","","null","","","null","29","","","","","","","","","","","","","","","",""
"","ISI","","html-keyboard-response","186","373100","0.0-1.0-264.0","0","0","86478","","null","","","null","29","NaN","","","","","","","","","","","","","","",""
"","S2","","html-keyboard-response","187","373358","0.0-1.0-265.0","0","0","86478","","null","","","null","29","","NaN","","","","","","","","","","","","","",""
"","response","","html-keyboard-response","188","373629","0.0-1.0-266.0-0.0","0","0","86478","","265","","","68","29","","","1","29","training","adjacent","FE","6","5","P.jpg","Q.jpg","1","0","0","",""
"","feedback","","html-keyboard-response","189","374639","0.0-1.0-267.0-0.0","0","0","86478","","null","","","null","29","","","","","","","","","","","","","","","",""
"","time_out","","html-keyboard-response","190","376647","0.0-1.0-269.0-0.0","0","0","86478","","null","","","null","29","","","","","","","","","","","","","","","",""
"","ITI","","html-keyboard-response","191","377661","0.0-1.0-270.0","0","0","86478","","null","","","null","29","","","","","","","","","","","","","","","NaN",""
"","S1","","html-keyboard-response","192","377925","0.0-1.0-272.0","0","0","86478","","null","","","null","30","","","","","","","","","","","","","","","",""
"","ISI","","html-keyboard-response","193","378932","0.0-1.0-273.0","0","0","86478","","null","","","null","30","NaN","","","","","","","","","","","","","","",""
"","S2","","html-keyboard-response","194","379196","0.0-1.0-274.0","0","0","86478","","null","","","null","30","","NaN","","","","","","","","","","","","","",""
"","response","","html-keyboard-response","195","379402","0.0-1.0-275.0-0.0","0","0","86478","","192","","","75","30","","","1","30","training","adjacent","EF","5","6","Q.jpg","P.jpg","0","1","0","",""
"","feedback","","html-keyboard-response","196","380411","0.0-1.0-276.0-0.0","0","0","86478","","null","","","null","30","","","","","","","","","","","","","","","",""
"","time_out","","html-keyboard-response","197","382419","0.0-1.0-278.0-0.0","0","0","86478","","null","","","null","30","","","","","","","","","","","","","","","",""
"","ITI","","html-keyboard-response","198","383427","0.0-1.0-279.0","0","0","86478","","null","","","null","30","","","","","","","","","","","","","","","NaN",""
"","S1","","html-keyboard-response","199","383691","0.0-1.0-281.0","0","0","86478","","null","","","null","31","","","","","","","","","","","","","","","",""
"","ISI","","html-keyboard-response","200","384699","0.0-1.0-282.0","0","0","86478","","null","","","null","31","NaN","","","","","","","","","","","","","","",""
"","S2","","html-keyboard-response","201","384957","0.0-1.0-283.0","0","0","86478","","null","","","null","31","","NaN","","","","","","","","","","","","","",""
"","response","","html-keyboard-response","202","385513","0.0-1.0-284.0-0.0","0","0","86478","","550","","","68","31","","","1","31","training","adjacent","DC","4","3","R.jpg","M.jpg","1","0","0","",""
"","feedback","","html-keyboard-response","203","386521","0.0-1.0-285.0-0.0","0","0","86478","","null","","","null","31","","","","","","","","","","","","","","","",""
"","time_out","","html-keyboard-response","204","388528","0.0-1.0-287.0-0.0","0","0","86478","","null","","","null","31","","","","","","","","","","","","","","","",""
"","ITI","","html-keyboard-response","205","389536","0.0-1.0-288.0","0","0","86478","","null","","","null","31","","","","","","","","","","","","","","","NaN",""
"","S1","","html-keyboard-response","206","389794","0.0-1.0-290.0","0","0","86478","","null","","","null","32","","","","","","","","","","","","","","","",""
"","ISI","","html-keyboard-response","207","390802","0.0-1.0-291.0","0","0","86478","","null","","","null","32","NaN","","","","","","","","","","","","","","",""
"","S2","","html-keyboard-response","208","391067","0.0-1.0-292.0","0","0","86478","","null","","","null","32","","NaN","","","","","","","","","","","","","",""
"","response","","html-keyboard-response","209","391365","0.0-1.0-293.0-0.0","0","0","86478","","292","","","75","32","","","1","32","training","adjacent","DC","4","3","R.jpg","M.jpg","0","0","1","",""
"","feedback","","html-keyboard-response","210","392373","0.0-1.0-294.0-0.0","0","0","86478","","null","","","null","32","","","","","","","","","","","","","","","",""
"","ITI","","html-keyboard-response","211","393381","0.0-1.0-297.0","0","0","86478","","null","","","null","32","","","","","","","","","","","","","","","NaN",""
"","S1","","html-keyboard-response","212","393645","0.0-1.0-299.0","0","0","86478","","null","","","null","33","","","","","","","","","","","","","","","",""
"","ISI","","html-keyboard-response","213","394652","0.0-1.0-300.0","0","0","86478","","null","","","null","33","NaN","","","","","","","","","","","","","","",""
"","S2","","html-keyboard-response","214","394911","0.0-1.0-301.0","0","0","86478","","null","","","null","33","","NaN","","","","","","","","","","","","","",""
"","response","","html-keyboard-response","215","395306","0.0-1.0-302.0-0.0","0","0","86478","","383","","","68","33","","","1","33","training","adjacent","AB","1","2","O.jpg","L.jpg","1","1","1","",""
"","feedback","","html-keyboard-response","216","396316","0.0-1.0-303.0-0.0","0","0","86478","","null","","","null","33","","","","","","","","","","","","","","","",""
"","ITI","","html-keyboard-response","217","397323","0.0-1.0-306.0","0","0","86478","","null","","","null","33","","","","","","","","","","","","","","","NaN",""
"","S1","","html-keyboard-response","218","397581","0.0-1.0-308.0","0","0","86478","","null","","","null","34","","","","","","","","","","","","","","","",""
"","ISI","","html-keyboard-response","219","398589","0.0-1.0-309.0","0","0","86478","","null","","","null","34","NaN","","","","","","","","","","","","","","",""
"","S2","","html-keyboard-response","220","398846","0.0-1.0-310.0","0","0","86478","","null","","","null","34","","NaN","","","","","","","","","","","","","",""
"","response","","html-keyboard-response","221","399186","0.0-1.0-311.0-0.0","0","0","86478","","334","","","75","34","","","1","34","training","adjacent","DC","4","3","R.jpg","M.jpg","0","0","1","",""
"","feedback","","html-keyboard-response","222","400192","0.0-1.0-312.0-0.0","0","0","86478","","null","","","null","34","","","","","","","","","","","","","","","",""
"","ITI","","html-keyboard-response","223","401199","0.0-1.0-315.0","0","0","86478","","null","","","null","34","","","","","","","","","","","","","","","NaN",""
"","S1","","html-keyboard-response","224","401457","0.0-1.0-317.0","0","0","86478","","null","","","null","35","","","","","","","","","","","","","","","",""
"","ISI","","html-keyboard-response","225","402465","0.0-1.0-318.0","0","0","86478","","null","","","null","35","NaN","","","","","","","","","","","","","","",""
"","S2","","html-keyboard-response","226","402729","0.0-1.0-319.0","0","0","86478","","null","","","null","35","","NaN","","","","","","","","","","","","","",""
"","response","","html-keyboard-response","227","402887","0.0-1.0-320.0-0.0","0","0","86478","","151","","","75","35","","","1","35","training","adjacent","FE","6","5","P.jpg","Q.jpg","0","0","1","",""
"","feedback","","html-keyboard-response","228","403894","0.0-1.0-321.0-0.0","0","0","86478","","null","","","null","35","","","","","","","","","","","","","","","",""
"","ITI","","html-keyboard-response","229","404903","0.0-1.0-324.0","0","0","86478","","null","","","null","35","","","","","","","","","","","","","","","NaN",""
"","S1","","html-keyboard-response","230","405169","0.0-1.0-326.0","0","0","86478","","null","","","null","36","","","","","","","","","","","","","","","",""
"","ISI","","html-keyboard-response","231","406177","0.0-1.0-327.0","0","0","86478","","null","","","null","36","NaN","","","","","","","","","","","","","","",""
"","S2","","html-keyboard-response","232","406435","0.0-1.0-328.0","0","0","86478","","null","","","null","36","","NaN","","","","","","","","","","","","","",""
"","response","","html-keyboard-response","233","407109","0.0-1.0-329.0-0.0","0","0","86478","","668","","","75","36","","","1","36","training","adjacent","CB","3","2","M.jpg","L.jpg","0","0","1","",""
"","feedback","","html-keyboard-response","234","408117","0.0-1.0-330.0-0.0","0","0","86478","","null","","","null","36","","","","","","","","","","","","","","","",""
"","ITI","","html-keyboard-response","235","409125","0.0-1.0-333.0","0","0","86478","","null","","","null","36","","","","","","","","","","","","","","","NaN",""
"","S1","","html-keyboard-response","236","409384","0.0-1.0-335.0","0","0","86478","","null","","","null","37","","","","","","","","","","","","","","","",""
"","ISI","","html-keyboard-response","237","410391","0.0-1.0-336.0","0","0","86478","","null","","","null","37","NaN","","","","","","","","","","","","","","",""
"","S2","","html-keyboard-response","238","410650","0.0-1.0-337.0","0","0","86478","","null","","","null","37","","NaN","","","","","","","","","","","","","",""
"","response","","html-keyboard-response","239","410942","0.0-1.0-338.0-0.0","0","0","86478","","279","","","68","37","","","1","37","training","adjacent","FE","6","5","P.jpg","Q.jpg","1","0","0","",""
"","feedback","","html-keyboard-response","240","411951","0.0-1.0-339.0-0.0","0","0","86478","","null","","","null","37","","","","","","","","","","","","","","","",""
"","time_out","","html-keyboard-response","241","413959","0.0-1.0-341.0-0.0","0","0","86478","","null","","","null","37","","","","","","","","","","","","","","","",""
"","ITI","","html-keyboard-response","242","414967","0.0-1.0-342.0","0","0","86478","","null","","","null","37","","","","","","","","","","","","","","","NaN",""
"","S1","","html-keyboard-response","243","415225","0.0-1.0-344.0","0","0","86478","","null","","","null","38","","","","","","","","","","","","","","","",""
"","ISI","","html-keyboard-response","244","416233","0.0-1.0-345.0","0","0","86478","","null","","","null","38","NaN","","","","","","","","","","","","","","",""
"","S2","","html-keyboard-response","245","416497","0.0-1.0-346.0","0","0","86478","","null","","","null","38","","NaN","","","","","","","","","","","","","",""
"","response","","html-keyboard-response","246","416685","0.0-1.0-347.0-0.0","0","0","86478","","181","","","75","38","","","1","38","training","adjacent","EF","5","6","Q.jpg","P.jpg","0","1","0","",""
"","feedback","","html-keyboard-response","247","417699","0.0-1.0-348.0-0.0","0","0","86478","","null","","","null","38","","","","","","","","","","","","","","","",""
"","time_out","","html-keyboard-response","248","419708","0.0-1.0-350.0-0.0","0","0","86478","","null","","","null","38","","","","","","","","","","","","","","","",""
"","ITI","","html-keyboard-response","249","420715","0.0-1.0-351.0","0","0","86478","","null","","","null","38","","","","","","","","","","","","","","","NaN",""
"","S1","","html-keyboard-response","250","420979","0.0-1.0-353.0","0","0","86478","","null","","","null","39","","","","","","","","","","","","","","","",""
"","ISI","","html-keyboard-response","251","421986","0.0-1.0-354.0","0","0","86478","","390","","","68","39","d","","","","","","","","","","","","","","",""
"","S2","","html-keyboard-response","252","422255","0.0-1.0-355.0","0","0","86478","","null","","","null","39","","NaN","","","","","","","","","","","","","",""
"","response","","html-keyboard-response","253","422983","0.0-1.0-356.0-0.0","0","0","86478","","715","","","68","39","","","1","39","training","adjacent","AB","1","2","O.jpg","L.jpg","1","1","1","",""
"","feedback","","html-keyboard-response","254","423998","0.0-1.0-357.0-0.0","0","0","86478","","null","","","null","39","","","","","","","","","","","","","","","",""
"","ITI","","html-keyboard-response","255","425012","0.0-1.0-360.0","0","0","86478","","null","","","null","39","","","","","","","","","","","","","","","NaN",""
"","S1","","html-keyboard-response","256","425277","0.0-1.0-362.0","0","0","86478","","null","","","null","40","","","","","","","","","","","","","","","",""
"","ISI","","html-keyboard-response","257","426284","0.0-1.0-363.0","0","0","86478","","null","","","null","40","NaN","","","","","","","","","","","","","","",""
"","S2","","html-keyboard-response","258","426551","0.0-1.0-364.0","0","0","86478","","null","","","null","40","","NaN","","","","","","","","","","","","","",""
"","response","","html-keyboard-response","259","426740","0.0-1.0-365.0-0.0","0","0","86478","","175","","","75","40","","","1","40","training","adjacent","CD","3","4","M.jpg","R.jpg","0","1","0","",""
"","feedback","","html-keyboard-response","260","427750","0.0-1.0-366.0-0.0","0","0","86478","","null","","","null","40","","","","","","","","","","","","","","","",""
"","time_out","","html-keyboard-response","261","429758","0.0-1.0-368.0-0.0","0","0","86478","","null","","","null","40","","","","","","","","","","","","","","","",""
"","ITI","","html-keyboard-response","262","430765","0.0-1.0-369.0","0","0","86478","","null","","","null","40","","","","","","","","","","","","","","","NaN",""
"","S1","","html-keyboard-response","263","431028","0.0-1.0-371.0","0","0","86478","","null","","","null","41","","","","","","","","","","","","","","","",""
"","ISI","","html-keyboard-response","264","432036","0.0-1.0-372.0","0","0","86478","","null","","","null","41","NaN","","","","","","","","","","","","","","",""
"","S2","","html-keyboard-response","265","432295","0.0-1.0-373.0","0","0","86478","","null","","","null","41","","NaN","","","","","","","","","","","","","",""
"","response","","html-keyboard-response","266","432808","0.0-1.0-374.0-0.0","0","0","86478","","508","","","68","41","","","1","41","training","adjacent","DC","4","3","R.jpg","M.jpg","1","0","0","",""
"","feedback","","html-keyboard-response","267","433816","0.0-1.0-375.0-0.0","0","0","86478","","null","","","null","41","","","","","","","","","","","","","","","",""
"","time_out","","html-keyboard-response","268","435833","0.0-1.0-377.0-0.0","0","0","86478","","null","","","null","41","","","","","","","","","","","","","","","",""
"","ITI","","html-keyboard-response","269","436840","0.0-1.0-378.0","0","0","86478","","null","","","null","41","","","","","","","","","","","","","","","NaN",""
"","S1","","html-keyboard-response","270","437104","0.0-1.0-380.0","0","0","86478","","null","","","null","42","","","","","","","","","","","","","","","",""
"","ISI","","html-keyboard-response","271","438111","0.0-1.0-381.0","0","0","86478","","null","","","null","42","NaN","","","","","","","","","","","","","","",""
"","S2","","html-keyboard-response","272","438376","0.0-1.0-382.0","0","0","86478","","null","","","null","42","","NaN","","","","","","","","","","","","","",""
"","response","","html-keyboard-response","273","438445","0.0-1.0-383.0-0.0","0","0","86478","","63","","","75","42","","","1","42","training","adjacent","FG","6","7","P.jpg","N.jpg","0","1","0","",""
"","feedback","","html-keyboard-response","274","439453","0.0-1.0-384.0-0.0","0","0","86478","","null","","","null","42","","","","","","","","","","","","","","","",""
"","time_out","","html-keyboard-response","275","441460","0.0-1.0-386.0-0.0","0","0","86478","","null","","","null","42","","","","","","","","","","","","","","","",""
"","ITI","","html-keyboard-response","276","442468","0.0-1.0-387.0","0","0","86478","","null","","","null","42","","","","","","","","","","","","","","","NaN",""
"","S1","","html-keyboard-response","277","442732","0.0-1.0-389.0","0","0","86478","","null","","","null","43","","","","","","","","","","","","","","","",""
"","ISI","","html-keyboard-response","278","443740","0.0-1.0-390.0","0","0","86478","","null","","","null","43","NaN","","","","","","","","","","","","","","",""
"","S2","","html-keyboard-response","279","444004","0.0-1.0-391.0","0","0","86478","","null","","","null","43","","NaN","","","","","","","","","","","","","",""
"","response","","html-keyboard-response","280","444133","0.0-1.0-392.0-0.0","0","0","86478","","122","","","68","43","","","1","43","training","adjacent","BC","2","3","L.jpg","M.jpg","1","1","1","",""
"","feedback","","html-keyboard-response","281","445141","0.0-1.0-393.0-0.0","0","0","86478","","null","","","null","43","","","","","","","","","","","","","","","",""
"","ITI","","html-keyboard-response","282","446149","0.0-1.0-396.0","0","0","86478","","null","","","null","43","","","","","","","","","","","","","","","NaN",""
"","S1","","html-keyboard-response","283","446408","0.0-1.0-398.0","0","0","86478","","null","","","null","44","","","","","","","","","","","","","","","",""
"","ISI","","html-keyboard-response","284","447415","0.0-1.0-399.0","0","0","86478","","null","","","null","44","NaN","","","","","","","","","","","","","","",""
"","S2","","html-keyboard-response","285","447674","0.0-1.0-400.0","0","0","86478","","null","","","null","44","","NaN","","","","","","","","","","","","","",""
"","response","","html-keyboard-response","286","448036","0.0-1.0-401.0-0.0","0","0","86478","","357","","","68","44","","","1","44","training","adjacent","BC","2","3","L.jpg","M.jpg","1","1","1","",""
"","feedback","","html-keyboard-response","287","449044","0.0-1.0-402.0-0.0","0","0","86478","","null","","","null","44","","","","","","","","","","","","","","","",""
"","ITI","","html-keyboard-response","288","450058","0.0-1.0-405.0","0","0","86478","","null","","","null","44","","","","","","","","","","","","","","","NaN",""
"","S1","","html-keyboard-response","289","450322","0.0-1.0-407.0","0","0","86478","","null","","","null","45","","","","","","","","","","","","","","","",""
"","ISI","","html-keyboard-response","290","451330","0.0-1.0-408.0","0","0","86478","","null","","","null","45","NaN","","","","","","","","","","","","","","",""
"","S2","","html-keyboard-response","291","451588","0.0-1.0-409.0","0","0","86478","","null","","","null","45","","NaN","","","","","","","","","","","","","",""
"","response","","html-keyboard-response","292","451986","0.0-1.0-410.0-0.0","0","0","86478","","391","","","75","45","","","1","45","training","adjacent","DE","4","5","R.jpg","Q.jpg","0","1","0","",""
"","feedback","","html-keyboard-response","293","452993","0.0-1.0-411.0-0.0","0","0","86478","","null","","","null","45","","","","","","","","","","","","","","","",""
"","time_out","","html-keyboard-response","294","455001","0.0-1.0-413.0-0.0","0","0","86478","","null","","","null","45","","","","","","","","","","","","","","","",""
"","ITI","","html-keyboard-response","295","456008","0.0-1.0-414.0","0","0","86478","","null","","","null","45","","","","","","","","","","","","","","","NaN",""
"","S1","","html-keyboard-response","296","456265","0.0-1.0-416.0","0","0","86478","","null","","","null","46","","","","","","","","","","","","","","","",""
"","ISI","","html-keyboard-response","297","457273","0.0-1.0-417.0","0","0","86478","","null","","","null","46","NaN","","","","","","","","","","","","","","",""
"","S2","","html-keyboard-response","298","457537","0.0-1.0-418.0","0","0","86478","","null","","","null","46","","NaN","","","","","","","","","","","","","",""
"","response","","html-keyboard-response","299","457819","0.0-1.0-419.0-0.0","0","0","86478","","275","","","75","46","","","1","46","training","adjacent","EF","5","6","Q.jpg","P.jpg","0","1","0","",""
"","feedback","","html-keyboard-response","300","458827","0.0-1.0-420.0-0.0","0","0","86478","","null","","","null","46","","","","","","","","","","","","","","","",""
"","time_out","","html-keyboard-response","301","460835","0.0-1.0-422.0-0.0","0","0","86478","","null","","","null","46","","","","","","","","","","","","","","","",""
"","ITI","","html-keyboard-response","302","461849","0.0-1.0-423.0","0","0","86478","","null","","","null","46","","","","","","","","","","","","","","","NaN",""
"","S1","","html-keyboard-response","303","462113","0.0-1.0-425.0","0","0","86478","","null","","","null","47","","","","","","","","","","","","","","","",""
"","ISI","","html-keyboard-response","304","463120","0.0-1.0-426.0","0","0","86478","","null","","","null","47","NaN","","","","","","","","","","","","","","",""
"","S2","","html-keyboard-response","305","463382","0.0-1.0-427.0","0","0","86478","","null","","","null","47","","NaN","","","","","","","","","","","","","",""
"","response","","html-keyboard-response","306","463527","0.0-1.0-428.0-0.0","0","0","86478","","132","","","68","47","","","1","47","training","adjacent","CB","3","2","M.jpg","L.jpg","1","0","0","",""
"","feedback","","html-keyboard-response","307","464536","0.0-1.0-429.0-0.0","0","0","86478","","null","","","null","47","","","","","","","","","","","","","","","",""
"","time_out","","html-keyboard-response","308","466544","0.0-1.0-431.0-0.0","0","0","86478","","null","","","null","47","","","","","","","","","","","","","","","",""
"","ITI","","html-keyboard-response","309","467551","0.0-1.0-432.0","0","0","86478","","null","","","null","47","","","","","","","","","","","","","","","NaN",""
"","block_over","","html-keyboard-response","310","481665","0.0-1.0-433.0-0.0","0","0","86478","","14106","","","32","47","","","","","","","","","","","","","","","",""
"","S1","","html-keyboard-response","311","481929","0.0-1.0-434.0","0","0","86478","","null","","","null","48","","","","","","","","","","","","","","","",""
"","ISI","","html-keyboard-response","312","482936","0.0-1.0-435.0","0","0","86478","","null","","","null","48","NaN","","","","","","","","","","","","","","",""
"","S2","","html-keyboard-response","313","483201","0.0-1.0-436.0","0","0","86478","","null","","","null","48","","NaN","","","","","","","","","","","","","",""
"","response","","html-keyboard-response","314","483799","0.0-1.0-437.0-0.0","0","0","86478","","591","","","75","48","","","2","48","training","adjacent","EF","5","6","Q.jpg","P.jpg","0","1","0","",""
"","feedback","","html-keyboard-response","315","484807","0.0-1.0-438.0-0.0","0","0","86478","","null","","","null","48","","","","","","","","","","","","","","","",""
"","time_out","","html-keyboard-response","316","486821","0.0-1.0-440.0-0.0","0","0","86478","","null","","","null","48","","","","","","","","","","","","","","","",""
"","ITI","","html-keyboard-response","317","487834","0.0-1.0-441.0","0","0","86478","","null","","","null","48","","","","","","","","","","","","","","","NaN",""
"","S1","","html-keyboard-response","318","488099","0.0-1.0-443.0","0","0","86478","","null","","","null","49","","","","","","","","","","","","","","","",""
"","ISI","","html-keyboard-response","319","489107","0.0-1.0-444.0","0","0","86478","","null","","","null","49","NaN","","","","","","","","","","","","","","",""
"","S2","","html-keyboard-response","320","489371","0.0-1.0-445.0","0","0","86478","","null","","","null","49","","NaN","","","","","","","","","","","","","",""
"","response","","html-keyboard-response","321","489641","0.0-1.0-446.0-0.0","0","0","86478","","256","","","68","49","","","2","49","training","adjacent","DE","4","5","R.jpg","Q.jpg","1","1","1","",""
"","feedback","","html-keyboard-response","322","490657","0.0-1.0-447.0-0.0","0","0","86478","","null","","","null","49","","","","","","","","","","","","","","","",""
"","ITI","","html-keyboard-response","323","491666","0.0-1.0-450.0","0","0","86478","","null","","","null","49","","","","","","","","","","","","","","","NaN",""
"","S1","","html-keyboard-response","324","491932","0.0-1.0-452.0","0","0","86478","","null","","","null","50","","","","","","","","","","","","","","","",""
"","ISI","","html-keyboard-response","325","492939","0.0-1.0-453.0","0","0","86478","","null","","","null","50","NaN","","","","","","","","","","","","","","",""
"","S2","","html-keyboard-response","326","493204","0.0-1.0-454.0","0","0","86478","","null","","","null","50","","NaN","","","","","","","","","","","","","",""
"","response","","html-keyboard-response","327","493854","0.0-1.0-455.0-0.0","0","0","86478","","644","","","75","50","","","2","50","training","adjacent","DE","4","5","R.jpg","Q.jpg","0","1","0","",""
"","feedback","","html-keyboard-response","328","494862","0.0-1.0-456.0-0.0","0","0","86478","","null","","","null","50","","","","","","","","","","","","","","","",""
"","time_out","","html-keyboard-response","329","496870","0.0-1.0-458.0-0.0","0","0","86478","","null","","","null","50","","","","","","","","","","","","","","","",""
"","ITI","","html-keyboard-response","330","497878","0.0-1.0-459.0","0","0","86478","","null","","","null","50","","","","","","","","","","","","","","","NaN",""
"","S1","","html-keyboard-response","331","498137","0.0-1.0-461.0","0","0","86478","","null","","","null","51","","","","","","","","","","","","","","","",""
"","ISI","","html-keyboard-response","332","499144","0.0-1.0-462.0","0","0","86478","","368","","","68","51","d","","","","","","","","","","","","","","",""
"","S2","","html-keyboard-response","333","499409","0.0-1.0-463.0","0","0","86478","","null","","","null","51","","NaN","","","","","","","","","","","","","",""
"","response","","html-keyboard-response","334","499770","0.0-1.0-464.0-0.0","0","0","86478","","349","","","68","51","","","2","51","training","adjacent","DC","4","3","R.jpg","M.jpg","1","0","0","",""
"","feedback","","html-keyboard-response","335","500782","0.0-1.0-465.0-0.0","0","0","86478","","null","","","null","51","","","","","","","","","","","","","","","",""
"","time_out","","html-keyboard-response","336","502796","0.0-1.0-467.0-0.0","0","0","86478","","null","","","null","51","","","","","","","","","","","","","","","",""
"","ITI","","html-keyboard-response","337","503804","0.0-1.0-468.0","0","0","86478","","null","","","null","51","","","","","","","","","","","","","","","NaN",""
"","S1","","html-keyboard-response","338","504068","0.0-1.0-470.0","0","0","86478","","null","","","null","52","","","","","","","","","","","","","","","",""
"","ISI","","html-keyboard-response","339","505075","0.0-1.0-471.0","0","0","86478","","null","","","null","52","NaN","","","","","","","","","","","","","","",""
"","S2","","html-keyboard-response","340","505340","0.0-1.0-472.0","0","0","86478","","null","","","null","52","","NaN","","","","","","","","","","","","","",""
"","response","","html-keyboard-response","341","505708","0.0-1.0-473.0-0.0","0","0","86478","","361","","","75","52","","","2","52","training","adjacent","GF","7","6","N.jpg","P.jpg","0","0","1","",""
"","feedback","","html-keyboard-response","342","506716","0.0-1.0-474.0-0.0","0","0","86478","","null","","","null","52","","","","","","","","","","","","","","","",""
"","ITI","","html-keyboard-response","343","507725","0.0-1.0-477.0","0","0","86478","","null","","","null","52","","","","","","","","","","","","","","","NaN",""
"","S1","","html-keyboard-response","344","507989","0.0-1.0-479.0","0","0","86478","","null","","","null","53","","","","","","","","","","","","","","","",""
"","ISI","","html-keyboard-response","345","508997","0.0-1.0-480.0","0","0","86478","","null","","","null","53","NaN","","","","","","","","","","","","","","",""
"","S2","","html-keyboard-response","346","509256","0.0-1.0-481.0","0","0","86478","","null","","","null","53","","NaN","","","","","","","","","","","","","",""
"","response","","html-keyboard-response","347","510203","0.0-1.0-482.0-0.0","0","0","86478","","941","","","68","53","","","2","53","training","adjacent","ED","5","4","Q.jpg","R.jpg","1","0","0","",""
"","feedback","","html-keyboard-response","348","511211","0.0-1.0-483.0-0.0","0","0","86478","","null","","","null","53","","","","","","","","","","","","","","","",""
"","time_out","","html-keyboard-response","349","513218","0.0-1.0-485.0-0.0","0","0","86478","","null","","","null","53","","","","","","","","","","","","","","","",""
"","ITI","","html-keyboard-response","350","514225","0.0-1.0-486.0","0","0","86478","","null","","","null","53","","","","","","","","","","","","","","","NaN",""
"","S1","","html-keyboard-response","351","514490","0.0-1.0-488.0","0","0","86478","","null","","","null","54","","","","","","","","","","","","","","","",""
"","ISI","","html-keyboard-response","352","515497","0.0-1.0-489.0","0","0","86478","","null","","","null","54","NaN","","","","","","","","","","","","","","",""
"","S2","","html-keyboard-response","353","515756","0.0-1.0-490.0","0","0","86478","","null","","","null","54","","NaN","","","","","","","","","","","","","",""
"","response","","html-keyboard-response","354","516024","0.0-1.0-491.0-0.0","0","0","86478","","262","","","75","54","","","2","54","training","adjacent","BA","2","1","L.jpg","O.jpg","0","0","1","",""
"","feedback","","html-keyboard-response","355","517032","0.0-1.0-492.0-0.0","0","0","86478","","null","","","null","54","","","","","","","","","","","","","","","",""
"","ITI","","html-keyboard-response","356","518040","0.0-1.0-495.0","0","0","86478","","null","","","null","54","","","","","","","","","","","","","","","NaN",""
"","S1","","html-keyboard-response","357","518304","0.0-1.0-497.0","0","0","86478","","null","","","null","55","","","","","","","","","","","","","","","",""
"","ISI","","html-keyboard-response","358","519312","0.0-1.0-498.0","0","0","86478","","null","","","null","55","NaN","","","","","","","","","","","","","","",""
"","S2","","html-keyboard-response","359","519577","0.0-1.0-499.0","0","0","86478","","null","","","null","55","","NaN","","","","","","","","","","","","","",""
"","response","","html-keyboard-response","360","519904","0.0-1.0-500.0-0.0","0","0","86478","","320","","","68","55","","","2","55","training","adjacent","AB","1","2","O.jpg","L.jpg","1","1","1","",""
"","feedback","","html-keyboard-response","361","520912","0.0-1.0-501.0-0.0","0","0","86478","","null","","","null","55","","","","","","","","","","","","","","","",""
"","ITI","","html-keyboard-response","362","521921","0.0-1.0-504.0","0","0","86478","","null","","","null","55","","","","","","","","","","","","","","","NaN",""
"","S1","","html-keyboard-response","363","522186","0.0-1.0-506.0","0","0","86478","","null","","","null","56","","","","","","","","","","","","","","","",""
"","ISI","","html-keyboard-response","364","523193","0.0-1.0-507.0","0","0","86478","","null","","","null","56","NaN","","","","","","","","","","","","","","",""
"","S2","","html-keyboard-response","365","523458","0.0-1.0-508.0","0","0","86478","","null","","","null","56","","NaN","","","","","","","","","","","","","",""
"","response","","html-keyboard-response","366","523776","0.0-1.0-509.0-0.0","0","0","86478","","311","","","68","56","","","2","56","training","adjacent","BC","2","3","L.jpg","M.jpg","1","1","1","",""
"","feedback","","html-keyboard-response","367","524784","0.0-1.0-510.0-0.0","0","0","86478","","null","","","null","56","","","","","","","","","","","","","","","",""
"","ITI","","html-keyboard-response","368","525792","0.0-1.0-513.0","0","0","86478","","null","","","null","56","","","","","","","","","","","","","","","NaN",""
"","S1","","html-keyboard-response","369","526056","0.0-1.0-515.0","0","0","86478","","null","","","null","57","","","","","","","","","","","","","","","",""
"","ISI","","html-keyboard-response","370","527064","0.0-1.0-516.0","0","0","86478","","null","","","null","57","NaN","","","","","","","","","","","","","","",""
"","S2","","html-keyboard-response","371","527322","0.0-1.0-517.0","0","0","86478","","null","","","null","57","","NaN","","","","","","","","","","","","","",""
"","response","","html-keyboard-response","372","527719","0.0-1.0-518.0-0.0","0","0","86478","","390","","","75","57","","","2","57","training","adjacent","GF","7","6","N.jpg","P.jpg","0","0","1","",""
"","feedback","","html-keyboard-response","373","528727","0.0-1.0-519.0-0.0","0","0","86478","","null","","","null","57","","","","","","","","","","","","","","","",""
"","ITI","","html-keyboard-response","374","529735","0.0-1.0-522.0","0","0","86478","","null","","","null","57","","","","","","","","","","","","","","","NaN",""
"","S1","","html-keyboard-response","375","529992","0.0-1.0-524.0","0","0","86478","","null","","","null","58","","","","","","","","","","","","","","","",""
"","ISI","","html-keyboard-response","376","530999","0.0-1.0-525.0","0","0","86478","","null","","","null","58","NaN","","","","","","","","","","","","","","",""
"","S2","","html-keyboard-response","377","531257","0.0-1.0-526.0","0","0","86478","","null","","","null","58","","NaN","","","","","","","","","","","","","",""
"","response","","html-keyboard-response","378","531917","0.0-1.0-527.0-0.0","0","0","86478","","653","","","75","58","","","2","58","training","adjacent","CB","3","2","M.jpg","L.jpg","0","0","1","",""
"","feedback","","html-keyboard-response","379","532925","0.0-1.0-528.0-0.0","0","0","86478","","null","","","null","58","","","","","","","","","","","","","","","",""
"","ITI","","html-keyboard-response","380","533933","0.0-1.0-531.0","0","0","86478","","null","","","null","58","","","","","","","","","","","","","","","NaN",""
"","S1","","html-keyboard-response","381","534197","0.0-1.0-533.0","0","0","86478","","null","","","null","59","","","","","","","","","","","","","","","",""
"","ISI","","html-keyboard-response","382","535203","0.0-1.0-534.0","0","0","86478","","null","","","null","59","NaN","","","","","","","","","","","","","","",""
"","S2","","html-keyboard-response","383","535460","0.0-1.0-535.0","0","0","86478","","null","","","null","59","","NaN","","","","","","","","","","","","","",""
"","response","","html-keyboard-response","384","536112","0.0-1.0-536.0-0.0","0","0","86478","","646","","","68","59","","","2","59","training","adjacent","CD","3","4","M.jpg","R.jpg","1","1","1","",""
"","feedback","","html-keyboard-response","385","537120","0.0-1.0-537.0-0.0","0","0","86478","","null","","","null","59","","","","","","","","","","","","","","","",""
"","ITI","","html-keyboard-response","386","538129","0.0-1.0-540.0","0","0","86478","","null","","","null","59","","","","","","","","","","","","","","","NaN",""
"","S1","","html-keyboard-response","387","538393","0.0-1.0-542.0","0","0","86478","","null","","","null","60","","","","","","","","","","","","","","","",""
"","ISI","","html-keyboard-response","388","539401","0.0-1.0-543.0","0","0","86478","","null","","","null","60","NaN","","","","","","","","","","","","","","",""
"","S2","","html-keyboard-response","389","539659","0.0-1.0-544.0","0","0","86478","","null","","","null","60","","NaN","","","","","","","","","","","","","",""
"","response","","html-keyboard-response","390","540611","0.0-1.0-545.0-0.0","0","0","86478","","945","","","75","60","","","2","60","training","adjacent","ED","5","4","Q.jpg","R.jpg","0","0","1","",""
"","feedback","","html-keyboard-response","391","541627","0.0-1.0-546.0-0.0","0","0","86478","","null","","","null","60","","","","","","","","","","","","","","","",""
"","ITI","","html-keyboard-response","392","542636","0.0-1.0-549.0","0","0","86478","","null","","","null","60","","","","","","","","","","","","","","","NaN",""
"","S1","","html-keyboard-response","393","542900","0.0-1.0-551.0","0","0","86478","","null","","","null","61","","","","","","","","","","","","","","","",""
"","ISI","","html-keyboard-response","394","543908","0.0-1.0-552.0","0","0","86478","","null","","","null","61","NaN","","","","","","","","","","","","","","",""
"","S2","","html-keyboard-response","395","544166","0.0-1.0-553.0","0","0","86478","","null","","","null","61","","NaN","","","","","","","","","","","","","",""
"","response","","html-keyboard-response","396","544985","0.0-1.0-554.0-0.0","0","0","86478","","812","","","68","61","","","2","61","training","adjacent","DC","4","3","R.jpg","M.jpg","1","0","0","",""
"","feedback","","html-keyboard-response","397","545992","0.0-1.0-555.0-0.0","0","0","86478","","null","","","null","61","","","","","","","","","","","","","","","",""
"","time_out","","html-keyboard-response","398","548006","0.0-1.0-557.0-0.0","0","0","86478","","null","","","null","61","","","","","","","","","","","","","","","",""
"","ITI","","html-keyboard-response","399","549013","0.0-1.0-558.0","0","0","86478","","null","","","null","61","","","","","","","","","","","","","","","NaN",""
"","S1","","html-keyboard-response","400","549270","0.0-1.0-560.0","0","0","86478","","null","","","null","62","","","","","","","","","","","","","","","",""
"","ISI","","html-keyboard-response","401","550278","0.0-1.0-561.0","0","0","86478","","null","","","null","62","NaN","","","","","","","","","","","","","","",""
"","S2","","html-keyboard-response","402","550543","0.0-1.0-562.0","0","0","86478","","null","","","null","62","","NaN","","","","","","","","","","","","","",""
"","response","","html-keyboard-response","403","550759","0.0-1.0-563.0-0.0","0","0","86478","","207","","","68","62","","","2","62","training","adjacent","AB","1","2","O.jpg","L.jpg","1","1","1","",""
"","feedback","","html-keyboard-response","404","551769","0.0-1.0-564.0-0.0","0","0","86478","","null","","","null","62","","","","","","","","","","","","","","","",""
"","ITI","","html-keyboard-response","405","552785","0.0-1.0-567.0","0","0","86478","","null","","","null","62","","","","","","","","","","","","","","","NaN",""
"","S1","","html-keyboard-response","406","553050","0.0-1.0-569.0","0","0","86478","","null","","","null","63","","","","","","","","","","","","","","","",""
"","ISI","","html-keyboard-response","407","554057","0.0-1.0-570.0","0","0","86478","","null","","","null","63","NaN","","","","","","","","","","","","","","",""
"","S2","","html-keyboard-response","408","554322","0.0-1.0-571.0","0","0","86478","","null","","","null","63","","NaN","","","","","","","","","","","","","",""
"","response","","html-keyboard-response","409","555143","0.0-1.0-572.0-0.0","0","0","86478","","808","","","68","63","","","2","63","training","adjacent","CD","3","4","M.jpg","R.jpg","1","1","1","",""
"","feedback","","html-keyboard-response","410","556153","0.0-1.0-573.0-0.0","0","0","86478","","null","","","null","63","","","","","","","","","","","","","","","",""
"","ITI","","html-keyboard-response","411","557161","0.0-1.0-576.0","0","0","86478","","null","","","null","63","","","","","","","","","","","","","","","NaN",""
"","S1","","html-keyboard-response","412","557420","0.0-1.0-578.0","0","0","86478","","null","","","null","64","","","","","","","","","","","","","","","",""
"","ISI","","html-keyboard-response","413","558428","0.0-1.0-579.0","0","0","86478","","null","","","null","64","NaN","","","","","","","","","","","","","","",""
"","S2","","html-keyboard-response","414","558687","0.0-1.0-580.0","0","0","86478","","null","","","null","64","","NaN","","","","","","","","","","","","","",""
"","response","","html-keyboard-response","415","559248","0.0-1.0-581.0-0.0","0","0","86478","","555","","","75","64","","","2","64","training","adjacent","EF","5","6","Q.jpg","P.jpg","0","1","0","",""
"","feedback","","html-keyboard-response","416","560256","0.0-1.0-582.0-0.0","0","0","86478","","null","","","null","64","","","","","","","","","","","","","","","",""
"","time_out","","html-keyboard-response","417","562265","0.0-1.0-584.0-0.0","0","0","86478","","null","","","null","64","","","","","","","","","","","","","","","",""
"","ITI","","html-keyboard-response","418","563273","0.0-1.0-585.0","0","0","86478","","null","","","null","64","","","","","","","","","","","","","","","NaN",""
"","S1","","html-keyboard-response","419","563537","0.0-1.0-587.0","0","0","86478","","null","","","null","65","","","","","","","","","","","","","","","",""
"","ISI","","html-keyboard-response","420","564550","0.0-1.0-588.0","0","0","86478","","null","","","null","65","NaN","","","","","","","","","","","","","","",""
"","S2","","html-keyboard-response","421","564816","0.0-1.0-589.0","0","0","86478","","null","","","null","65","","NaN","","","","","","","","","","","","","",""
"","response","","html-keyboard-response","422","565139","0.0-1.0-590.0-0.0","0","0","86478","","307","","","68","65","","","2","65","training","adjacent","BC","2","3","L.jpg","M.jpg","1","1","1","",""
"","feedback","","html-keyboard-response","423","566149","0.0-1.0-591.0-0.0","0","0","86478","","null","","","null","65","","","","","","","","","","","","","","","",""
"","ITI","","html-keyboard-response","424","567158","0.0-1.0-594.0","0","0","86478","","null","","","null","65","","","","","","","","","","","","","","","NaN",""
"","S1","","html-keyboard-response","425","567422","0.0-1.0-596.0","0","0","86478","","null","","","null","66","","","","","","","","","","","","","","","",""
"","ISI","","html-keyboard-response","426","568430","0.0-1.0-597.0","0","0","86478","","null","","","null","66","NaN","","","","","","","","","","","","","","",""
"","S2","","html-keyboard-response","427","568689","0.0-1.0-598.0","0","0","86478","","null","","","null","66","","NaN","","","","","","","","","","","","","",""
"","response","","html-keyboard-response","428","568733","0.0-1.0-599.0-0.0","0","0","86478","","38","","","68","66","","","2","66","training","adjacent","AB","1","2","O.jpg","L.jpg","1","1","1","",""
"","feedback","","html-keyboard-response","429","569742","0.0-1.0-600.0-0.0","0","0","86478","","null","","","null","66","","","","","","","","","","","","","","","",""
"","ITI","","html-keyboard-response","430","570756","0.0-1.0-603.0","0","0","86478","","null","","","null","66","","","","","","","","","","","","","","","NaN",""
"","S1","","html-keyboard-response","431","571014","0.0-1.0-605.0","0","0","86478","","null","","","null","67","","","","","","","","","","","","","","","",""
"","ISI","","html-keyboard-response","432","572020","0.0-1.0-606.0","0","0","86478","","null","","","null","67","NaN","","","","","","","","","","","","","","",""
"","S2","","html-keyboard-response","433","572285","0.0-1.0-607.0","0","0","86478","","null","","","null","67","","NaN","","","","","","","","","","","","","",""
"","response","","html-keyboard-response","434","572708","0.0-1.0-608.0-0.0","0","0","86478","","416","","","68","67","","","2","67","training","adjacent","FE","6","5","P.jpg","Q.jpg","1","0","0","",""
"","feedback","","html-keyboard-response","435","573716","0.0-1.0-609.0-0.0","0","0","86478","","null","","","null","67","","","","","","","","","","","","","","","",""
"","time_out","","html-keyboard-response","436","575724","0.0-1.0-611.0-0.0","0","0","86478","","null","","","null","67","","","","","","","","","","","","","","","",""
"","ITI","","html-keyboard-response","437","576732","0.0-1.0-612.0","0","0","86478","","null","","","null","67","","","","","","","","","","","","","","","NaN",""
"","S1","","html-keyboard-response","438","576990","0.0-1.0-614.0","0","0","86478","","null","","","null","68","","","","","","","","","","","","","","","",""
"","ISI","","html-keyboard-response","439","577998","0.0-1.0-615.0","0","0","86478","","null","","","null","68","NaN","","","","","","","","","","","","","","",""
"","S2","","html-keyboard-response","440","578263","0.0-1.0-616.0","0","0","86478","","null","","","null","68","","NaN","","","","","","","","","","","","","",""
"","response","","html-keyboard-response","441","578673","0.0-1.0-617.0-0.0","0","0","86478","","396","","","68","68","","","2","68","training","adjacent","FG","6","7","P.jpg","N.jpg","1","1","1","",""
"","feedback","","html-keyboard-response","442","579685","0.0-1.0-618.0-0.0","0","0","86478","","null","","","null","68","","","","","","","","","","","","","","","",""
"","ITI","","html-keyboard-response","443","580699","0.0-1.0-621.0","0","0","86478","","null","","","null","68","","","","","","","","","","","","","","","NaN",""
"","S1","","html-keyboard-response","444","580964","0.0-1.0-623.0","0","0","86478","","null","","","null","69","","","","","","","","","","","","","","","",""
"","ISI","","html-keyboard-response","445","581977","0.0-1.0-624.0","0","0","86478","","null","","","null","69","NaN","","","","","","","","","","","","","","",""
"","S2","","html-keyboard-response","446","582242","0.0-1.0-625.0","0","0","86478","","null","","","null","69","","NaN","","","","","","","","","","","","","",""
"","response","","html-keyboard-response","447","582476","0.0-1.0-626.0-0.0","0","0","86478","","220","","","75","69","","","2","69","training","adjacent","GF","7","6","N.jpg","P.jpg","0","0","1","",""
"","feedback","","html-keyboard-response","448","583485","0.0-1.0-627.0-0.0","0","0","86478","","null","","","null","69","","","","","","","","","","","","","","","",""
"","ITI","","html-keyboard-response","449","584494","0.0-1.0-630.0","0","0","86478","","null","","","null","69","","","","","","","","","","","","","","","NaN",""
"","S1","","html-keyboard-response","450","584753","0.0-1.0-632.0","0","0","86478","","null","","","null","70","","","","","","","","","","","","","","","",""
"","ISI","","html-keyboard-response","451","585760","0.0-1.0-633.0","0","0","86478","","null","","","null","70","NaN","","","","","","","","","","","","","","",""
"","S2","","html-keyboard-response","452","586025","0.0-1.0-634.0","0","0","86478","","null","","","null","70","","NaN","","","","","","","","","","","","","",""
"","response","","html-keyboard-response","453","586115","0.0-1.0-635.0-0.0","0","0","86478","","76","","","68","70","","","2","70","training","adjacent","AB","1","2","O.jpg","L.jpg","1","1","1","",""
"","feedback","","html-keyboard-response","454","587124","0.0-1.0-636.0-0.0","0","0","86478","","null","","","null","70","","","","","","","","","","","","","","","",""
"","ITI","","html-keyboard-response","455","588133","0.0-1.0-639.0","0","0","86478","","null","","","null","70","","","","","","","","","","","","","","","NaN",""
"","S1","","html-keyboard-response","456","588397","0.0-1.0-641.0","0","0","86478","","null","","","null","71","","","","","","","","","","","","","","","",""
"","ISI","","html-keyboard-response","457","589405","0.0-1.0-642.0","0","0","86478","","null","","","null","71","NaN","","","","","","","","","","","","","","",""
"","S2","","html-keyboard-response","458","589669","0.0-1.0-643.0","0","0","86478","","null","","","null","71","","NaN","","","","","","","","","","","","","",""
"","response","","html-keyboard-response","459","589882","0.0-1.0-644.0-0.0","0","0","86478","","206","","","75","71","","","2","71","training","adjacent","BA","2","1","L.jpg","O.jpg","0","0","1","",""
"","feedback","","html-keyboard-response","460","590890","0.0-1.0-645.0-0.0","0","0","86478","","null","","","null","71","","","","","","","","","","","","","","","",""
"","ITI","","html-keyboard-response","461","591898","0.0-1.0-648.0","0","0","86478","","null","","","null","71","","","","","","","","","","","","","","","NaN",""
"","S1","","html-keyboard-response","462","592157","0.0-1.0-650.0","0","0","86478","","null","","","null","72","","","","","","","","","","","","","","","",""
"","ISI","","html-keyboard-response","463","593164","0.0-1.0-651.0","0","0","86478","","null","","","null","72","NaN","","","","","","","","","","","","","","",""
"","S2","","html-keyboard-response","464","593428","0.0-1.0-652.0","0","0","86478","","null","","","null","72","","NaN","","","","","","","","","","","","","",""
"","response","","html-keyboard-response","465","593934","0.0-1.0-653.0-0.0","0","0","86478","","499","","","68","72","","","2","72","training","adjacent","CB","3","2","M.jpg","L.jpg","1","0","0","",""
"","feedback","","html-keyboard-response","466","594944","0.0-1.0-654.0-0.0","0","0","86478","","null","","","null","72","","","","","","","","","","","","","","","",""
"","time_out","","html-keyboard-response","467","596952","0.0-1.0-656.0-0.0","0","0","86478","","null","","","null","72","","","","","","","","","","","","","","","",""
"","ITI","","html-keyboard-response","468","597960","0.0-1.0-657.0","0","0","86478","","null","","","null","72","","","","","","","","","","","","","","","NaN",""
"","S1","","html-keyboard-response","469","598224","0.0-1.0-659.0","0","0","86478","","null","","","null","73","","","","","","","","","","","","","","","",""
"","ISI","","html-keyboard-response","470","599232","0.0-1.0-660.0","0","0","86478","","null","","","null","73","NaN","","","","","","","","","","","","","","",""
"","S2","","html-keyboard-response","471","599497","0.0-1.0-661.0","0","0","86478","","null","","","null","73","","NaN","","","","","","","","","","","","","",""
"","response","","html-keyboard-response","472","599616","0.0-1.0-662.0-0.0","0","0","86478","","112","","","75","73","","","2","73","training","adjacent","GF","7","6","N.jpg","P.jpg","0","0","1","",""
"","feedback","","html-keyboard-response","473","600624","0.0-1.0-663.0-0.0","0","0","86478","","null","","","null","73","","","","","","","","","","","","","","","",""
"","ITI","","html-keyboard-response","474","601639","0.0-1.0-666.0","0","0","86478","","null","","","null","73","","","","","","","","","","","","","","","NaN",""
"","S1","","html-keyboard-response","475","601904","0.0-1.0-668.0","0","0","86478","","null","","","null","74","","","","","","","","","","","","","","","",""
"","ISI","","html-keyboard-response","476","602912","0.0-1.0-669.0","0","0","86478","","null","","","null","74","NaN","","","","","","","","","","","","","","",""
"","S2","","html-keyboard-response","477","603176","0.0-1.0-670.0","0","0","86478","","null","","","null","74","","NaN","","","","","","","","","","","","","",""
"","response","","html-keyboard-response","478","603851","0.0-1.0-671.0-0.0","0","0","86478","","668","","","68","74","","","2","74","training","adjacent","CB","3","2","M.jpg","L.jpg","1","0","0","",""
"","feedback","","html-keyboard-response","479","604859","0.0-1.0-672.0-0.0","0","0","86478","","null","","","null","74","","","","","","","","","","","","","","","",""
"","time_out","","html-keyboard-response","480","606867","0.0-1.0-674.0-0.0","0","0","86478","","null","","","null","74","","","","","","","","","","","","","","","",""
"","ITI","","html-keyboard-response","481","607879","0.0-1.0-675.0","0","0","86478","","null","","","null","74","","","","","","","","","","","","","","","NaN",""
"","S1","","html-keyboard-response","482","608144","0.0-1.0-677.0","0","0","86478","","null","","","null","75","","","","","","","","","","","","","","","",""
"","ISI","","html-keyboard-response","483","609151","0.0-1.0-678.0","0","0","86478","","null","","","null","75","NaN","","","","","","","","","","","","","","",""
"","S2","","html-keyboard-response","484","609410","0.0-1.0-679.0","0","0","86478","","null","","","null","75","","NaN","","","","","","","","","","","","","",""
"","response","","html-keyboard-response","485","609766","0.0-1.0-680.0-0.0","0","0","86478","","348","","","75","75","","","2","75","training","adjacent","ED","5","4","Q.jpg","R.jpg","0","0","1","",""
"","feedback","","html-keyboard-response","486","610774","0.0-1.0-681.0-0.0","0","0","86478","","null","","","null","75","","","","","","","","","","","","","","","",""
"","ITI","","html-keyboard-response","487","611782","0.0-1.0-684.0","0","0","86478","","null","","","null","75","","","","","","","","","","","","","","","NaN",""
"","S1","","html-keyboard-response","488","612038","0.0-1.0-686.0","0","0","86478","","null","","","null","76","","","","","","","","","","","","","","","",""
"","ISI","","html-keyboard-response","489","613045","0.0-1.0-687.0","0","0","86478","","null","","","null","76","NaN","","","","","","","","","","","","","","",""
"","S2","","html-keyboard-response","490","613304","0.0-1.0-688.0","0","0","86478","","null","","","null","76","","NaN","","","","","","","","","","","","","",""
"","response","","html-keyboard-response","491","613446","0.0-1.0-689.0-0.0","0","0","86478","","136","","","75","76","","","2","76","training","adjacent","EF","5","6","Q.jpg","P.jpg","0","1","0","",""
"","feedback","","html-keyboard-response","492","614461","0.0-1.0-690.0-0.0","0","0","86478","","null","","","null","76","","","","","","","","","","","","","","","",""
"","time_out","","html-keyboard-response","493","616470","0.0-1.0-692.0-0.0","0","0","86478","","null","","","null","76","","","","","","","","","","","","","","","",""
"","ITI","","html-keyboard-response","494","617478","0.0-1.0-693.0","0","0","86478","","null","","","null","76","","","","","","","","","","","","","","","NaN",""
"","S1","","html-keyboard-response","495","617736","0.0-1.0-695.0","0","0","86478","","null","","","null","77","","","","","","","","","","","","","","","",""
"","ISI","","html-keyboard-response","496","618750","0.0-1.0-696.0","0","0","86478","","null","","","null","77","NaN","","","","","","","","","","","","","","",""
"","S2","","html-keyboard-response","497","619015","0.0-1.0-697.0","0","0","86478","","null","","","null","77","","NaN","","","","","","","","","","","","","",""
"","response","","html-keyboard-response","498","619094","0.0-1.0-698.0-0.0","0","0","86478","","65","","","68","77","","","2","77","training","adjacent","BA","2","1","L.jpg","O.jpg","1","0","0","",""
"","feedback","","html-keyboard-response","499","620104","0.0-1.0-699.0-0.0","0","0","86478","","null","","","null","77","","","","","","","","","","","","","","","",""
"","time_out","","html-keyboard-response","500","622112","0.0-1.0-701.0-0.0","0","0","86478","","null","","","null","77","","","","","","","","","","","","","","","",""
"","ITI","","html-keyboard-response","501","623120","0.0-1.0-702.0","0","0","86478","","null","","","null","77","","","","","","","","","","","","","","","NaN",""
"","S1","","html-keyboard-response","502","623384","0.0-1.0-704.0","0","0","86478","","null","","","null","78","","","","","","","","","","","","","","","",""
"","ISI","","html-keyboard-response","503","624391","0.0-1.0-705.0","0","0","86478","","null","","","null","78","NaN","","","","","","","","","","","","","","",""
"","S2","","html-keyboard-response","504","624655","0.0-1.0-706.0","0","0","86478","","null","","","null","78","","NaN","","","","","","","","","","","","","",""
"","response","","html-keyboard-response","505","624993","0.0-1.0-707.0-0.0","0","0","86478","","330","","","68","78","","","2","78","training","adjacent","BC","2","3","L.jpg","M.jpg","1","1","1","",""
"","feedback","","html-keyboard-response","506","626001","0.0-1.0-708.0-0.0","0","0","86478","","null","","","null","78","","","","","","","","","","","","","","","",""
"","ITI","","html-keyboard-response","507","627010","0.0-1.0-711.0","0","0","86478","","null","","","null","78","","","","","","","","","","","","","","","NaN",""
"","S1","","html-keyboard-response","508","627274","0.0-1.0-713.0","0","0","86478","","null","","","null","79","","","","","","","","","","","","","","","",""
"","ISI","","html-keyboard-response","509","628282","0.0-1.0-714.0","0","0","86478","","null","","","null","79","NaN","","","","","","","","","","","","","","",""
"","S2","","html-keyboard-response","510","628547","0.0-1.0-715.0","0","0","86478","","null","","","null","79","","NaN","","","","","","","","","","","","","",""
"","response","","html-keyboard-response","511","629074","0.0-1.0-716.0-0.0","0","0","86478","","513","","","75","79","","","2","79","training","adjacent","DC","4","3","R.jpg","M.jpg","0","0","1","",""
"","feedback","","html-keyboard-response","512","630084","0.0-1.0-717.0-0.0","0","0","86478","","null","","","null","79","","","","","","","","","","","","","","","",""
"","ITI","","html-keyboard-response","513","631092","0.0-1.0-720.0","0","0","86478","","null","","","null","79","","","","","","","","","","","","","","","NaN",""
"","S1","","html-keyboard-response","514","631357","0.0-1.0-722.0","0","0","86478","","null","","","null","80","","","","","","","","","","","","","","","",""
"","ISI","","html-keyboard-response","515","632365","0.0-1.0-723.0","0","0","86478","","null","","","null","80","NaN","","","","","","","","","","","","","","",""
"","S2","","html-keyboard-response","516","632629","0.0-1.0-724.0","0","0","86478","","null","","","null","80","","NaN","","","","","","","","","","","","","",""
"","response","","html-keyboard-response","517","633228","0.0-1.0-725.0-0.0","0","0","86478","","585","","","75","80","","","2","80","training","adjacent","CB","3","2","M.jpg","L.jpg","0","0","1","",""
"","feedback","","html-keyboard-response","518","634238","0.0-1.0-726.0-0.0","0","0","86478","","null","","","null","80","","","","","","","","","","","","","","","",""
"","ITI","","html-keyboard-response","519","635247","0.0-1.0-729.0","0","0","86478","","null","","","null","80","","","","","","","","","","","","","","","NaN",""
"","S1","","html-keyboard-response","520","635512","0.0-1.0-731.0","0","0","86478","","null","","","null","81","","","","","","","","","","","","","","","",""
"","ISI","","html-keyboard-response","521","636519","0.0-1.0-732.0","0","0","86478","","null","","","null","81","NaN","","","","","","","","","","","","","","",""
"","S2","","html-keyboard-response","522","636777","0.0-1.0-733.0","0","0","86478","","null","","","null","81","","NaN","","","","","","","","","","","","","",""
"","response","","html-keyboard-response","523","636984","0.0-1.0-734.0-0.0","0","0","86478","","202","","","68","81","","","2","81","training","adjacent","FG","6","7","P.jpg","N.jpg","1","1","1","",""
"","feedback","","html-keyboard-response","524","637993","0.0-1.0-735.0-0.0","0","0","86478","","null","","","null","81","","","","","","","","","","","","","","","",""
"","ITI","","html-keyboard-response","525","639001","0.0-1.0-738.0","0","0","86478","","null","","","null","81","","","","","","","","","","","","","","","NaN",""
"","S1","","html-keyboard-response","526","639259","0.0-1.0-740.0","0","0","86478","","null","","","null","82","","","","","","","","","","","","","","","",""
"","ISI","","html-keyboard-response","527","640266","0.0-1.0-741.0","0","0","86478","","null","","","null","82","NaN","","","","","","","","","","","","","","",""
"","S2","","html-keyboard-response","528","640531","0.0-1.0-742.0","0","0","86478","","null","","","null","82","","NaN","","","","","","","","","","","","","",""
"","response","","html-keyboard-response","529","640867","0.0-1.0-743.0-0.0","0","0","86478","","329","","","75","82","","","2","82","training","adjacent","BA","2","1","L.jpg","O.jpg","0","0","1","",""
"","feedback","","html-keyboard-response","530","641876","0.0-1.0-744.0-0.0","0","0","86478","","null","","","null","82","","","","","","","","","","","","","","","",""
"","ITI","","html-keyboard-response","531","642882","0.0-1.0-747.0","0","0","86478","","null","","","null","82","","","","","","","","","","","","","","","NaN",""
"","S1","","html-keyboard-response","532","643140","0.0-1.0-749.0","0","0","86478","","null","","","null","83","","","","","","","","","","","","","","","",""
"","ISI","","html-keyboard-response","533","644153","0.0-1.0-750.0","0","0","86478","","null","","","null","83","NaN","","","","","","","","","","","","","","",""
"","S2","","html-keyboard-response","534","644419","0.0-1.0-751.0","0","0","86478","","null","","","null","83","","NaN","","","","","","","","","","","","","",""
"","response","","html-keyboard-response","535","644982","0.0-1.0-752.0-0.0","0","0","86478","","549","","","75","83","","","2","83","training","adjacent","DE","4","5","R.jpg","Q.jpg","0","1","0","",""
"","feedback","","html-keyboard-response","536","645992","0.0-1.0-753.0-0.0","0","0","86478","","null","","","null","83","","","","","","","","","","","","","","","",""
"","time_out","","html-keyboard-response","537","648000","0.0-1.0-755.0-0.0","0","0","86478","","null","","","null","83","","","","","","","","","","","","","","","",""
"","ITI","","html-keyboard-response","538","649008","0.0-1.0-756.0","0","0","86478","","null","","","null","83","","","","","","","","","","","","","","","NaN",""
"","S1","","html-keyboard-response","539","649266","0.0-1.0-758.0","0","0","86478","","null","","","null","84","","","","","","","","","","","","","","","",""
"","ISI","","html-keyboard-response","540","650274","0.0-1.0-759.0","0","0","86478","","null","","","null","84","NaN","","","","","","","","","","","","","","",""
"","S2","","html-keyboard-response","541","650538","0.0-1.0-760.0","0","0","86478","","null","","","null","84","","NaN","","","","","","","","","","","","","",""
"","response","","html-keyboard-response","542","650916","0.0-1.0-761.0-0.0","0","0","86478","","364","","","68","84","","","2","84","training","adjacent","FG","6","7","P.jpg","N.jpg","1","1","1","",""
"","feedback","","html-keyboard-response","543","651926","0.0-1.0-762.0-0.0","0","0","86478","","null","","","null","84","","","","","","","","","","","","","","","",""
"","ITI","","html-keyboard-response","544","652934","0.0-1.0-765.0","0","0","86478","","null","","","null","84","","","","","","","","","","","","","","","NaN",""
"","S1","","html-keyboard-response","545","653193","0.0-1.0-767.0","0","0","86478","","null","","","null","85","","","","","","","","","","","","","","","",""
"","ISI","","html-keyboard-response","546","654200","0.0-1.0-768.0","0","0","86478","","null","","","null","85","NaN","","","","","","","","","","","","","","",""
"","S2","","html-keyboard-response","547","654465","0.0-1.0-769.0","0","0","86478","","null","","","null","85","","NaN","","","","","","","","","","","","","",""
"","response","","html-keyboard-response","548","655460","0.0-1.0-770.0-0.0","0","0","86478","","988","","","75","85","","","2","85","training","adjacent","CD","3","4","M.jpg","R.jpg","0","1","0","",""
"","feedback","","html-keyboard-response","549","656468","0.0-1.0-771.0-0.0","0","0","86478","","null","","","null","85","","","","","","","","","","","","","","","",""
"","time_out","","html-keyboard-response","550","658476","0.0-1.0-773.0-0.0","0","0","86478","","null","","","null","85","","","","","","","","","","","","","","","",""
"","ITI","","html-keyboard-response","551","659484","0.0-1.0-774.0","0","0","86478","","null","","","null","85","","","","","","","","","","","","","","","NaN",""
"","S1","","html-keyboard-response","552","659749","0.0-1.0-776.0","0","0","86478","","null","","","null","86","","","","","","","","","","","","","","","",""
"","ISI","","html-keyboard-response","553","660757","0.0-1.0-777.0","0","0","86478","","null","","","null","86","NaN","","","","","","","","","","","","","","",""
"","S2","","html-keyboard-response","554","661016","0.0-1.0-778.0","0","0","86478","","null","","","null","86","","NaN","","","","","","","","","","","","","",""
"","response","","html-keyboard-response","555","662071","0.0-1.0-779.0-0.0","0","0","86478","","1049","","","75","86","","","2","86","training","adjacent","FE","6","5","P.jpg","Q.jpg","0","0","1","",""
"","feedback","","html-keyboard-response","556","663079","0.0-1.0-780.0-0.0","0","0","86478","","null","","","null","86","","","","","","","","","","","","","","","",""
"","ITI","","html-keyboard-response","557","664088","0.0-1.0-783.0","0","0","86478","","null","","","null","86","","","","","","","","","","","","","","","NaN",""
"","S1","","html-keyboard-response","558","664347","0.0-1.0-785.0","0","0","86478","","null","","","null","87","","","","","","","","","","","","","","","",""
"","ISI","","html-keyboard-response","559","665355","0.0-1.0-786.0","0","0","86478","","null","","","null","87","NaN","","","","","","","","","","","","","","",""
"","S2","","html-keyboard-response","560","665613","0.0-1.0-787.0","0","0","86478","","null","","","null","87","","NaN","","","","","","","","","","","","","",""
"","response","","html-keyboard-response","561","666771","0.0-1.0-788.0-0.0","0","0","86478","","1152","","","68","87","","","2","87","training","adjacent","DC","4","3","R.jpg","M.jpg","1","0","0","",""
"","feedback","","html-keyboard-response","562","667779","0.0-1.0-789.0-0.0","0","0","86478","","null","","","null","87","","","","","","","","","","","","","","","",""
"","time_out","","html-keyboard-response","563","669788","0.0-1.0-791.0-0.0","0","0","86478","","null","","","null","87","","","","","","","","","","","","","","","",""
"","ITI","","html-keyboard-response","564","670801","0.0-1.0-792.0","0","0","86478","","null","","","null","87","","","","","","","","","","","","","","","NaN",""
"","S1","","html-keyboard-response","565","671067","0.0-1.0-794.0","0","0","86478","","null","","","null","88","","","","","","","","","","","","","","","",""
"","ISI","","html-keyboard-response","566","672074","0.0-1.0-795.0","0","0","86478","","null","","","null","88","NaN","","","","","","","","","","","","","","",""
"","S2","","html-keyboard-response","567","672339","0.0-1.0-796.0","0","0","86478","","null","","","null","88","","NaN","","","","","","","","","","","","","",""
"","response","","html-keyboard-response","568","672399","0.0-1.0-797.0-0.0","0","0","86478","","53","","","68","88","","","2","88","training","adjacent","FE","6","5","P.jpg","Q.jpg","1","0","0","",""
"","feedback","","html-keyboard-response","569","673408","0.0-1.0-798.0-0.0","0","0","86478","","null","","","null","88","","","","","","","","","","","","","","","",""
"","time_out","","html-keyboard-response","570","675418","0.0-1.0-800.0-0.0","0","0","86478","","null","","","null","88","","","","","","","","","","","","","","","",""
"","ITI","","html-keyboard-response","571","676431","0.0-1.0-801.0","0","0","86478","","null","","","null","88","","","","","","","","","","","","","","","NaN",""
"","S1","","html-keyboard-response","572","676696","0.0-1.0-803.0","0","0","86478","","null","","","null","89","","","","","","","","","","","","","","","",""
"","ISI","","html-keyboard-response","573","677704","0.0-1.0-804.0","0","0","86478","","null","","","null","89","NaN","","","","","","","","","","","","","","",""
"","S2","","html-keyboard-response","574","677969","0.0-1.0-805.0","0","0","86478","","null","","","null","89","","NaN","","","","","","","","","","","","","",""
"","response","","html-keyboard-response","575","678275","0.0-1.0-806.0-0.0","0","0","86478","","293","","","68","89","","","2","89","training","adjacent","CD","3","4","M.jpg","R.jpg","1","1","1","",""
"","feedback","","html-keyboard-response","576","679286","0.0-1.0-807.0-0.0","0","0","86478","","null","","","null","89","","","","","","","","","","","","","","","",""
"","ITI","","html-keyboard-response","577","680294","0.0-1.0-810.0","0","0","86478","","null","","","null","89","","","","","","","","","","","","","","","NaN",""
"","S1","","html-keyboard-response","578","680559","0.0-1.0-812.0","0","0","86478","","null","","","null","90","","","","","","","","","","","","","","","",""
"","ISI","","html-keyboard-response","579","681567","0.0-1.0-813.0","0","0","86478","","null","","","null","90","NaN","","","","","","","","","","","","","","",""
"","S2","","html-keyboard-response","580","681826","0.0-1.0-814.0","0","0","86478","","null","","","null","90","","NaN","","","","","","","","","","","","","",""
"","response","","html-keyboard-response","581","682580","0.0-1.0-815.0-0.0","0","0","86478","","748","","","68","90","","","2","90","training","adjacent","EF","5","6","Q.jpg","P.jpg","1","1","1","",""
"","feedback","","html-keyboard-response","582","683589","0.0-1.0-816.0-0.0","0","0","86478","","null","","","null","90","","","","","","","","","","","","","","","",""
