"success","ttype","start_time","trial_type","trial_index","time_elapsed","internal_node_id","warning","missed_checkup","PID","view_history","rt","responses","repeat_instructions","key_press","index","keypress_isi","keypress_S2","block","trial_num","phase","group_type","pair_type","S1_stim","S2_stim","S1_img","S2_img","S1_chosen","S1_higher","accuracy","keypress_iti","total_bonus_tally"
"true","full_screen","d04132023hr1648","fullscreen","0","5433","0.0-0.0","0","0","46951","","","","","","","","","","","","","","","","","","","","","",""
"","instructions","","instructions","1","29716","0.0-1.0-0.0-0.0","0","0","46951","[{""page_index"":0,""viewing_time"":4680},{""page_index"":1,""viewing_time"":11624},{""page_index"":2,""viewing_time"":6488},{""page_index"":3,""viewing_time"":1488}]","24280","","","","","","","","","","","","","","","","","","","",""
"","comprehension_check","","survey-multi-choice","2","50085","0.0-1.0-0.0-1.0","0","0","46951","","20365","{""Q0"":""True"",""Q1"":""K"",""Q2"":""Once the second image appears and while the screen 'MAKE A CHOICE' is shown"",""Q3"":""Green mark"",""Q4"":""either D or K""}","0","","","","","","","","","","","","","","","","","",""
"","start_exp","","html-keyboard-response","3","52327","0.0-1.0-1.0","0","0","46951","","2239","","","32","","","","","","","","","","","","","","","","",""
"","S1","","html-keyboard-response","4","52582","0.0-1.0-2.0","0","0","46951","","null","","","null","0","","","","","","","","","","","","","","","",""
"","ISI","","html-keyboard-response","5","53585","0.0-1.0-3.0","0","0","46951","","null","","","null","0","NaN","","","","","","","","","","","","","","",""
"","S2","","html-keyboard-response","6","53839","0.0-1.0-4.0","0","0","46951","","null","","","null","0","","NaN","","","","","","","","","","","","","",""
"","response","","html-keyboard-response","7","55592","0.0-1.0-5.0-0.0","0","0","46951","","null","","","null","0","","","1","0","training","adjacent","CD","3","4","O.jpg","Q.jpg","NaN","1","0","",""
"","too_slow_prompt","","html-keyboard-response","8","56595","0.0-1.0-7.0-0.0","1","0","46951","","null","","","null","","","","","","","","","","","","","","","","",""
"","time_out","","html-keyboard-response","9","58599","0.0-1.0-8.0-0.0","0","0","46951","","null","","","null","0","","","","","","","","","","","","","","","",""
"","ITI","","html-keyboard-response","10","59603","0.0-1.0-9.0","0","0","46951","","null","","","null","0","","","","","","","","","","","","","","","NaN",""
"","S1","","html-keyboard-response","11","59858","0.0-1.0-11.0","0","0","46951","","null","","","null","1","","","","","","","","","","","","","","","",""
"","ISI","","html-keyboard-response","12","60861","0.0-1.0-12.0","0","0","46951","","null","","","null","1","NaN","","","","","","","","","","","","","","",""
"","S2","","html-keyboard-response","13","61115","0.0-1.0-13.0","0","0","46951","","null","","","null","1","","NaN","","","","","","","","","","","","","",""
"","response","","html-keyboard-response","14","61527","0.0-1.0-14.0-0.0","0","0","46951","","409","","","75","1","","","1","1","training","adjacent","ED","5","4","P.jpg","Q.jpg","1","0","0","",""
"","feedback","","html-keyboard-response","15","62530","0.0-1.0-15.0-0.0","0","0","46951","","null","","","null","1","","","","","","","","","","","","","","","",""
"","time_out","","html-keyboard-response","16","64534","0.0-1.0-17.0-0.0","0","0","46951","","null","","","null","1","","","","","","","","","","","","","","","",""
"","ITI","","html-keyboard-response","17","65538","0.0-1.0-18.0","0","0","46951","","null","","","null","1","","","","","","","","","","","","","","","NaN",""
"","S1","","html-keyboard-response","18","65792","0.0-1.0-20.0","0","0","46951","","null","","","null","2","","","","","","","","","","","","","","","",""
"","ISI","","html-keyboard-response","19","66795","0.0-1.0-21.0","0","0","46951","","null","","","null","2","NaN","","","","","","","","","","","","","","",""
"","S2","","html-keyboard-response","20","67049","0.0-1.0-22.0","0","0","46951","","null","","","null","2","","NaN","","","","","","","","","","","","","",""
"","response","","html-keyboard-response","21","67767","0.0-1.0-23.0-0.0","0","0","46951","","716","","","75","2","","","1","2","training","adjacent","FE","6","5","L.jpg","P.jpg","1","0","0","",""
"","feedback","","html-keyboard-response","22","68771","0.0-1.0-24.0-0.0","0","0","46951","","null","","","null","2","","","","","","","","","","","","","","","",""
"","time_out","","html-keyboard-response","23","70774","0.0-1.0-26.0-0.0","0","0","46951","","null","","","null","2","","","","","","","","","","","","","","","",""
"","ITI","","html-keyboard-response","24","71778","0.0-1.0-27.0","0","0","46951","","null","","","null","2","","","","","","","","","","","","","","","NaN",""
"","S1","","html-keyboard-response","25","72032","0.0-1.0-29.0","0","0","46951","","null","","","null","3","","","","","","","","","","","","","","","",""
"","ISI","","html-keyboard-response","26","73035","0.0-1.0-30.0","0","0","46951","","null","","","null","3","NaN","","","","","","","","","","","","","","",""
"","S2","","html-keyboard-response","27","73289","0.0-1.0-31.0","0","0","46951","","null","","","null","3","","NaN","","","","","","","","","","","","","",""
"","response","","html-keyboard-response","28","73551","0.0-1.0-32.0-0.0","0","0","46951","","259","","","68","3","","","1","3","training","adjacent","DC","4","3","Q.jpg","O.jpg","0","0","1","",""
"","feedback","","html-keyboard-response","29","74556","0.0-1.0-33.0-0.0","0","0","46951","","null","","","null","3","","","","","","","","","","","","","","","",""
"","ITI","","html-keyboard-response","30","75559","0.0-1.0-36.0","0","0","46951","","null","","","null","3","","","","","","","","","","","","","","","NaN",""
"","S1","","html-keyboard-response","31","75814","0.0-1.0-38.0","0","0","46951","","null","","","null","4","","","","","","","","","","","","","","","",""
"","ISI","","html-keyboard-response","32","76817","0.0-1.0-39.0","0","0","46951","","null","","","null","4","NaN","","","","","","","","","","","","","","",""
"","S2","","html-keyboard-response","33","77071","0.0-1.0-40.0","0","0","46951","","null","","","null","4","","NaN","","","","","","","","","","","","","",""
"","response","","html-keyboard-response","34","78047","0.0-1.0-41.0-0.0","0","0","46951","","973","","","68","4","","","1","4","training","adjacent","BC","2","3","R.jpg","O.jpg","0","1","0","",""
"","feedback","","html-keyboard-response","35","79051","0.0-1.0-42.0-0.0","0","0","46951","","null","","","null","4","","","","","","","","","","","","","","","",""
"","time_out","","html-keyboard-response","36","81054","0.0-1.0-44.0-0.0","0","0","46951","","null","","","null","4","","","","","","","","","","","","","","","",""
"","ITI","","html-keyboard-response","37","82058","0.0-1.0-45.0","0","0","46951","","null","","","null","4","","","","","","","","","","","","","","","NaN",""
"","S1","","html-keyboard-response","38","82312","0.0-1.0-47.0","0","0","46951","","null","","","null","5","","","","","","","","","","","","","","","",""
"","ISI","","html-keyboard-response","39","83329","0.0-1.0-48.0","0","0","46951","","null","","","null","5","NaN","","","","","","","","","","","","","","",""
"","S2","","html-keyboard-response","40","83583","0.0-1.0-49.0","0","0","46951","","null","","","null","5","","NaN","","","","","","","","","","","","","",""
"","response","","html-keyboard-response","41","84023","0.0-1.0-50.0-0.0","0","0","46951","","437","","","75","5","","","1","5","training","adjacent","DE","4","5","Q.jpg","P.jpg","1","1","1","",""
"","feedback","","html-keyboard-response","42","85027","0.0-1.0-51.0-0.0","0","0","46951","","null","","","null","5","","","","","","","","","","","","","","","",""
"","ITI","","html-keyboard-response","43","86031","0.0-1.0-54.0","0","0","46951","","null","","","null","5","","","","","","","","","","","","","","","NaN",""
"","S1","","html-keyboard-response","44","86284","0.0-1.0-56.0","0","0","46951","","null","","","null","6","","","","","","","","","","","","","","","",""
"","ISI","","html-keyboard-response","45","87286","0.0-1.0-57.0","0","0","46951","","null","","","null","6","NaN","","","","","","","","","","","","","","",""
"","S2","","html-keyboard-response","46","87539","0.0-1.0-58.0","0","0","46951","","null","","","null","6","","NaN","","","","","","","","","","","","","",""
"","response","","html-keyboard-response","47","88263","0.0-1.0-59.0-0.0","0","0","46951","","721","","","68","6","","","1","6","training","adjacent","FG","6","7","L.jpg","N.jpg","0","1","0","",""
"","feedback","","html-keyboard-response","48","89267","0.0-1.0-60.0-0.0","0","0","46951","","null","","","null","6","","","","","","","","","","","","","","","",""
"","time_out","","html-keyboard-response","49","91270","0.0-1.0-62.0-0.0","0","0","46951","","null","","","null","6","","","","","","","","","","","","","","","",""
"","ITI","","html-keyboard-response","50","92274","0.0-1.0-63.0","0","0","46951","","null","","","null","6","","","","","","","","","","","","","","","NaN",""
"","S1","","html-keyboard-response","51","92536","0.0-1.0-65.0","0","0","46951","","null","","","null","7","","","","","","","","","","","","","","","",""
"","ISI","","html-keyboard-response","52","93540","0.0-1.0-66.0","0","0","46951","","null","","","null","7","NaN","","","","","","","","","","","","","","",""
"","S2","","html-keyboard-response","53","93793","0.0-1.0-67.0","0","0","46951","","null","","","null","7","","NaN","","","","","","","","","","","","","",""
"","response","","html-keyboard-response","54","93855","0.0-1.0-68.0-0.0","0","0","46951","","59","","","75","7","","","1","7","training","adjacent","AB","1","2","M.jpg","R.jpg","1","1","1","",""
"","feedback","","html-keyboard-response","55","94859","0.0-1.0-69.0-0.0","0","0","46951","","null","","","null","7","","","","","","","","","","","","","","","",""
"","ITI","","html-keyboard-response","56","95863","0.0-1.0-72.0","0","0","46951","","null","","","null","7","","","","","","","","","","","","","","","NaN",""
"","S1","","html-keyboard-response","57","96116","0.0-1.0-74.0","0","0","46951","","null","","","null","8","","","","","","","","","","","","","","","",""
"","ISI","","html-keyboard-response","58","97119","0.0-1.0-75.0","0","0","46951","","null","","","null","8","NaN","","","","","","","","","","","","","","",""
"","S2","","html-keyboard-response","59","97373","0.0-1.0-76.0","0","0","46951","","null","","","null","8","","NaN","","","","","","","","","","","","","",""
"","response","","html-keyboard-response","60","97732","0.0-1.0-77.0-0.0","0","0","46951","","358","","","68","8","","","1","8","training","adjacent","CB","3","2","O.jpg","R.jpg","0","0","1","",""
"","feedback","","html-keyboard-response","61","98735","0.0-1.0-78.0-0.0","0","0","46951","","null","","","null","8","","","","","","","","","","","","","","","",""
"","ITI","","html-keyboard-response","62","99739","0.0-1.0-81.0","0","0","46951","","null","","","null","8","","","","","","","","","","","","","","","NaN",""
"","S1","","html-keyboard-response","63","99992","0.0-1.0-83.0","0","0","46951","","null","","","null","9","","","","","","","","","","","","","","","",""
"","ISI","","html-keyboard-response","64","100995","0.0-1.0-84.0","0","0","46951","","null","","","null","9","NaN","","","","","","","","","","","","","","",""
"","S2","","html-keyboard-response","65","101249","0.0-1.0-85.0","0","0","46951","","null","","","null","9","","NaN","","","","","","","","","","","","","",""
"","response","","html-keyboard-response","66","101589","0.0-1.0-86.0-0.0","0","0","46951","","338","","","75","9","","","1","9","training","adjacent","FG","6","7","L.jpg","N.jpg","1","1","1","",""
"","feedback","","html-keyboard-response","67","102592","0.0-1.0-87.0-0.0","0","0","46951","","null","","","null","9","","","","","","","","","","","","","","","",""
"","ITI","","html-keyboard-response","68","103594","0.0-1.0-90.0","0","0","46951","","null","","","null","9","","","","","","","","","","","","","","","NaN",""
"","S1","","html-keyboard-response","69","103848","0.0-1.0-92.0","0","0","46951","","null","","","null","10","","","","","","","","","","","","","","","",""
"","ISI","","html-keyboard-response","70","104851","0.0-1.0-93.0","0","0","46951","","null","","","null","10","NaN","","","","","","","","","","","","","","",""
"","S2","","html-keyboard-response","71","105104","0.0-1.0-94.0","0","0","46951","","null","","","null","10","","NaN","","","","","","","","","","","","","",""
"","response","","html-keyboard-response","72","105287","0.0-1.0-95.0-0.0","0","0","46951","","180","","","75","10","","","1","10","training","adjacent","FE","6","5","L.jpg","P.jpg","1","0","0","",""
"","feedback","","html-keyboard-response","73","106291","0.0-1.0-96.0-0.0","0","0","46951","","null","","","null","10","","","","","","","","","","","","","","","",""
"","time_out","","html-keyboard-response","74","108295","0.0-1.0-98.0-0.0","0","0","46951","","null","","","null","10","","","","","","","","","","","","","","","",""
"","ITI","","html-keyboard-response","75","109297","0.0-1.0-99.0","0","0","46951","","null","","","null","10","","","","","","","","","","","","","","","NaN",""
"","S1","","html-keyboard-response","76","109551","0.0-1.0-101.0","0","0","46951","","null","","","null","11","","","","","","","","","","","","","","","",""
"","ISI","","html-keyboard-response","77","110553","0.0-1.0-102.0","0","0","46951","","null","","","null","11","NaN","","","","","","","","","","","","","","",""
"","S2","","html-keyboard-response","78","110805","0.0-1.0-103.0","0","0","46951","","null","","","null","11","","NaN","","","","","","","","","","","","","",""
"","response","","html-keyboard-response","79","110999","0.0-1.0-104.0-0.0","0","0","46951","","191","","","68","11","","","1","11","training","adjacent","CD","3","4","O.jpg","Q.jpg","0","1","0","",""
"","feedback","","html-keyboard-response","80","112003","0.0-1.0-105.0-0.0","0","0","46951","","null","","","null","11","","","","","","","","","","","","","","","",""
"","time_out","","html-keyboard-response","81","114006","0.0-1.0-107.0-0.0","0","0","46951","","null","","","null","11","","","","","","","","","","","","","","","",""
"","ITI","","html-keyboard-response","82","115009","0.0-1.0-108.0","0","0","46951","","null","","","null","11","","","","","","","","","","","","","","","NaN",""
"","S1","","html-keyboard-response","83","115262","0.0-1.0-110.0","0","0","46951","","null","","","null","12","","","","","","","","","","","","","","","",""
"","ISI","","html-keyboard-response","84","116265","0.0-1.0-111.0","0","0","46951","","null","","","null","12","NaN","","","","","","","","","","","","","","",""
"","S2","","html-keyboard-response","85","116519","0.0-1.0-112.0","0","0","46951","","null","","","null","12","","NaN","","","","","","","","","","","","","",""
"","response","","html-keyboard-response","86","116831","0.0-1.0-113.0-0.0","0","0","46951","","309","","","75","12","","","1","12","training","adjacent","EF","5","6","P.jpg","L.jpg","1","1","1","",""
"","feedback","","html-keyboard-response","87","117834","0.0-1.0-114.0-0.0","0","0","46951","","null","","","null","12","","","","","","","","","","","","","","","",""
"","ITI","","html-keyboard-response","88","118838","0.0-1.0-117.0","0","0","46951","","null","","","null","12","","","","","","","","","","","","","","","NaN",""
"","S1","","html-keyboard-response","89","119102","0.0-1.0-119.0","0","0","46951","","null","","","null","13","","","","","","","","","","","","","","","",""
"","ISI","","html-keyboard-response","90","120120","0.0-1.0-120.0","0","0","46951","","null","","","null","13","NaN","","","","","","","","","","","","","","",""
"","S2","","html-keyboard-response","91","120372","0.0-1.0-121.0","0","0","46951","","null","","","null","13","","NaN","","","","","","","","","","","","","",""
"","response","","html-keyboard-response","92","120447","0.0-1.0-122.0-0.0","0","0","46951","","72","","","75","13","","","1","13","training","adjacent","ED","5","4","P.jpg","Q.jpg","1","0","0","",""
"","feedback","","html-keyboard-response","93","121451","0.0-1.0-123.0-0.0","0","0","46951","","null","","","null","13","","","","","","","","","","","","","","","",""
"","time_out","","html-keyboard-response","94","123454","0.0-1.0-125.0-0.0","0","0","46951","","null","","","null","13","","","","","","","","","","","","","","","",""
"","ITI","","html-keyboard-response","95","124458","0.0-1.0-126.0","0","0","46951","","null","","","null","13","","","","","","","","","","","","","","","NaN",""
"","S1","","html-keyboard-response","96","124712","0.0-1.0-128.0","0","0","46951","","null","","","null","14","","","","","","","","","","","","","","","",""
"","ISI","","html-keyboard-response","97","125714","0.0-1.0-129.0","0","0","46951","","null","","","null","14","NaN","","","","","","","","","","","","","","",""
"","S2","","html-keyboard-response","98","125968","0.0-1.0-130.0","0","0","46951","","null","","","null","14","","NaN","","","","","","","","","","","","","",""
"","response","","html-keyboard-response","99","125972","0.0-1.0-131.0-0.0","0","0","46951","","2","","","68","14","","","1","14","training","adjacent","DC","4","3","Q.jpg","O.jpg","0","0","1","",""
"","feedback","","html-keyboard-response","100","126975","0.0-1.0-132.0-0.0","0","0","46951","","null","","","null","14","","","","","","","","","","","","","","","",""
"","ITI","","html-keyboard-response","101","127978","0.0-1.0-135.0","0","0","46951","","null","","","null","14","","","","","","","","","","","","","","","NaN",""
"","S1","","html-keyboard-response","102","128232","0.0-1.0-137.0","0","0","46951","","null","","","null","15","","","","","","","","","","","","","","","",""
"","ISI","","html-keyboard-response","103","129236","0.0-1.0-138.0","0","0","46951","","null","","","null","15","NaN","","","","","","","","","","","","","","",""
"","S2","","html-keyboard-response","104","129490","0.0-1.0-139.0","0","0","46951","","null","","","null","15","","NaN","","","","","","","","","","","","","",""
"","response","","html-keyboard-response","105","129988","0.0-1.0-140.0-0.0","0","0","46951","","496","","","68","15","","","1","15","training","adjacent","CB","3","2","O.jpg","R.jpg","0","0","1","",""
"","feedback","","html-keyboard-response","106","130991","0.0-1.0-141.0-0.0","0","0","46951","","null","","","null","15","","","","","","","","","","","","","","","",""
"","ITI","","html-keyboard-response","107","131993","0.0-1.0-144.0","0","0","46951","","null","","","null","15","","","","","","","","","","","","","","","NaN",""
"","S1","","html-keyboard-response","108","132245","0.0-1.0-146.0","0","0","46951","","null","","","null","16","","","","","","","","","","","","","","","",""
"","ISI","","html-keyboard-response","109","133248","0.0-1.0-147.0","0","0","46951","","null","","","null","16","NaN","","","","","","","","","","","","","","",""
"","S2","","html-keyboard-response","110","133502","0.0-1.0-148.0","0","0","46951","","null","","","null","16","","NaN","","","","","","","","","","","","","",""
"","response","","html-keyboard-response","111","133876","0.0-1.0-149.0-0.0","0","0","46951","","372","","","68","16","","","1","16","training","adjacent","DC","4","3","Q.jpg","O.jpg","0","0","1","",""
"","feedback","","html-keyboard-response","112","134877","0.0-1.0-150.0-0.0","0","0","46951","","null","","","null","16","","","","","","","","","","","","","","","",""
"","ITI","","html-keyboard-response","113","135879","0.0-1.0-153.0","0","0","46951","","null","","","null","16","","","","","","","","","","","","","","","NaN",""
"","S1","","html-keyboard-response","114","136133","0.0-1.0-155.0","0","0","46951","","null","","","null","17","","","","","","","","","","","","","","","",""
"","ISI","","html-keyboard-response","115","137136","0.0-1.0-156.0","0","0","46951","","null","","","null","17","NaN","","","","","","","","","","","","","","",""
"","S2","","html-keyboard-response","116","137366","0.0-1.0-157.0","0","0","46951","","227","","","75","17","","k","1","17","training","adjacent","AB","1","2","M.jpg","R.jpg","1","1","1","",""
"","feedback","","html-keyboard-response","117","138371","0.0-1.0-159.0-0.0","0","0","46951","","null","","","null","17","","","","","","","","","","","","","","","",""
"","ITI","","html-keyboard-response","118","139375","0.0-1.0-162.0","0","0","46951","","null","","","null","17","","","","","","","","","","","","","","","NaN",""
"","S1","","html-keyboard-response","119","139629","0.0-1.0-164.0","0","0","46951","","null","","","null","18","","","","","","","","","","","","","","","",""
"","ISI","","html-keyboard-response","120","140632","0.0-1.0-165.0","0","0","46951","","null","","","null","18","NaN","","","","","","","","","","","","","","",""
"","S2","","html-keyboard-response","121","140887","0.0-1.0-166.0","0","0","46951","","null","","","null","18","","NaN","","","","","","","","","","","","","",""
"","response","","html-keyboard-response","122","141148","0.0-1.0-167.0-0.0","0","0","46951","","260","","","68","18","","","1","18","training","adjacent","CD","3","4","O.jpg","Q.jpg","0","1","0","",""
"","feedback","","html-keyboard-response","123","142150","0.0-1.0-168.0-0.0","0","0","46951","","null","","","null","18","","","","","","","","","","","","","","","",""
"","time_out","","html-keyboard-response","124","144152","0.0-1.0-170.0-0.0","0","0","46951","","null","","","null","18","","","","","","","","","","","","","","","",""
"","ITI","","html-keyboard-response","125","145154","0.0-1.0-171.0","0","0","46951","","null","","","null","18","","","","","","","","","","","","","","","NaN",""
"","S1","","html-keyboard-response","126","145407","0.0-1.0-173.0","0","0","46951","","null","","","null","19","","","","","","","","","","","","","","","",""
"","ISI","","html-keyboard-response","127","146410","0.0-1.0-174.0","0","0","46951","","null","","","null","19","NaN","","","","","","","","","","","","","","",""
"","S2","","html-keyboard-response","128","146663","0.0-1.0-175.0","0","0","46951","","null","","","null","19","","NaN","","","","","","","","","","","","","",""
"","response","","html-keyboard-response","129","147366","0.0-1.0-176.0-0.0","0","0","46951","","700","","","68","19","","","1","19","training","adjacent","AB","1","2","M.jpg","R.jpg","0","1","0","",""
"","feedback","","html-keyboard-response","130","148370","0.0-1.0-177.0-0.0","0","0","46951","","null","","","null","19","","","","","","","","","","","","","","","",""
"","time_out","","html-keyboard-response","131","150372","0.0-1.0-179.0-0.0","0","0","46951","","null","","","null","19","","","","","","","","","","","","","","","",""
"","ITI","","html-keyboard-response","132","151375","0.0-1.0-180.0","0","0","46951","","null","","","null","19","","","","","","","","","","","","","","","NaN",""
"","S1","","html-keyboard-response","133","151629","0.0-1.0-182.0","0","0","46951","","null","","","null","20","","","","","","","","","","","","","","","",""
"","ISI","","html-keyboard-response","134","152631","0.0-1.0-183.0","0","0","46951","","null","","","null","20","NaN","","","","","","","","","","","","","","",""
"","S2","","html-keyboard-response","135","152884","0.0-1.0-184.0","0","0","46951","","null","","","null","20","","NaN","","","","","","","","","","","","","",""
"","response","","html-keyboard-response","136","153118","0.0-1.0-185.0-0.0","0","0","46951","","231","","","75","20","","","1","20","training","adjacent","CB","3","2","O.jpg","R.jpg","1","0","0","",""
"","feedback","","html-keyboard-response","137","154121","0.0-1.0-186.0-0.0","0","0","46951","","null","","","null","20","","","","","","","","","","","","","","","",""
"","time_out","","html-keyboard-response","138","156124","0.0-1.0-188.0-0.0","0","0","46951","","null","","","null","20","","","","","","","","","","","","","","","",""
"","ITI","","html-keyboard-response","139","157128","0.0-1.0-189.0","0","0","46951","","null","","","null","20","","","","","","","","","","","","","","","NaN",""
"","S1","","html-keyboard-response","140","157382","0.0-1.0-191.0","0","0","46951","","null","","","null","21","","","","","","","","","","","","","","","",""
"","ISI","","html-keyboard-response","141","158385","0.0-1.0-192.0","0","0","46951","","null","","","null","21","NaN","","","","","","","","","","","","","","",""
"","S2","","html-keyboard-response","142","158637","0.0-1.0-193.0","0","0","46951","","null","","","null","21","","NaN","","","","","","","","","","","","","",""
"","response","","html-keyboard-response","143","158822","0.0-1.0-194.0-0.0","0","0","46951","","183","","","68","21","","","1","21","training","adjacent","DE","4","5","Q.jpg","P.jpg","0","1","0","",""
"","feedback","","html-keyboard-response","144","159825","0.0-1.0-195.0-0.0","0","0","46951","","null","","","null","21","","","","","","","","","","","","","","","",""
"","time_out","","html-keyboard-response","145","161828","0.0-1.0-197.0-0.0","0","0","46951","","null","","","null","21","","","","","","","","","","","","","","","",""
"","ITI","","html-keyboard-response","146","162832","0.0-1.0-198.0","0","0","46951","","null","","","null","21","","","","","","","","","","","","","","","NaN",""
"","S1","","html-keyboard-response","147","163085","0.0-1.0-200.0","0","0","46951","","null","","","null","22","","","","","","","","","","","","","","","",""
"","ISI","","html-keyboard-response","148","164088","0.0-1.0-201.0","0","0","46951","","991","","","75","22","k","","","","","","","","","","","","","","",""
"","S2","","html-keyboard-response","149","164341","0.0-1.0-202.0","0","0","46951","","null","","","null","22","","NaN","","","","","","","","","","","","","",""
"","response","","html-keyboard-response","150","164987","0.0-1.0-203.0-0.0","0","0","46951","","644","","","75","22","","","1","22","training","adjacent","EF","5","6","P.jpg","L.jpg","1","1","1","",""
"","feedback","","html-keyboard-response","151","165991","0.0-1.0-204.0-0.0","0","0","46951","","null","","","null","22","","","","","","","","","","","","","","","",""
"","ITI","","html-keyboard-response","152","166995","0.0-1.0-207.0","0","0","46951","","null","","","null","22","","","","","","","","","","","","","","","NaN",""
"","S1","","html-keyboard-response","153","167248","0.0-1.0-209.0","0","0","46951","","null","","","null","23","","","","","","","","","","","","","","","",""
"","ISI","","html-keyboard-response","154","168252","0.0-1.0-210.0","0","0","46951","","null","","","null","23","NaN","","","","","","","","","","","","","","",""
"","S2","","html-keyboard-response","155","168504","0.0-1.0-211.0","0","0","46951","","null","","","null","23","","NaN","","","","","","","","","","","","","",""
"","response","","html-keyboard-response","156","170256","0.0-1.0-212.0-0.0","0","0","46951","","null","","","null","23","","","1","23","training","adjacent","DE","4","5","Q.jpg","P.jpg","NaN","1","0","",""
"","too_slow_prompt","","html-keyboard-response","157","171260","0.0-1.0-214.0-0.0","1","0","46951","","null","","","null","","","","","","","","","","","","","","","","",""
"","time_out","","html-keyboard-response","158","173263","0.0-1.0-215.0-0.0","0","0","46951","","null","","","null","23","","","","","","","","","","","","","","","",""
"","ITI","","html-keyboard-response","159","174265","0.0-1.0-216.0","0","0","46951","","null","","","null","23","","","","","","","","","","","","","","","NaN",""
"","S1","","html-keyboard-response","160","174518","0.0-1.0-218.0","0","0","46951","","null","","","null","24","","","","","","","","","","","","","","","",""
"","ISI","","html-keyboard-response","161","175520","0.0-1.0-219.0","0","0","46951","","null","","","null","24","NaN","","","","","","","","","","","","","","",""
"","S2","","html-keyboard-response","162","175775","0.0-1.0-220.0","0","0","46951","","null","","","null","24","","NaN","","","","","","","","","","","","","",""
"","response","","html-keyboard-response","163","176238","0.0-1.0-221.0-0.0","0","0","46951","","461","","","75","24","","","1","24","training","adjacent","BC","2","3","R.jpg","O.jpg","1","1","1","",""
"","feedback","","html-keyboard-response","164","177242","0.0-1.0-222.0-0.0","0","0","46951","","null","","","null","24","","","","","","","","","","","","","","","",""
"","ITI","","html-keyboard-response","165","178246","0.0-1.0-225.0","0","0","46951","","null","","","null","24","","","","","","","","","","","","","","","NaN",""
"","S1","","html-keyboard-response","166","178499","0.0-1.0-227.0","0","0","46951","","null","","","null","25","","","","","","","","","","","","","","","",""
"","ISI","","html-keyboard-response","167","179502","0.0-1.0-228.0","0","0","46951","","null","","","null","25","NaN","","","","","","","","","","","","","","",""
"","S2","","html-keyboard-response","168","179756","0.0-1.0-229.0","0","0","46951","","null","","","null","25","","NaN","","","","","","","","","","","","","",""
"","response","","html-keyboard-response","169","180507","0.0-1.0-230.0-0.0","0","0","46951","","749","","","68","25","","","1","25","training","adjacent","BC","2","3","R.jpg","O.jpg","0","1","0","",""
"","feedback","","html-keyboard-response","170","181511","0.0-1.0-231.0-0.0","0","0","46951","","null","","","null","25","","","","","","","","","","","","","","","",""
"","time_out","","html-keyboard-response","171","183514","0.0-1.0-233.0-0.0","0","0","46951","","null","","","null","25","","","","","","","","","","","","","","","",""
"","ITI","","html-keyboard-response","172","184517","0.0-1.0-234.0","0","0","46951","","null","","","null","25","","","","","","","","","","","","","","","NaN",""
"","S1","","html-keyboard-response","173","184770","0.0-1.0-236.0","0","0","46951","","null","","","null","26","","","","","","","","","","","","","","","",""
"","ISI","","html-keyboard-response","174","185773","0.0-1.0-237.0","0","0","46951","","null","","","null","26","NaN","","","","","","","","","","","","","","",""
"","S2","","html-keyboard-response","175","186026","0.0-1.0-238.0","0","0","46951","","null","","","null","26","","NaN","","","","","","","","","","","","","",""
"","response","","html-keyboard-response","176","186854","0.0-1.0-239.0-0.0","0","0","46951","","826","","","75","26","","","1","26","training","adjacent","ED","5","4","P.jpg","Q.jpg","1","0","0","",""
"","feedback","","html-keyboard-response","177","187857","0.0-1.0-240.0-0.0","0","0","46951","","null","","","null","26","","","","","","","","","","","","","","","",""
"","time_out","","html-keyboard-response","178","189859","0.0-1.0-242.0-0.0","0","0","46951","","null","","","null","26","","","","","","","","","","","","","","","",""
"","ITI","","html-keyboard-response","179","190860","0.0-1.0-243.0","0","0","46951","","null","","","null","26","","","","","","","","","","","","","","","NaN",""
"","S1","","html-keyboard-response","180","191113","0.0-1.0-245.0","0","0","46951","","null","","","null","27","","","","","","","","","","","","","","","",""
"","ISI","","html-keyboard-response","181","192117","0.0-1.0-246.0","0","0","46951","","null","","","null","27","NaN","","","","","","","","","","","","","","",""
"","S2","","html-keyboard-response","182","192370","0.0-1.0-247.0","0","0","46951","","null","","","null","27","","NaN","","","","","","","","","","","","","",""
"","response","","html-keyboard-response","183","192917","0.0-1.0-248.0-0.0","0","0","46951","","545","","","68","27","","","1","27","training","adjacent","AB","1","2","M.jpg","R.jpg","0","1","0","",""
"","feedback","","html-keyboard-response","184","193928","0.0-1.0-249.0-0.0","0","0","46951","","null","","","null","27","","","","","","","","","","","","","","","",""
"","time_out","","html-keyboard-response","185","195932","0.0-1.0-251.0-0.0","0","0","46951","","null","","","null","27","","","","","","","","","","","","","","","",""
"","ITI","","html-keyboard-response","186","196934","0.0-1.0-252.0","0","0","46951","","null","","","null","27","","","","","","","","","","","","","","","NaN",""
"","S1","","html-keyboard-response","187","197186","0.0-1.0-254.0","0","0","46951","","null","","","null","28","","","","","","","","","","","","","","","",""
"","ISI","","html-keyboard-response","188","198189","0.0-1.0-255.0","0","0","46951","","null","","","null","28","NaN","","","","","","","","","","","","","","",""
"","S2","","html-keyboard-response","189","198443","0.0-1.0-256.0","0","0","46951","","null","","","null","28","","NaN","","","","","","","","","","","","","",""
"","response","","html-keyboard-response","190","198863","0.0-1.0-257.0-0.0","0","0","46951","","417","","","75","28","","","1","28","training","adjacent","EF","5","6","P.jpg","L.jpg","1","1","1","",""
"","feedback","","html-keyboard-response","191","199867","0.0-1.0-258.0-0.0","0","0","46951","","null","","","null","28","","","","","","","","","","","","","","","",""
"","ITI","","html-keyboard-response","192","200871","0.0-1.0-261.0","0","0","46951","","null","","","null","28","","","","","","","","","","","","","","","NaN",""
"","S1","","html-keyboard-response","193","201125","0.0-1.0-263.0","0","0","46951","","null","","","null","29","","","","","","","","","","","","","","","",""
"","ISI","","html-keyboard-response","194","202129","0.0-1.0-264.0","0","0","46951","","null","","","null","29","NaN","","","","","","","","","","","","","","",""
"","S2","","html-keyboard-response","195","202382","0.0-1.0-265.0","0","0","46951","","null","","","null","29","","NaN","","","","","","","","","","","","","",""
"","response","","html-keyboard-response","196","203069","0.0-1.0-266.0-0.0","0","0","46951","","686","","","68","29","","","1","29","training","adjacent","DC","4","3","Q.jpg","O.jpg","0","0","1","",""
"","feedback","","html-keyboard-response","197","204071","0.0-1.0-267.0-0.0","0","0","46951","","null","","","null","29","","","","","","","","","","","","","","","",""
"","ITI","","html-keyboard-response","198","205072","0.0-1.0-270.0","0","0","46951","","null","","","null","29","","","","","","","","","","","","","","","NaN",""
"","S1","","html-keyboard-response","199","205325","0.0-1.0-272.0","0","0","46951","","null","","","null","30","","","","","","","","","","","","","","","",""
"","ISI","","html-keyboard-response","200","206328","0.0-1.0-273.0","0","0","46951","","null","","","null","30","NaN","","","","","","","","","","","","","","",""
"","S2","","html-keyboard-response","201","206579","0.0-1.0-274.0","0","0","46951","","null","","","null","30","","NaN","","","","","","","","","","","","","",""
"","response","","html-keyboard-response","202","207268","0.0-1.0-275.0-0.0","0","0","46951","","688","","","75","30","","","1","30","training","adjacent","CB","3","2","O.jpg","R.jpg","1","0","0","",""
"","feedback","","html-keyboard-response","203","208271","0.0-1.0-276.0-0.0","0","0","46951","","null","","","null","30","","","","","","","","","","","","","","","",""
"","time_out","","html-keyboard-response","204","210273","0.0-1.0-278.0-0.0","0","0","46951","","null","","","null","30","","","","","","","","","","","","","","","",""
"","ITI","","html-keyboard-response","205","211277","0.0-1.0-279.0","0","0","46951","","null","","","null","30","","","","","","","","","","","","","","","NaN",""
"","S1","","html-keyboard-response","206","211531","0.0-1.0-281.0","0","0","46951","","null","","","null","31","","","","","","","","","","","","","","","",""
"","ISI","","html-keyboard-response","207","212534","0.0-1.0-282.0","0","0","46951","","null","","","null","31","NaN","","","","","","","","","","","","","","",""
"","S2","","html-keyboard-response","208","212787","0.0-1.0-283.0","0","0","46951","","null","","","null","31","","NaN","","","","","","","","","","","","","",""
"","response","","html-keyboard-response","209","213103","0.0-1.0-284.0-0.0","0","0","46951","","314","","","68","31","","","1","31","training","adjacent","DE","4","5","Q.jpg","P.jpg","0","1","0","",""
"","feedback","","html-keyboard-response","210","214106","0.0-1.0-285.0-0.0","0","0","46951","","null","","","null","31","","","","","","","","","","","","","","","",""
"","time_out","","html-keyboard-response","211","216109","0.0-1.0-287.0-0.0","0","0","46951","","null","","","null","31","","","","","","","","","","","","","","","",""
"","ITI","","html-keyboard-response","212","217111","0.0-1.0-288.0","0","0","46951","","null","","","null","31","","","","","","","","","","","","","","","NaN",""
"","S1","","html-keyboard-response","213","217364","0.0-1.0-290.0","0","0","46951","","null","","","null","32","","","","","","","","","","","","","","","",""
"","ISI","","html-keyboard-response","214","218368","0.0-1.0-291.0","0","0","46951","","null","","","null","32","NaN","","","","","","","","","","","","","","",""
"","S2","","html-keyboard-response","215","218622","0.0-1.0-292.0","0","0","46951","","null","","","null","32","","NaN","","","","","","","","","","","","","",""
"","response","","html-keyboard-response","216","218724","0.0-1.0-293.0-0.0","0","0","46951","","100","","","75","32","","","1","32","training","adjacent","GF","7","6","N.jpg","L.jpg","1","0","0","",""
"","feedback","","html-keyboard-response","217","219728","0.0-1.0-294.0-0.0","0","0","46951","","null","","","null","32","","","","","","","","","","","","","","","",""
"","time_out","","html-keyboard-response","218","221731","0.0-1.0-296.0-0.0","0","0","46951","","null","","","null","32","","","","","","","","","","","","","","","",""
"","ITI","","html-keyboard-response","219","222734","0.0-1.0-297.0","0","0","46951","","null","","","null","32","","","","","","","","","","","","","","","NaN",""
"","S1","","html-keyboard-response","220","222989","0.0-1.0-299.0","0","0","46951","","null","","","null","33","","","","","","","","","","","","","","","",""
"","ISI","","html-keyboard-response","221","223992","0.0-1.0-300.0","0","0","46951","","null","","","null","33","NaN","","","","","","","","","","","","","","",""
"","S2","","html-keyboard-response","222","224246","0.0-1.0-301.0","0","0","46951","","null","","","null","33","","NaN","","","","","","","","","","","","","",""
"","response","","html-keyboard-response","223","224397","0.0-1.0-302.0-0.0","0","0","46951","","149","","","68","33","","","1","33","training","adjacent","ED","5","4","P.jpg","Q.jpg","0","0","1","",""
"","feedback","","html-keyboard-response","224","225399","0.0-1.0-303.0-0.0","0","0","46951","","null","","","null","33","","","","","","","","","","","","","","","",""
"","ITI","","html-keyboard-response","225","226403","0.0-1.0-306.0","0","0","46951","","null","","","null","33","","","","","","","","","","","","","","","NaN",""
"","S1","","html-keyboard-response","226","226656","0.0-1.0-308.0","0","0","46951","","null","","","null","34","","","","","","","","","","","","","","","",""
"","ISI","","html-keyboard-response","227","227659","0.0-1.0-309.0","0","0","46951","","null","","","null","34","NaN","","","","","","","","","","","","","","",""
"","S2","","html-keyboard-response","228","227913","0.0-1.0-310.0","0","0","46951","","null","","","null","34","","NaN","","","","","","","","","","","","","",""
"","response","","html-keyboard-response","229","228231","0.0-1.0-311.0-0.0","0","0","46951","","315","","","75","34","","","1","34","training","adjacent","FE","6","5","L.jpg","P.jpg","1","0","0","",""
"","feedback","","html-keyboard-response","230","229235","0.0-1.0-312.0-0.0","0","0","46951","","null","","","null","34","","","","","","","","","","","","","","","",""
"","time_out","","html-keyboard-response","231","231239","0.0-1.0-314.0-0.0","0","0","46951","","null","","","null","34","","","","","","","","","","","","","","","",""
"","ITI","","html-keyboard-response","232","232242","0.0-1.0-315.0","0","0","46951","","null","","","null","34","","","","","","","","","","","","","","","NaN",""
"","S1","","html-keyboard-response","233","232495","0.0-1.0-317.0","0","0","46951","","null","","","null","35","","","","","","","","","","","","","","","",""
"","ISI","","html-keyboard-response","234","233497","0.0-1.0-318.0","0","0","46951","","null","","","null","35","NaN","","","","","","","","","","","","","","",""
"","S2","","html-keyboard-response","235","233751","0.0-1.0-319.0","0","0","46951","","null","","","null","35","","NaN","","","","","","","","","","","","","",""
"","response","","html-keyboard-response","236","233919","0.0-1.0-320.0-0.0","0","0","46951","","166","","","68","35","","","1","35","training","adjacent","BA","2","1","R.jpg","M.jpg","0","0","1","",""
"","feedback","","html-keyboard-response","237","234922","0.0-1.0-321.0-0.0","0","0","46951","","null","","","null","35","","","","","","","","","","","","","","","",""
"","ITI","","html-keyboard-response","238","235926","0.0-1.0-324.0","0","0","46951","","null","","","null","35","","","","","","","","","","","","","","","NaN",""
"","S1","","html-keyboard-response","239","236180","0.0-1.0-326.0","0","0","46951","","null","","","null","36","","","","","","","","","","","","","","","",""
"","ISI","","html-keyboard-response","240","237182","0.0-1.0-327.0","0","0","46951","","null","","","null","36","NaN","","","","","","","","","","","","","","",""
"","S2","","html-keyboard-response","241","237436","0.0-1.0-328.0","0","0","46951","","null","","","null","36","","NaN","","","","","","","","","","","","","",""
"","response","","html-keyboard-response","242","238231","0.0-1.0-329.0-0.0","0","0","46951","","792","","","68","36","","","1","36","training","adjacent","BC","2","3","R.jpg","O.jpg","0","1","0","",""
"","feedback","","html-keyboard-response","243","239234","0.0-1.0-330.0-0.0","0","0","46951","","null","","","null","36","","","","","","","","","","","","","","","",""
"","time_out","","html-keyboard-response","244","241236","0.0-1.0-332.0-0.0","0","0","46951","","null","","","null","36","","","","","","","","","","","","","","","",""
"","ITI","","html-keyboard-response","245","242239","0.0-1.0-333.0","0","0","46951","","null","","","null","36","","","","","","","","","","","","","","","NaN",""
"","S1","","html-keyboard-response","246","242493","0.0-1.0-335.0","0","0","46951","","null","","","null","37","","","","","","","","","","","","","","","",""
"","ISI","","html-keyboard-response","247","243497","0.0-1.0-336.0","0","0","46951","","null","","","null","37","NaN","","","","","","","","","","","","","","",""
"","S2","","html-keyboard-response","248","243750","0.0-1.0-337.0","0","0","46951","","null","","","null","37","","NaN","","","","","","","","","","","","","",""
"","response","","html-keyboard-response","249","243780","0.0-1.0-338.0-0.0","0","0","46951","","28","","","68","37","","","1","37","training","adjacent","BA","2","1","R.jpg","M.jpg","0","0","1","",""
"","feedback","","html-keyboard-response","250","244783","0.0-1.0-339.0-0.0","0","0","46951","","null","","","null","37","","","","","","","","","","","","","","","",""
"","ITI","","html-keyboard-response","251","245786","0.0-1.0-342.0","0","0","46951","","null","","","null","37","","","","","","","","","","","","","","","NaN",""
"","S1","","html-keyboard-response","252","246040","0.0-1.0-344.0","0","0","46951","","null","","","null","38","","","","","","","","","","","","","","","",""
"","ISI","","html-keyboard-response","253","247044","0.0-1.0-345.0","0","0","46951","","null","","","null","38","NaN","","","","","","","","","","","","","","",""
"","S2","","html-keyboard-response","254","247298","0.0-1.0-346.0","0","0","46951","","null","","","null","38","","NaN","","","","","","","","","","","","","",""
"","response","","html-keyboard-response","255","247756","0.0-1.0-347.0-0.0","0","0","46951","","456","","","75","38","","","1","38","training","adjacent","FE","6","5","L.jpg","P.jpg","1","0","0","",""
"","feedback","","html-keyboard-response","256","248759","0.0-1.0-348.0-0.0","0","0","46951","","null","","","null","38","","","","","","","","","","","","","","","",""
"","time_out","","html-keyboard-response","257","250762","0.0-1.0-350.0-0.0","0","0","46951","","null","","","null","38","","","","","","","","","","","","","","","",""
"","ITI","","html-keyboard-response","258","251765","0.0-1.0-351.0","0","0","46951","","null","","","null","38","","","","","","","","","","","","","","","NaN",""
"","S1","","html-keyboard-response","259","252019","0.0-1.0-353.0","0","0","46951","","null","","","null","39","","","","","","","","","","","","","","","",""
"","ISI","","html-keyboard-response","260","253021","0.0-1.0-354.0","0","0","46951","","null","","","null","39","NaN","","","","","","","","","","","","","","",""
"","S2","","html-keyboard-response","261","253273","0.0-1.0-355.0","0","0","46951","","null","","","null","39","","NaN","","","","","","","","","","","","","",""
"","response","","html-keyboard-response","262","253582","0.0-1.0-356.0-0.0","0","0","46951","","306","","","68","39","","","1","39","training","adjacent","FG","6","7","L.jpg","N.jpg","0","1","0","",""
"","feedback","","html-keyboard-response","263","254588","0.0-1.0-357.0-0.0","0","0","46951","","null","","","null","39","","","","","","","","","","","","","","","",""
"","time_out","","html-keyboard-response","264","256591","0.0-1.0-359.0-0.0","0","0","46951","","null","","","null","39","","","","","","","","","","","","","","","",""
"","ITI","","html-keyboard-response","265","257594","0.0-1.0-360.0","0","0","46951","","null","","","null","39","","","","","","","","","","","","","","","NaN",""
"","S1","","html-keyboard-response","266","257848","0.0-1.0-362.0","0","0","46951","","null","","","null","40","","","","","","","","","","","","","","","",""
"","ISI","","html-keyboard-response","267","258852","0.0-1.0-363.0","0","0","46951","","null","","","null","40","NaN","","","","","","","","","","","","","","",""
"","S2","","html-keyboard-response","268","259105","0.0-1.0-364.0","0","0","46951","","null","","","null","40","","NaN","","","","","","","","","","","","","",""
"","response","","html-keyboard-response","269","259286","0.0-1.0-365.0-0.0","0","0","46951","","179","","","68","40","","","1","40","training","adjacent","BA","2","1","R.jpg","M.jpg","0","0","1","",""
"","feedback","","html-keyboard-response","270","260290","0.0-1.0-366.0-0.0","0","0","46951","","null","","","null","40","","","","","","","","","","","","","","","",""
"","ITI","","html-keyboard-response","271","261293","0.0-1.0-369.0","0","0","46951","","null","","","null","40","","","","","","","","","","","","","","","NaN",""
"","S1","","html-keyboard-response","272","261546","0.0-1.0-371.0","0","0","46951","","null","","","null","41","","","","","","","","","","","","","","","",""
"","ISI","","html-keyboard-response","273","262549","0.0-1.0-372.0","0","0","46951","","null","","","null","41","NaN","","","","","","","","","","","","","","",""
"","S2","","html-keyboard-response","274","262803","0.0-1.0-373.0","0","0","46951","","null","","","null","41","","NaN","","","","","","","","","","","","","",""
"","response","","html-keyboard-response","275","262885","0.0-1.0-374.0-0.0","0","0","46951","","79","","","75","41","","","1","41","training","adjacent","FG","6","7","L.jpg","N.jpg","1","1","1","",""
"","feedback","","html-keyboard-response","276","263889","0.0-1.0-375.0-0.0","0","0","46951","","null","","","null","41","","","","","","","","","","","","","","","",""
"","ITI","","html-keyboard-response","277","264893","0.0-1.0-378.0","0","0","46951","","null","","","null","41","","","","","","","","","","","","","","","NaN",""
"","S1","","html-keyboard-response","278","265148","0.0-1.0-380.0","0","0","46951","","null","","","null","42","","","","","","","","","","","","","","","",""
"","ISI","","html-keyboard-response","279","266151","0.0-1.0-381.0","0","0","46951","","null","","","null","42","NaN","","","","","","","","","","","","","","",""
"","S2","","html-keyboard-response","280","266405","0.0-1.0-382.0","0","0","46951","","null","","","null","42","","NaN","","","","","","","","","","","","","",""
"","response","","html-keyboard-response","281","266878","0.0-1.0-383.0-0.0","0","0","46951","","471","","","68","42","","","1","42","training","adjacent","GF","7","6","N.jpg","L.jpg","0","0","1","",""
"","feedback","","html-keyboard-response","282","267882","0.0-1.0-384.0-0.0","0","0","46951","","null","","","null","42","","","","","","","","","","","","","","","",""
"","ITI","","html-keyboard-response","283","268886","0.0-1.0-387.0","0","0","46951","","null","","","null","42","","","","","","","","","","","","","","","NaN",""
"","S1","","html-keyboard-response","284","269140","0.0-1.0-389.0","0","0","46951","","null","","","null","43","","","","","","","","","","","","","","","",""
"","ISI","","html-keyboard-response","285","270142","0.0-1.0-390.0","0","0","46951","","null","","","null","43","NaN","","","","","","","","","","","","","","",""
"","S2","","html-keyboard-response","286","270395","0.0-1.0-391.0","0","0","46951","","null","","","null","43","","NaN","","","","","","","","","","","","","",""
"","response","","html-keyboard-response","287","270558","0.0-1.0-392.0-0.0","0","0","46951","","161","","","68","43","","","1","43","training","adjacent","EF","5","6","P.jpg","L.jpg","0","1","0","",""
"","feedback","","html-keyboard-response","288","271562","0.0-1.0-393.0-0.0","0","0","46951","","null","","","null","43","","","","","","","","","","","","","","","",""
"","time_out","","html-keyboard-response","289","273566","0.0-1.0-395.0-0.0","0","0","46951","","null","","","null","43","","","","","","","","","","","","","","","",""
"","ITI","","html-keyboard-response","290","274569","0.0-1.0-396.0","0","0","46951","","null","","","null","43","","","","","","","","","","","","","","","NaN",""
"","S1","","html-keyboard-response","291","274823","0.0-1.0-398.0","0","0","46951","","null","","","null","44","","","","","","","","","","","","","","","",""
"","ISI","","html-keyboard-response","292","275826","0.0-1.0-399.0","0","0","46951","","null","","","null","44","NaN","","","","","","","","","","","","","","",""
"","S2","","html-keyboard-response","293","276080","0.0-1.0-400.0","0","0","46951","","null","","","null","44","","NaN","","","","","","","","","","","","","",""
"","response","","html-keyboard-response","294","276326","0.0-1.0-401.0-0.0","0","0","46951","","243","","","75","44","","","1","44","training","adjacent","GF","7","6","N.jpg","L.jpg","1","0","0","",""
"","feedback","","html-keyboard-response","295","277330","0.0-1.0-402.0-0.0","0","0","46951","","null","","","null","44","","","","","","","","","","","","","","","",""
"","time_out","","html-keyboard-response","296","279333","0.0-1.0-404.0-0.0","0","0","46951","","null","","","null","44","","","","","","","","","","","","","","","",""
"","ITI","","html-keyboard-response","297","280338","0.0-1.0-405.0","0","0","46951","","null","","","null","44","","","","","","","","","","","","","","","NaN",""
"","S1","","html-keyboard-response","298","280592","0.0-1.0-407.0","0","0","46951","","null","","","null","45","","","","","","","","","","","","","","","",""
"","ISI","","html-keyboard-response","299","281596","0.0-1.0-408.0","0","0","46951","","null","","","null","45","NaN","","","","","","","","","","","","","","",""
"","S2","","html-keyboard-response","300","281850","0.0-1.0-409.0","0","0","46951","","null","","","null","45","","NaN","","","","","","","","","","","","","",""
"","response","","html-keyboard-response","301","282079","0.0-1.0-410.0-0.0","0","0","46951","","225","","","68","45","","","1","45","training","adjacent","GF","7","6","N.jpg","L.jpg","0","0","1","",""
"","feedback","","html-keyboard-response","302","283083","0.0-1.0-411.0-0.0","0","0","46951","","null","","","null","45","","","","","","","","","","","","","","","",""
"","ITI","","html-keyboard-response","303","284086","0.0-1.0-414.0","0","0","46951","","null","","","null","45","","","","","","","","","","","","","","","NaN",""
"","S1","","html-keyboard-response","304","284340","0.0-1.0-416.0","0","0","46951","","null","","","null","46","","","","","","","","","","","","","","","",""
"","ISI","","html-keyboard-response","305","285343","0.0-1.0-417.0","0","0","46951","","null","","","null","46","NaN","","","","","","","","","","","","","","",""
"","S2","","html-keyboard-response","306","285609","0.0-1.0-418.0","0","0","46951","","null","","","null","46","","NaN","","","","","","","","","","","","","",""
"","response","","html-keyboard-response","307","285958","0.0-1.0-419.0-0.0","0","0","46951","","346","","","68","46","","","1","46","training","adjacent","CD","3","4","O.jpg","Q.jpg","0","1","0","",""
"","feedback","","html-keyboard-response","308","286961","0.0-1.0-420.0-0.0","0","0","46951","","null","","","null","46","","","","","","","","","","","","","","","",""
"","time_out","","html-keyboard-response","309","288965","0.0-1.0-422.0-0.0","0","0","46951","","null","","","null","46","","","","","","","","","","","","","","","",""
"","ITI","","html-keyboard-response","310","289968","0.0-1.0-423.0","0","0","46951","","null","","","null","46","","","","","","","","","","","","","","","NaN",""
"","S1","","html-keyboard-response","311","290222","0.0-1.0-425.0","0","0","46951","","null","","","null","47","","","","","","","","","","","","","","","",""
"","ISI","","html-keyboard-response","312","291225","0.0-1.0-426.0","0","0","46951","","null","","","null","47","NaN","","","","","","","","","","","","","","",""
"","S2","","html-keyboard-response","313","291479","0.0-1.0-427.0","0","0","46951","","null","","","null","47","","NaN","","","","","","","","","","","","","",""
"","response","","html-keyboard-response","314","291766","0.0-1.0-428.0-0.0","0","0","46951","","284","","","75","47","","","1","47","training","adjacent","BA","2","1","R.jpg","M.jpg","1","0","0","",""
"","feedback","","html-keyboard-response","315","292771","0.0-1.0-429.0-0.0","0","0","46951","","null","","","null","47","","","","","","","","","","","","","","","",""
"","time_out","","html-keyboard-response","316","294774","0.0-1.0-431.0-0.0","0","0","46951","","null","","","null","47","","","","","","","","","","","","","","","",""
"","ITI","","html-keyboard-response","317","295778","0.0-1.0-432.0","0","0","46951","","null","","","null","47","","","","","","","","","","","","","","","NaN",""
"","block_over","","html-keyboard-response","318","347310","0.0-1.0-433.0-0.0","0","0","46951","","51527","","","32","47","","","","","","","","","","","","","","","",""
"","S1","","html-keyboard-response","319","347564","0.0-1.0-434.0","0","0","46951","","null","","","null","48","","","","","","","","","","","","","","","",""
"","ISI","","html-keyboard-response","320","348567","0.0-1.0-435.0","0","0","46951","","null","","","null","48","NaN","","","","","","","","","","","","","","",""
"","S2","","html-keyboard-response","321","348821","0.0-1.0-436.0","0","0","46951","","null","","","null","48","","NaN","","","","","","","","","","","","","",""
"","response","","html-keyboard-response","322","349254","0.0-1.0-437.0-0.0","0","0","46951","","431","","","68","48","","","2","48","training","adjacent","DE","4","5","Q.jpg","P.jpg","0","1","0","",""
"","feedback","","html-keyboard-response","323","350259","0.0-1.0-438.0-0.0","0","0","46951","","null","","","null","48","","","","","","","","","","","","","","","",""
"","time_out","","html-keyboard-response","324","352262","0.0-1.0-440.0-0.0","0","0","46951","","null","","","null","48","","","","","","","","","","","","","","","",""
"","ITI","","html-keyboard-response","325","353266","0.0-1.0-441.0","0","0","46951","","null","","","null","48","","","","","","","","","","","","","","","NaN",""
"","S1","","html-keyboard-response","326","353520","0.0-1.0-443.0","0","0","46951","","null","","","null","49","","","","","","","","","","","","","","","",""
"","ISI","","html-keyboard-response","327","354522","0.0-1.0-444.0","0","0","46951","","null","","","null","49","NaN","","","","","","","","","","","","","","",""
"","S2","","html-keyboard-response","328","354775","0.0-1.0-445.0","0","0","46951","","null","","","null","49","","NaN","","","","","","","","","","","","","",""
"","response","","html-keyboard-response","329","355198","0.0-1.0-446.0-0.0","0","0","46951","","420","","","75","49","","","2","49","training","adjacent","CB","3","2","O.jpg","R.jpg","1","0","0","",""
"","feedback","","html-keyboard-response","330","356202","0.0-1.0-447.0-0.0","0","0","46951","","null","","","null","49","","","","","","","","","","","","","","","",""
"","time_out","","html-keyboard-response","331","358206","0.0-1.0-449.0-0.0","0","0","46951","","null","","","null","49","","","","","","","","","","","","","","","",""
"","ITI","","html-keyboard-response","332","359210","0.0-1.0-450.0","0","0","46951","","null","","","null","49","","","","","","","","","","","","","","","NaN",""
"","S1","","html-keyboard-response","333","359463","0.0-1.0-452.0","0","0","46951","","null","","","null","50","","","","","","","","","","","","","","","",""
"","ISI","","html-keyboard-response","334","360470","0.0-1.0-453.0","0","0","46951","","null","","","null","50","NaN","","","","","","","","","","","","","","",""
"","S2","","html-keyboard-response","335","360765","0.0-1.0-454.0","0","0","46951","","null","","","null","50","","NaN","","","","","","","","","","","","","",""
"","response","","html-keyboard-response","336","360956","0.0-1.0-455.0-0.0","0","0","46951","","187","","","75","50","","","2","50","training","adjacent","ED","5","4","P.jpg","Q.jpg","1","0","0","",""
"","feedback","","html-keyboard-response","337","361959","0.0-1.0-456.0-0.0","0","0","46951","","null","","","null","50","","","","","","","","","","","","","","","",""
"","time_out","","html-keyboard-response","338","363961","0.0-1.0-458.0-0.0","0","0","46951","","null","","","null","50","","","","","","","","","","","","","","","",""
"","ITI","","html-keyboard-response","339","364962","0.0-1.0-459.0","0","0","46951","","null","","","null","50","","","","","","","","","","","","","","","NaN",""
"","S1","","html-keyboard-response","340","365216","0.0-1.0-461.0","0","0","46951","","null","","","null","51","","","","","","","","","","","","","","","",""
"","ISI","","html-keyboard-response","341","366218","0.0-1.0-462.0","0","0","46951","","null","","","null","51","NaN","","","","","","","","","","","","","","",""
"","S2","","html-keyboard-response","342","366470","0.0-1.0-463.0","0","0","46951","","null","","","null","51","","NaN","","","","","","","","","","","","","",""
"","response","","html-keyboard-response","343","367108","0.0-1.0-464.0-0.0","0","0","46951","","636","","","68","51","","","2","51","training","adjacent","AB","1","2","M.jpg","R.jpg","0","1","0","",""
"","feedback","","html-keyboard-response","344","368110","0.0-1.0-465.0-0.0","0","0","46951","","null","","","null","51","","","","","","","","","","","","","","","",""
"","time_out","","html-keyboard-response","345","370113","0.0-1.0-467.0-0.0","0","0","46951","","null","","","null","51","","","","","","","","","","","","","","","",""
"","ITI","","html-keyboard-response","346","371116","0.0-1.0-468.0","0","0","46951","","null","","","null","51","","","","","","","","","","","","","","","NaN",""
"","S1","","html-keyboard-response","347","371368","0.0-1.0-470.0","0","0","46951","","null","","","null","52","","","","","","","","","","","","","","","",""
"","ISI","","html-keyboard-response","348","372371","0.0-1.0-471.0","0","0","46951","","null","","","null","52","NaN","","","","","","","","","","","","","","",""
"","S2","","html-keyboard-response","349","372624","0.0-1.0-472.0","0","0","46951","","null","","","null","52","","NaN","","","","","","","","","","","","","",""
"","response","","html-keyboard-response","350","373724","0.0-1.0-473.0-0.0","0","0","46951","","1099","","","68","52","","","2","52","training","adjacent","DE","4","5","Q.jpg","P.jpg","0","1","0","",""
"","feedback","","html-keyboard-response","351","374726","0.0-1.0-474.0-0.0","0","0","46951","","null","","","null","52","","","","","","","","","","","","","","","",""
"","time_out","","html-keyboard-response","352","376727","0.0-1.0-476.0-0.0","0","0","46951","","null","","","null","52","","","","","","","","","","","","","","","",""
"","ITI","","html-keyboard-response","353","377729","0.0-1.0-477.0","0","0","46951","","null","","","null","52","","","","","","","","","","","","","","","NaN",""
"","S1","","html-keyboard-response","354","377982","0.0-1.0-479.0","0","0","46951","","null","","","null","53","","","","","","","","","","","","","","","",""
"","ISI","","html-keyboard-response","355","378984","0.0-1.0-480.0","0","0","46951","","null","","","null","53","NaN","","","","","","","","","","","","","","",""
"","S2","","html-keyboard-response","356","379236","0.0-1.0-481.0","0","0","46951","","null","","","null","53","","NaN","","","","","","","","","","","","","",""
"","response","","html-keyboard-response","357","379332","0.0-1.0-482.0-0.0","0","0","46951","","95","","","75","53","","","2","53","training","adjacent","GF","7","6","N.jpg","L.jpg","1","0","0","",""
"","feedback","","html-keyboard-response","358","380334","0.0-1.0-483.0-0.0","0","0","46951","","null","","","null","53","","","","","","","","","","","","","","","",""
"","time_out","","html-keyboard-response","359","382336","0.0-1.0-485.0-0.0","0","0","46951","","null","","","null","53","","","","","","","","","","","","","","","",""
"","ITI","","html-keyboard-response","360","383338","0.0-1.0-486.0","0","0","46951","","null","","","null","53","","","","","","","","","","","","","","","NaN",""
"","S1","","html-keyboard-response","361","383590","0.0-1.0-488.0","0","0","46951","","null","","","null","54","","","","","","","","","","","","","","","",""
"","ISI","","html-keyboard-response","362","384592","0.0-1.0-489.0","0","0","46951","","null","","","null","54","NaN","","","","","","","","","","","","","","",""
"","S2","","html-keyboard-response","363","384845","0.0-1.0-490.0","0","0","46951","","null","","","null","54","","NaN","","","","","","","","","","","","","",""
"","response","","html-keyboard-response","364","385228","0.0-1.0-491.0-0.0","0","0","46951","","382","","","75","54","","","2","54","training","adjacent","EF","5","6","P.jpg","L.jpg","1","1","1","",""
"","feedback","","html-keyboard-response","365","386231","0.0-1.0-492.0-0.0","0","0","46951","","null","","","null","54","","","","","","","","","","","","","","","",""
"","ITI","","html-keyboard-response","366","387233","0.0-1.0-495.0","0","0","46951","","null","","","null","54","","","","","","","","","","","","","","","NaN",""
"","S1","","html-keyboard-response","367","387486","0.0-1.0-497.0","0","0","46951","","null","","","null","55","","","","","","","","","","","","","","","",""
"","ISI","","html-keyboard-response","368","388488","0.0-1.0-498.0","0","0","46951","","null","","","null","55","NaN","","","","","","","","","","","","","","",""
"","S2","","html-keyboard-response","369","388740","0.0-1.0-499.0","0","0","46951","","null","","","null","55","","NaN","","","","","","","","","","","","","",""
"","response","","html-keyboard-response","370","389060","0.0-1.0-500.0-0.0","0","0","46951","","319","","","68","55","","","2","55","training","adjacent","FE","6","5","L.jpg","P.jpg","0","0","1","",""
"","feedback","","html-keyboard-response","371","390061","0.0-1.0-501.0-0.0","0","0","46951","","null","","","null","55","","","","","","","","","","","","","","","",""
"","ITI","","html-keyboard-response","372","391063","0.0-1.0-504.0","0","0","46951","","null","","","null","55","","","","","","","","","","","","","","","NaN",""
"","S1","","html-keyboard-response","373","391322","0.0-1.0-506.0","0","0","46951","","null","","","null","56","","","","","","","","","","","","","","","",""
"","ISI","","html-keyboard-response","374","392325","0.0-1.0-507.0","0","0","46951","","null","","","null","56","NaN","","","","","","","","","","","","","","",""
"","S2","","html-keyboard-response","375","392577","0.0-1.0-508.0","0","0","46951","","null","","","null","56","","NaN","","","","","","","","","","","","","",""
"","response","","html-keyboard-response","376","393029","0.0-1.0-509.0-0.0","0","0","46951","","450","","","68","56","","","2","56","training","adjacent","FG","6","7","L.jpg","N.jpg","0","1","0","",""
"","feedback","","html-keyboard-response","377","394031","0.0-1.0-510.0-0.0","0","0","46951","","null","","","null","56","","","","","","","","","","","","","","","",""
"","time_out","","html-keyboard-response","378","396034","0.0-1.0-512.0-0.0","0","0","46951","","null","","","null","56","","","","","","","","","","","","","","","",""
"","ITI","","html-keyboard-response","379","397038","0.0-1.0-513.0","0","0","46951","","null","","","null","56","","","","","","","","","","","","","","","NaN",""
"","S1","","html-keyboard-response","380","397291","0.0-1.0-515.0","0","0","46951","","null","","","null","57","","","","","","","","","","","","","","","",""
"","ISI","","html-keyboard-response","381","398293","0.0-1.0-516.0","0","0","46951","","null","","","null","57","NaN","","","","","","","","","","","","","","",""
"","S2","","html-keyboard-response","382","398545","0.0-1.0-517.0","0","0","46951","","null","","","null","57","","NaN","","","","","","","","","","","","","",""
"","response","","html-keyboard-response","383","398876","0.0-1.0-518.0-0.0","0","0","46951","","330","","","75","57","","","2","57","training","adjacent","CD","3","4","O.jpg","Q.jpg","1","1","1","",""
"","feedback","","html-keyboard-response","384","399878","0.0-1.0-519.0-0.0","0","0","46951","","null","","","null","57","","","","","","","","","","","","","","","",""
"","ITI","","html-keyboard-response","385","400881","0.0-1.0-522.0","0","0","46951","","null","","","null","57","","","","","","","","","","","","","","","NaN",""
"","S1","","html-keyboard-response","386","401135","0.0-1.0-524.0","0","0","46951","","null","","","null","58","","","","","","","","","","","","","","","",""
"","ISI","","html-keyboard-response","387","402138","0.0-1.0-525.0","0","0","46951","","null","","","null","58","NaN","","","","","","","","","","","","","","",""
"","S2","","html-keyboard-response","388","402392","0.0-1.0-526.0","0","0","46951","","null","","","null","58","","NaN","","","","","","","","","","","","","",""
"","response","","html-keyboard-response","389","403239","0.0-1.0-527.0-0.0","0","0","46951","","844","","","68","58","","","2","58","training","adjacent","CD","3","4","O.jpg","Q.jpg","0","1","0","",""
"","feedback","","html-keyboard-response","390","404243","0.0-1.0-528.0-0.0","0","0","46951","","null","","","null","58","","","","","","","","","","","","","","","",""
"","time_out","","html-keyboard-response","391","406247","0.0-1.0-530.0-0.0","0","0","46951","","null","","","null","58","","","","","","","","","","","","","","","",""
"","ITI","","html-keyboard-response","392","407251","0.0-1.0-531.0","0","0","46951","","null","","","null","58","","","","","","","","","","","","","","","NaN",""
"","S1","","html-keyboard-response","393","407504","0.0-1.0-533.0","0","0","46951","","null","","","null","59","","","","","","","","","","","","","","","",""
"","ISI","","html-keyboard-response","394","408507","0.0-1.0-534.0","0","0","46951","","null","","","null","59","NaN","","","","","","","","","","","","","","",""
"","S2","","html-keyboard-response","395","408761","0.0-1.0-535.0","0","0","46951","","null","","","null","59","","NaN","","","","","","","","","","","","","",""
"","response","","html-keyboard-response","396","409470","0.0-1.0-536.0-0.0","0","0","46951","","706","","","68","59","","","2","59","training","adjacent","GF","7","6","N.jpg","L.jpg","0","0","1","",""
"","feedback","","html-keyboard-response","397","410474","0.0-1.0-537.0-0.0","0","0","46951","","null","","","null","59","","","","","","","","","","","","","","","",""
"","ITI","","html-keyboard-response","398","411478","0.0-1.0-540.0","0","0","46951","","null","","","null","59","","","","","","","","","","","","","","","NaN",""
"","S1","","html-keyboard-response","399","411732","0.0-1.0-542.0","0","0","46951","","null","","","null","60","","","","","","","","","","","","","","","",""
"","ISI","","html-keyboard-response","400","412735","0.0-1.0-543.0","0","0","46951","","null","","","null","60","NaN","","","","","","","","","","","","","","",""
"","S2","","html-keyboard-response","401","412989","0.0-1.0-544.0","0","0","46951","","null","","","null","60","","NaN","","","","","","","","","","","","","",""
"","response","","html-keyboard-response","402","413566","0.0-1.0-545.0-0.0","0","0","46951","","574","","","75","60","","","2","60","training","adjacent","BC","2","3","R.jpg","O.jpg","1","1","1","",""
"","feedback","","html-keyboard-response","403","414570","0.0-1.0-546.0-0.0","0","0","46951","","null","","","null","60","","","","","","","","","","","","","","","",""
"","ITI","","html-keyboard-response","404","415573","0.0-1.0-549.0","0","0","46951","","null","","","null","60","","","","","","","","","","","","","","","NaN",""
"","S1","","html-keyboard-response","405","415828","0.0-1.0-551.0","0","0","46951","","null","","","null","61","","","","","","","","","","","","","","","",""
"","ISI","","html-keyboard-response","406","416831","0.0-1.0-552.0","0","0","46951","","null","","","null","61","NaN","","","","","","","","","","","","","","",""
"","S2","","html-keyboard-response","407","417091","0.0-1.0-553.0","0","0","46951","","null","","","null","61","","NaN","","","","","","","","","","","","","",""
"","response","","html-keyboard-response","408","417614","0.0-1.0-554.0-0.0","0","0","46951","","520","","","68","61","","","2","61","training","adjacent","BA","2","1","R.jpg","M.jpg","0","0","1","",""
"","feedback","","html-keyboard-response","409","418618","0.0-1.0-555.0-0.0","0","0","46951","","null","","","null","61","","","","","","","","","","","","","","","",""
"","ITI","","html-keyboard-response","410","419621","0.0-1.0-558.0","0","0","46951","","null","","","null","61","","","","","","","","","","","","","","","NaN",""
"","S1","","html-keyboard-response","411","419874","0.0-1.0-560.0","0","0","46951","","null","","","null","62","","","","","","","","","","","","","","","",""
"","ISI","","html-keyboard-response","412","420878","0.0-1.0-561.0","0","0","46951","","null","","","null","62","NaN","","","","","","","","","","","","","","",""
"","S2","","html-keyboard-response","413","421132","0.0-1.0-562.0","0","0","46951","","null","","","null","62","","NaN","","","","","","","","","","","","","",""
"","response","","html-keyboard-response","414","421534","0.0-1.0-563.0-0.0","0","0","46951","","399","","","75","62","","","2","62","training","adjacent","DC","4","3","Q.jpg","O.jpg","1","0","0","",""
"","feedback","","html-keyboard-response","415","422539","0.0-1.0-564.0-0.0","0","0","46951","","null","","","null","62","","","","","","","","","","","","","","","",""
"","time_out","","html-keyboard-response","416","424542","0.0-1.0-566.0-0.0","0","0","46951","","null","","","null","62","","","","","","","","","","","","","","","",""
"","ITI","","html-keyboard-response","417","425546","0.0-1.0-567.0","0","0","46951","","null","","","null","62","","","","","","","","","","","","","","","NaN",""
"","S1","","html-keyboard-response","418","425800","0.0-1.0-569.0","0","0","46951","","null","","","null","63","","","","","","","","","","","","","","","",""
"","ISI","","html-keyboard-response","419","426803","0.0-1.0-570.0","0","0","46951","","null","","","null","63","NaN","","","","","","","","","","","","","","",""
"","S2","","html-keyboard-response","420","427057","0.0-1.0-571.0","0","0","46951","","null","","","null","63","","NaN","","","","","","","","","","","","","",""
"","response","","html-keyboard-response","421","427629","0.0-1.0-572.0-0.0","0","0","46951","","569","","","68","63","","","2","63","training","adjacent","BC","2","3","R.jpg","O.jpg","0","1","0","",""
"","feedback","","html-keyboard-response","422","428633","0.0-1.0-573.0-0.0","0","0","46951","","null","","","null","63","","","","","","","","","","","","","","","",""
"","time_out","","html-keyboard-response","423","430638","0.0-1.0-575.0-0.0","0","0","46951","","null","","","null","63","","","","","","","","","","","","","","","",""
"","ITI","","html-keyboard-response","424","431641","0.0-1.0-576.0","0","0","46951","","null","","","null","63","","","","","","","","","","","","","","","NaN",""
"","S1","","html-keyboard-response","425","431908","0.0-1.0-578.0","0","0","46951","","null","","","null","64","","","","","","","","","","","","","","","",""
"","ISI","","html-keyboard-response","426","432912","0.0-1.0-579.0","0","0","46951","","null","","","null","64","NaN","","","","","","","","","","","","","","",""
"","S2","","html-keyboard-response","427","433166","0.0-1.0-580.0","0","0","46951","","null","","","null","64","","NaN","","","","","","","","","","","","","",""
"","response","","html-keyboard-response","428","433614","0.0-1.0-581.0-0.0","0","0","46951","","445","","","75","64","","","2","64","training","adjacent","EF","5","6","P.jpg","L.jpg","1","1","1","",""
"","feedback","","html-keyboard-response","429","434618","0.0-1.0-582.0-0.0","0","0","46951","","null","","","null","64","","","","","","","","","","","","","","","",""
"","ITI","","html-keyboard-response","430","435623","0.0-1.0-585.0","0","0","46951","","null","","","null","64","","","","","","","","","","","","","","","NaN",""
"","S1","","html-keyboard-response","431","435877","0.0-1.0-587.0","0","0","46951","","null","","","null","65","","","","","","","","","","","","","","","",""
"","ISI","","html-keyboard-response","432","436880","0.0-1.0-588.0","0","0","46951","","null","","","null","65","NaN","","","","","","","","","","","","","","",""
"","S2","","html-keyboard-response","433","437133","0.0-1.0-589.0","0","0","46951","","null","","","null","65","","NaN","","","","","","","","","","","","","",""
"","response","","html-keyboard-response","434","437790","0.0-1.0-590.0-0.0","0","0","46951","","654","","","68","65","","","2","65","training","adjacent","AB","1","2","M.jpg","R.jpg","0","1","0","",""
"","feedback","","html-keyboard-response","435","438793","0.0-1.0-591.0-0.0","0","0","46951","","null","","","null","65","","","","","","","","","","","","","","","",""
"","time_out","","html-keyboard-response","436","440797","0.0-1.0-593.0-0.0","0","0","46951","","null","","","null","65","","","","","","","","","","","","","","","",""
"","ITI","","html-keyboard-response","437","441800","0.0-1.0-594.0","0","0","46951","","null","","","null","65","","","","","","","","","","","","","","","NaN",""
"","S1","","html-keyboard-response","438","442054","0.0-1.0-596.0","0","0","46951","","null","","","null","66","","","","","","","","","","","","","","","",""
"","ISI","","html-keyboard-response","439","443058","0.0-1.0-597.0","0","0","46951","","null","","","null","66","NaN","","","","","","","","","","","","","","",""
"","S2","","html-keyboard-response","440","443312","0.0-1.0-598.0","0","0","46951","","null","","","null","66","","NaN","","","","","","","","","","","","","",""
"","response","","html-keyboard-response","441","443854","0.0-1.0-599.0-0.0","0","0","46951","","539","","","75","66","","","2","66","training","adjacent","ED","5","4","P.jpg","Q.jpg","1","0","0","",""
"","feedback","","html-keyboard-response","442","444858","0.0-1.0-600.0-0.0","0","0","46951","","null","","","null","66","","","","","","","","","","","","","","","",""
"","time_out","","html-keyboard-response","443","446862","0.0-1.0-602.0-0.0","0","0","46951","","null","","","null","66","","","","","","","","","","","","","","","",""
"","ITI","","html-keyboard-response","444","447865","0.0-1.0-603.0","0","0","46951","","null","","","null","66","","","","","","","","","","","","","","","NaN",""
"","S1","","html-keyboard-response","445","448119","0.0-1.0-605.0","0","0","46951","","null","","","null","67","","","","","","","","","","","","","","","",""
"","ISI","","html-keyboard-response","446","449122","0.0-1.0-606.0","0","0","46951","","null","","","null","67","NaN","","","","","","","","","","","","","","",""
"","S2","","html-keyboard-response","447","449376","0.0-1.0-607.0","0","0","46951","","null","","","null","67","","NaN","","","","","","","","","","","","","",""
"","response","","html-keyboard-response","448","449901","0.0-1.0-608.0-0.0","0","0","46951","","522","","","68","67","","","2","67","training","adjacent","BC","2","3","R.jpg","O.jpg","0","1","0","",""
"","feedback","","html-keyboard-response","449","450906","0.0-1.0-609.0-0.0","0","0","46951","","null","","","null","67","","","","","","","","","","","","","","","",""
"","time_out","","html-keyboard-response","450","452909","0.0-1.0-611.0-0.0","0","0","46951","","null","","","null","67","","","","","","","","","","","","","","","",""
"","ITI","","html-keyboard-response","451","453913","0.0-1.0-612.0","0","0","46951","","null","","","null","67","","","","","","","","","","","","","","","NaN",""
"","S1","","html-keyboard-response","452","454166","0.0-1.0-614.0","0","0","46951","","null","","","null","68","","","","","","","","","","","","","","","",""
"","ISI","","html-keyboard-response","453","455170","0.0-1.0-615.0","0","0","46951","","null","","","null","68","NaN","","","","","","","","","","","","","","",""
"","S2","","html-keyboard-response","454","455424","0.0-1.0-616.0","0","0","46951","","null","","","null","68","","NaN","","","","","","","","","","","","","",""
"","response","","html-keyboard-response","455","455878","0.0-1.0-617.0-0.0","0","0","46951","","451","","","75","68","","","2","68","training","adjacent","GF","7","6","N.jpg","L.jpg","1","0","0","",""
"","feedback","","html-keyboard-response","456","456882","0.0-1.0-618.0-0.0","0","0","46951","","null","","","null","68","","","","","","","","","","","","","","","",""
"","time_out","","html-keyboard-response","457","458886","0.0-1.0-620.0-0.0","0","0","46951","","null","","","null","68","","","","","","","","","","","","","","","",""
"","ITI","","html-keyboard-response","458","459889","0.0-1.0-621.0","0","0","46951","","null","","","null","68","","","","","","","","","","","","","","","NaN",""
"","S1","","html-keyboard-response","459","460143","0.0-1.0-623.0","0","0","46951","","null","","","null","69","","","","","","","","","","","","","","","",""
"","ISI","","html-keyboard-response","460","461146","0.0-1.0-624.0","0","0","46951","","null","","","null","69","NaN","","","","","","","","","","","","","","",""
"","S2","","html-keyboard-response","461","461400","0.0-1.0-625.0","0","0","46951","","null","","","null","69","","NaN","","","","","","","","","","","","","",""
"","response","","html-keyboard-response","462","461838","0.0-1.0-626.0-0.0","0","0","46951","","436","","","75","69","","","2","69","training","adjacent","FG","6","7","L.jpg","N.jpg","1","1","1","",""
"","feedback","","html-keyboard-response","463","462843","0.0-1.0-627.0-0.0","0","0","46951","","null","","","null","69","","","","","","","","","","","","","","","",""
"","ITI","","html-keyboard-response","464","463846","0.0-1.0-630.0","0","0","46951","","null","","","null","69","","","","","","","","","","","","","","","NaN",""
"","S1","","html-keyboard-response","465","464099","0.0-1.0-632.0","0","0","46951","","null","","","null","70","","","","","","","","","","","","","","","",""
"","ISI","","html-keyboard-response","466","465103","0.0-1.0-633.0","0","0","46951","","null","","","null","70","NaN","","","","","","","","","","","","","","",""
"","S2","","html-keyboard-response","467","465357","0.0-1.0-634.0","0","0","46951","","null","","","null","70","","NaN","","","","","","","","","","","","","",""
"","response","","html-keyboard-response","468","466244","0.0-1.0-635.0-0.0","0","0","46951","","885","","","75","70","","","2","70","training","adjacent","CB","3","2","O.jpg","R.jpg","1","0","0","",""
"","feedback","","html-keyboard-response","469","467247","0.0-1.0-636.0-0.0","0","0","46951","","null","","","null","70","","","","","","","","","","","","","","","",""
"","time_out","","html-keyboard-response","470","469251","0.0-1.0-638.0-0.0","0","0","46951","","null","","","null","70","","","","","","","","","","","","","","","",""
"","ITI","","html-keyboard-response","471","470253","0.0-1.0-639.0","0","0","46951","","null","","","null","70","","","","","","","","","","","","","","","NaN",""
"","S1","","html-keyboard-response","472","470506","0.0-1.0-641.0","0","0","46951","","null","","","null","71","","","","","","","","","","","","","","","",""
"","ISI","","html-keyboard-response","473","471510","0.0-1.0-642.0","0","0","46951","","null","","","null","71","NaN","","","","","","","","","","","","","","",""
"","S2","","html-keyboard-response","474","471764","0.0-1.0-643.0","0","0","46951","","null","","","null","71","","NaN","","","","","","","","","","","","","",""
"","response","","html-keyboard-response","475","472206","0.0-1.0-644.0-0.0","0","0","46951","","439","","","75","71","","","2","71","training","adjacent","FG","6","7","L.jpg","N.jpg","1","1","1","",""
"","feedback","","html-keyboard-response","476","473224","0.0-1.0-645.0-0.0","0","0","46951","","null","","","null","71","","","","","","","","","","","","","","","",""
"","ITI","","html-keyboard-response","477","474228","0.0-1.0-648.0","0","0","46951","","null","","","null","71","","","","","","","","","","","","","","","NaN",""
"","S1","","html-keyboard-response","478","474482","0.0-1.0-650.0","0","0","46951","","null","","","null","72","","","","","","","","","","","","","","","",""
"","ISI","","html-keyboard-response","479","475486","0.0-1.0-651.0","0","0","46951","","null","","","null","72","NaN","","","","","","","","","","","","","","",""
"","S2","","html-keyboard-response","480","475740","0.0-1.0-652.0","0","0","46951","","null","","","null","72","","NaN","","","","","","","","","","","","","",""
"","response","","html-keyboard-response","481","476205","0.0-1.0-653.0-0.0","0","0","46951","","462","","","75","72","","","2","72","training","adjacent","EF","5","6","P.jpg","L.jpg","1","1","1","",""
"","feedback","","html-keyboard-response","482","477208","0.0-1.0-654.0-0.0","0","0","46951","","null","","","null","72","","","","","","","","","","","","","","","",""
"","ITI","","html-keyboard-response","483","478212","0.0-1.0-657.0","0","0","46951","","null","","","null","72","","","","","","","","","","","","","","","NaN",""
"","S1","","html-keyboard-response","484","478465","0.0-1.0-659.0","0","0","46951","","null","","","null","73","","","","","","","","","","","","","","","",""
"","ISI","","html-keyboard-response","485","479469","0.0-1.0-660.0","0","0","46951","","null","","","null","73","NaN","","","","","","","","","","","","","","",""
"","S2","","html-keyboard-response","486","479723","0.0-1.0-661.0","0","0","46951","","null","","","null","73","","NaN","","","","","","","","","","","","","",""
"","response","","html-keyboard-response","487","479966","0.0-1.0-662.0-0.0","0","0","46951","","240","","","75","73","","","2","73","training","adjacent","ED","5","4","P.jpg","Q.jpg","1","0","0","",""
"","feedback","","html-keyboard-response","488","480982","0.0-1.0-663.0-0.0","0","0","46951","","null","","","null","73","","","","","","","","","","","","","","","",""
"","time_out","","html-keyboard-response","489","482985","0.0-1.0-665.0-0.0","0","0","46951","","null","","","null","73","","","","","","","","","","","","","","","",""
"","ITI","","html-keyboard-response","490","483989","0.0-1.0-666.0","0","0","46951","","null","","","null","73","","","","","","","","","","","","","","","NaN",""
"","S1","","html-keyboard-response","491","484243","0.0-1.0-668.0","0","0","46951","","null","","","null","74","","","","","","","","","","","","","","","",""
"","ISI","","html-keyboard-response","492","485245","0.0-1.0-669.0","0","0","46951","","null","","","null","74","NaN","","","","","","","","","","","","","","",""
"","S2","","html-keyboard-response","493","485499","0.0-1.0-670.0","0","0","46951","","null","","","null","74","","NaN","","","","","","","","","","","","","",""
"","response","","html-keyboard-response","494","485702","0.0-1.0-671.0-0.0","0","0","46951","","200","","","68","74","","","2","74","training","adjacent","GF","7","6","N.jpg","L.jpg","0","0","1","",""
"","feedback","","html-keyboard-response","495","486706","0.0-1.0-672.0-0.0","0","0","46951","","null","","","null","74","","","","","","","","","","","","","","","",""
"","ITI","","html-keyboard-response","496","487710","0.0-1.0-675.0","0","0","46951","","null","","","null","74","","","","","","","","","","","","","","","NaN",""
"","S1","","html-keyboard-response","497","487963","0.0-1.0-677.0","0","0","46951","","null","","","null","75","","","","","","","","","","","","","","","",""
"","ISI","","html-keyboard-response","498","488968","0.0-1.0-678.0","0","0","46951","","null","","","null","75","NaN","","","","","","","","","","","","","","",""
"","S2","","html-keyboard-response","499","489222","0.0-1.0-679.0","0","0","46951","","null","","","null","75","","NaN","","","","","","","","","","","","","",""
"","response","","html-keyboard-response","500","489420","0.0-1.0-680.0-0.0","0","0","46951","","196","","","75","75","","","2","75","training","adjacent","BA","2","1","R.jpg","M.jpg","1","0","0","",""
"","feedback","","html-keyboard-response","501","490425","0.0-1.0-681.0-0.0","0","0","46951","","null","","","null","75","","","","","","","","","","","","","","","",""
"","time_out","","html-keyboard-response","502","492430","0.0-1.0-683.0-0.0","0","0","46951","","null","","","null","75","","","","","","","","","","","","","","","",""
"","ITI","","html-keyboard-response","503","493434","0.0-1.0-684.0","0","0","46951","","null","","","null","75","","","","","","","","","","","","","","","NaN",""
"","S1","","html-keyboard-response","504","493688","0.0-1.0-686.0","0","0","46951","","null","","","null","76","","","","","","","","","","","","","","","",""
"","ISI","","html-keyboard-response","505","494692","0.0-1.0-687.0","0","0","46951","","null","","","null","76","NaN","","","","","","","","","","","","","","",""
"","S2","","html-keyboard-response","506","494946","0.0-1.0-688.0","0","0","46951","","null","","","null","76","","NaN","","","","","","","","","","","","","",""
"","response","","html-keyboard-response","507","495150","0.0-1.0-689.0-0.0","0","0","46951","","201","","","75","76","","","2","76","training","adjacent","DE","4","5","Q.jpg","P.jpg","1","1","1","",""
"","feedback","","html-keyboard-response","508","496154","0.0-1.0-690.0-0.0","0","0","46951","","null","","","null","76","","","","","","","","","","","","","","","",""
"","ITI","","html-keyboard-response","509","497158","0.0-1.0-693.0","0","0","46951","","null","","","null","76","","","","","","","","","","","","","","","NaN",""
"","S1","","html-keyboard-response","510","497410","0.0-1.0-695.0","0","0","46951","","null","","","null","77","","","","","","","","","","","","","","","",""
"","ISI","","html-keyboard-response","511","498412","0.0-1.0-696.0","0","0","46951","","null","","","null","77","NaN","","","","","","","","","","","","","","",""
"","S2","","html-keyboard-response","512","498681","0.0-1.0-697.0","0","0","46951","","null","","","null","77","","NaN","","","","","","","","","","","","","",""
"","response","","html-keyboard-response","513","499092","0.0-1.0-698.0-0.0","0","0","46951","","409","","","68","77","","","2","77","training","adjacent","CB","3","2","O.jpg","R.jpg","0","0","1","",""
"","feedback","","html-keyboard-response","514","500096","0.0-1.0-699.0-0.0","0","0","46951","","null","","","null","77","","","","","","","","","","","","","","","",""
"","ITI","","html-keyboard-response","515","501101","0.0-1.0-702.0","0","0","46951","","null","","","null","77","","","","","","","","","","","","","","","NaN",""
"","S1","","html-keyboard-response","516","501354","0.0-1.0-704.0","0","0","46951","","null","","","null","78","","","","","","","","","","","","","","","",""
"","ISI","","html-keyboard-response","517","502358","0.0-1.0-705.0","0","0","46951","","null","","","null","78","NaN","","","","","","","","","","","","","","",""
"","S2","","html-keyboard-response","518","502612","0.0-1.0-706.0","0","0","46951","","null","","","null","78","","NaN","","","","","","","","","","","","","",""
"","response","","html-keyboard-response","519","503014","0.0-1.0-707.0-0.0","0","0","46951","","399","","","75","78","","","2","78","training","adjacent","BC","2","3","R.jpg","O.jpg","1","1","1","",""
"","feedback","","html-keyboard-response","520","504019","0.0-1.0-708.0-0.0","0","0","46951","","null","","","null","78","","","","","","","","","","","","","","","",""
"","ITI","","html-keyboard-response","521","505022","0.0-1.0-711.0","0","0","46951","","null","","","null","78","","","","","","","","","","","","","","","NaN",""
"","S1","","html-keyboard-response","522","505275","0.0-1.0-713.0","0","0","46951","","null","","","null","79","","","","","","","","","","","","","","","",""
"","ISI","","html-keyboard-response","523","506279","0.0-1.0-714.0","0","0","46951","","null","","","null","79","NaN","","","","","","","","","","","","","","",""
"","S2","","html-keyboard-response","524","506532","0.0-1.0-715.0","0","0","46951","","null","","","null","79","","NaN","","","","","","","","","","","","","",""
"","response","","html-keyboard-response","525","506958","0.0-1.0-716.0-0.0","0","0","46951","","422","","","68","79","","","2","79","training","adjacent","DE","4","5","Q.jpg","P.jpg","0","1","0","",""
"","feedback","","html-keyboard-response","526","507962","0.0-1.0-717.0-0.0","0","0","46951","","null","","","null","79","","","","","","","","","","","","","","","",""
"","time_out","","html-keyboard-response","527","509964","0.0-1.0-719.0-0.0","0","0","46951","","null","","","null","79","","","","","","","","","","","","","","","",""
"","ITI","","html-keyboard-response","528","510969","0.0-1.0-720.0","0","0","46951","","null","","","null","79","","","","","","","","","","","","","","","NaN",""
"","S1","","html-keyboard-response","529","511222","0.0-1.0-722.0","0","0","46951","","null","","","null","80","","","","","","","","","","","","","","","",""
"","ISI","","html-keyboard-response","530","512225","0.0-1.0-723.0","0","0","46951","","null","","","null","80","NaN","","","","","","","","","","","","","","",""
"","S2","","html-keyboard-response","531","512480","0.0-1.0-724.0","0","0","46951","","null","","","null","80","","NaN","","","","","","","","","","","","","",""
"","response","","html-keyboard-response","532","512805","0.0-1.0-725.0-0.0","0","0","46951","","322","","","75","80","","","2","80","training","adjacent","DC","4","3","Q.jpg","O.jpg","1","0","0","",""
"","feedback","","html-keyboard-response","533","513811","0.0-1.0-726.0-0.0","0","0","46951","","null","","","null","80","","","","","","","","","","","","","","","",""
"","time_out","","html-keyboard-response","534","515815","0.0-1.0-728.0-0.0","0","0","46951","","null","","","null","80","","","","","","","","","","","","","","","",""
"","ITI","","html-keyboard-response","535","516819","0.0-1.0-729.0","0","0","46951","","null","","","null","80","","","","","","","","","","","","","","","NaN",""
"","S1","","html-keyboard-response","536","517073","0.0-1.0-731.0","0","0","46951","","null","","","null","81","","","","","","","","","","","","","","","",""
"","ISI","","html-keyboard-response","537","518076","0.0-1.0-732.0","0","0","46951","","null","","","null","81","NaN","","","","","","","","","","","","","","",""
"","S2","","html-keyboard-response","538","518330","0.0-1.0-733.0","0","0","46951","","null","","","null","81","","NaN","","","","","","","","","","","","","",""
"","response","","html-keyboard-response","539","518587","0.0-1.0-734.0-0.0","0","0","46951","","256","","","68","81","","","2","81","training","adjacent","BA","2","1","R.jpg","M.jpg","0","0","1","",""
"","feedback","","html-keyboard-response","540","519589","0.0-1.0-735.0-0.0","0","0","46951","","null","","","null","81","","","","","","","","","","","","","","","",""
"","ITI","","html-keyboard-response","541","520591","0.0-1.0-738.0","0","0","46951","","null","","","null","81","","","","","","","","","","","","","","","NaN",""
"","S1","","html-keyboard-response","542","520858","0.0-1.0-740.0","0","0","46951","","null","","","null","82","","","","","","","","","","","","","","","",""
"","ISI","","html-keyboard-response","543","521862","0.0-1.0-741.0","0","0","46951","","null","","","null","82","NaN","","","","","","","","","","","","","","",""
"","S2","","html-keyboard-response","544","522115","0.0-1.0-742.0","0","0","46951","","null","","","null","82","","NaN","","","","","","","","","","","","","",""
"","response","","html-keyboard-response","545","522643","0.0-1.0-743.0-0.0","0","0","46951","","527","","","75","82","","","2","82","training","adjacent","DC","4","3","Q.jpg","O.jpg","1","0","0","",""
"","feedback","","html-keyboard-response","546","523647","0.0-1.0-744.0-0.0","0","0","46951","","null","","","null","82","","","","","","","","","","","","","","","",""
"","time_out","","html-keyboard-response","547","525649","0.0-1.0-746.0-0.0","0","0","46951","","null","","","null","82","","","","","","","","","","","","","","","",""
"","ITI","","html-keyboard-response","548","526652","0.0-1.0-747.0","0","0","46951","","null","","","null","82","","","","","","","","","","","","","","","NaN",""
"","S1","","html-keyboard-response","549","526907","0.0-1.0-749.0","0","0","46951","","null","","","null","83","","","","","","","","","","","","","","","",""
"","ISI","","html-keyboard-response","550","527911","0.0-1.0-750.0","0","0","46951","","null","","","null","83","NaN","","","","","","","","","","","","","","",""
"","S2","","html-keyboard-response","551","528180","0.0-1.0-751.0","0","0","46951","","null","","","null","83","","NaN","","","","","","","","","","","","","",""
"","response","","html-keyboard-response","552","528437","0.0-1.0-752.0-0.0","0","0","46951","","254","","","68","83","","","2","83","training","adjacent","CB","3","2","O.jpg","R.jpg","0","0","1","",""
"","feedback","","html-keyboard-response","553","529442","0.0-1.0-753.0-0.0","0","0","46951","","null","","","null","83","","","","","","","","","","","","","","","",""
"","ITI","","html-keyboard-response","554","530445","0.0-1.0-756.0","0","0","46951","","null","","","null","83","","","","","","","","","","","","","","","NaN",""
"","S1","","html-keyboard-response","555","530699","0.0-1.0-758.0","0","0","46951","","null","","","null","84","","","","","","","","","","","","","","","",""
"","ISI","","html-keyboard-response","556","531701","0.0-1.0-759.0","0","0","46951","","null","","","null","84","NaN","","","","","","","","","","","","","","",""
"","S2","","html-keyboard-response","557","531954","0.0-1.0-760.0","0","0","46951","","null","","","null","84","","NaN","","","","","","","","","","","","","",""
"","response","","html-keyboard-response","558","532526","0.0-1.0-761.0-0.0","0","0","46951","","569","","","68","84","","","2","84","training","adjacent","AB","1","2","M.jpg","R.jpg","0","1","0","",""
"","feedback","","html-keyboard-response","559","533530","0.0-1.0-762.0-0.0","0","0","46951","","null","","","null","84","","","","","","","","","","","","","","","",""
"","time_out","","html-keyboard-response","560","535533","0.0-1.0-764.0-0.0","0","0","46951","","null","","","null","84","","","","","","","","","","","","","","","",""
"","ITI","","html-keyboard-response","561","536537","0.0-1.0-765.0","0","0","46951","","null","","","null","84","","","","","","","","","","","","","","","NaN",""
"","S1","","html-keyboard-response","562","536791","0.0-1.0-767.0","0","0","46951","","null","","","null","85","","","","","","","","","","","","","","","",""
"","ISI","","html-keyboard-response","563","537794","0.0-1.0-768.0","0","0","46951","","null","","","null","85","NaN","","","","","","","","","","","","","","",""
"","S2","","html-keyboard-response","564","538048","0.0-1.0-769.0","0","0","46951","","null","","","null","85","","NaN","","","","","","","","","","","","","",""
"","response","","html-keyboard-response","565","538262","0.0-1.0-770.0-0.0","0","0","46951","","211","","","75","85","","","2","85","training","adjacent","DC","4","3","Q.jpg","O.jpg","1","0","0","",""
"","feedback","","html-keyboard-response","566","539266","0.0-1.0-771.0-0.0","0","0","46951","","null","","","null","85","","","","","","","","","","","","","","","",""
"","time_out","","html-keyboard-response","567","541270","0.0-1.0-773.0-0.0","0","0","46951","","null","","","null","85","","","","","","","","","","","","","","","",""
"","ITI","","html-keyboard-response","568","542273","0.0-1.0-774.0","0","0","46951","","null","","","null","85","","","","","","","","","","","","","","","NaN",""
"","S1","","html-keyboard-response","569","542527","0.0-1.0-776.0","0","0","46951","","null","","","null","86","","","","","","","","","","","","","","","",""
"","ISI","","html-keyboard-response","570","543531","0.0-1.0-777.0","0","0","46951","","null","","","null","86","NaN","","","","","","","","","","","","","","",""
"","S2","","html-keyboard-response","571","543796","0.0-1.0-778.0","0","0","46951","","null","","","null","86","","NaN","","","","","","","","","","","","","",""
"","response","","html-keyboard-response","572","544028","0.0-1.0-779.0-0.0","0","0","46951","","231","","","75","86","","","2","86","training","adjacent","FE","6","5","L.jpg","P.jpg","1","0","0","",""
"","feedback","","html-keyboard-response","573","545031","0.0-1.0-780.0-0.0","0","0","46951","","null","","","null","86","","","","","","","","","","","","","","","",""
"","time_out","","html-keyboard-response","574","547033","0.0-1.0-782.0-0.0","0","0","46951","","null","","","null","86","","","","","","","","","","","","","","","",""
"","ITI","","html-keyboard-response","575","548037","0.0-1.0-783.0","0","0","46951","","null","","","null","86","","","","","","","","","","","","","","","NaN",""
"","S1","","html-keyboard-response","576","548292","0.0-1.0-785.0","0","0","46951","","null","","","null","87","","","","","","","","","","","","","","","",""
"","ISI","","html-keyboard-response","577","549295","0.0-1.0-786.0","0","0","46951","","null","","","null","87","NaN","","","","","","","","","","","","","","",""
"","S2","","html-keyboard-response","578","549549","0.0-1.0-787.0","0","0","46951","","null","","","null","87","","NaN","","","","","","","","","","","","","",""
"","response","","html-keyboard-response","579","550099","0.0-1.0-788.0-0.0","0","0","46951","","549","","","68","87","","","2","87","training","adjacent","BA","2","1","R.jpg","M.jpg","0","0","1","",""
"","feedback","","html-keyboard-response","580","551110","0.0-1.0-789.0-0.0","0","0","46951","","null","","","null","87","","","","","","","","","","","","","","","",""
"","ITI","","html-keyboard-response","581","552113","0.0-1.0-792.0","0","0","46951","","null","","","null","87","","","","","","","","","","","","","","","NaN",""
"","S1","","html-keyboard-response","582","552368","0.0-1.0-794.0","0","0","46951","","null","","","null","88","","","","","","","","","","","","","","","",""
"","ISI","","html-keyboard-response","583","553371","0.0-1.0-795.0","0","0","46951","","null","","","null","88","NaN","","","","","","","","","","","","","","",""
