"success","ttype","start_time","trial_type","trial_index","time_elapsed","internal_node_id","warning","missed_checkup","PID","view_history","rt","responses","repeat_instructions","key_press","index","keypress_isi","keypress_S2","block","trial_num","phase","group_type","pair_type","S1_stim","S2_stim","S1_img","S2_img","S1_chosen","S1_higher","accuracy","keypress_iti","total_bonus_tally"
"true","full_screen","d03082023hr1443","fullscreen","0","8295","0.0-0.0","0","0","92143","","","","","","","","","","","","","","","","","","","","","",""
"","instructions","","instructions","1","68192","0.0-1.0-0.0-0.0","0","0","92143","[{""page_index"":0,""viewing_time"":4455},{""page_index"":1,""viewing_time"":38543},{""page_index"":2,""viewing_time"":15805},{""page_index"":3,""viewing_time"":1090}]","59894","","","","","","","","","","","","","","","","","","","",""
"","comprehension_check","","survey-multi-choice","2","85748","0.0-1.0-0.0-1.0","0","0","92143","","17547","{""Q0"":""True"",""Q1"":""K"",""Q2"":""Once the second image appears and while the screen 'MAKE A CHOICE' is shown"",""Q3"":""Green mark"",""Q4"":""either D or K""}","0","","","","","","","","","","","","","","","","","",""
"","start_exp","","html-keyboard-response","3","88765","0.0-1.0-1.0","0","0","92143","","3013","","","32","","","","","","","","","","","","","","","","",""
"","S1","","html-keyboard-response","4","89024","0.0-1.0-2.0","0","0","92143","","null","","","null","0","","","","","","","","","","","","","","","",""
"","ISI","","html-keyboard-response","5","89178","0.0-1.0-3.0","0","0","92143","","null","","","null","0","NaN","","","","","","","","","","","","","","",""
"","S2","","html-keyboard-response","6","89440","0.0-1.0-4.0","0","0","92143","","null","","","null","0","","NaN","","","","","","","","","","","","","",""
"","response","","html-keyboard-response","7","90187","0.0-1.0-5.0-0.0","0","0","92143","","744","","","75","0","","","1","0","training","adjacent","GF","7","6","P.jpg","M.jpg","1","0","0","",""
"","feedback","","html-keyboard-response","8","91192","0.0-1.0-6.0-0.0","0","0","92143","","null","","","null","0","","","","","","","","","","","","","","","",""
"","time_out","","html-keyboard-response","9","93200","0.0-1.0-8.0-0.0","0","0","92143","","null","","","null","0","","","","","","","","","","","","","","","",""
"","ITI","","html-keyboard-response","10","94210","0.0-1.0-9.0","0","0","92143","","81","","","32","0","","","","","","","","","","","","","","","space",""
"","S1","","html-keyboard-response","11","94472","0.0-1.0-11.0","0","0","92143","","null","","","null","1","","","","","","","","","","","","","","","",""
"","ISI","","html-keyboard-response","12","94632","0.0-1.0-12.0","0","0","92143","","null","","","null","1","NaN","","","","","","","","","","","","","","",""
"","S2","","html-keyboard-response","13","94888","0.0-1.0-13.0","0","0","92143","","null","","","null","1","","NaN","","","","","","","","","","","","","",""
"","response","","html-keyboard-response","14","95483","0.0-1.0-14.0-0.0","0","0","92143","","592","","","68","1","","","1","1","training","adjacent","BC","2","3","L.jpg","O.jpg","0","1","0","",""
"","feedback","","html-keyboard-response","15","96488","0.0-1.0-15.0-0.0","0","0","92143","","null","","","null","1","","","","","","","","","","","","","","","",""
"","time_out","","html-keyboard-response","16","98496","0.0-1.0-17.0-0.0","0","0","92143","","null","","","null","1","","","","","","","","","","","","","","","",""
"","ITI","","html-keyboard-response","17","99504","0.0-1.0-18.0","0","0","92143","","null","","","null","1","","","","","","","","","","","","","","","NaN",""
"","S1","","html-keyboard-response","18","99759","0.0-1.0-20.0","0","0","92143","","null","","","null","2","","","","","","","","","","","","","","","",""
"","ISI","","html-keyboard-response","19","99919","0.0-1.0-21.0","0","0","92143","","null","","","null","2","NaN","","","","","","","","","","","","","","",""
"","S2","","html-keyboard-response","20","100003","0.0-1.0-22.0","0","0","92143","","80","","","75","2","","k","1","2","training","adjacent","ED","5","4","Q.jpg","R.jpg","1","0","0","",""
"","feedback","","html-keyboard-response","21","101007","0.0-1.0-24.0-0.0","0","0","92143","","null","","","null","2","","","","","","","","","","","","","","","",""
"","time_out","","html-keyboard-response","22","103015","0.0-1.0-26.0-0.0","0","0","92143","","null","","","null","2","","","","","","","","","","","","","","","",""
"","ITI","","html-keyboard-response","23","104024","0.0-1.0-27.0","0","0","92143","","null","","","null","2","","","","","","","","","","","","","","","NaN",""
"","S1","","html-keyboard-response","24","104279","0.0-1.0-29.0","0","0","92143","","null","","","null","3","","","","","","","","","","","","","","","",""
"","ISI","","html-keyboard-response","25","104439","0.0-1.0-30.0","0","0","92143","","null","","","null","3","NaN","","","","","","","","","","","","","","",""
"","S2","","html-keyboard-response","26","104695","0.0-1.0-31.0","0","0","92143","","null","","","null","3","","NaN","","","","","","","","","","","","","",""
"","response","","html-keyboard-response","27","105235","0.0-1.0-32.0-0.0","0","0","92143","","536","","","75","3","","","1","3","training","adjacent","DC","4","3","R.jpg","O.jpg","1","0","0","",""
"","feedback","","html-keyboard-response","28","106239","0.0-1.0-33.0-0.0","0","0","92143","","null","","","null","3","","","","","","","","","","","","","","","",""
"","time_out","","html-keyboard-response","29","108248","0.0-1.0-35.0-0.0","0","0","92143","","null","","","null","3","","","","","","","","","","","","","","","",""
"","ITI","","html-keyboard-response","30","109256","0.0-1.0-36.0","0","0","92143","","null","","","null","3","","","","","","","","","","","","","","","NaN",""
"","S1","","html-keyboard-response","31","109512","0.0-1.0-38.0","0","0","92143","","null","","","null","4","","","","","","","","","","","","","","","",""
"","ISI","","html-keyboard-response","32","109672","0.0-1.0-39.0","0","0","92143","","null","","","null","4","NaN","","","","","","","","","","","","","","",""
"","S2","","html-keyboard-response","33","109928","0.0-1.0-40.0","0","0","92143","","null","","","null","4","","NaN","","","","","","","","","","","","","",""
"","response","","html-keyboard-response","34","110483","0.0-1.0-41.0-0.0","0","0","92143","","552","","","75","4","","","1","4","training","adjacent","BA","2","1","L.jpg","N.jpg","1","0","0","",""
"","feedback","","html-keyboard-response","35","111488","0.0-1.0-42.0-0.0","0","0","92143","","null","","","null","4","","","","","","","","","","","","","","","",""
"","time_out","","html-keyboard-response","36","113495","0.0-1.0-44.0-0.0","0","0","92143","","null","","","null","4","","","","","","","","","","","","","","","",""
"","ITI","","html-keyboard-response","37","114504","0.0-1.0-45.0","0","0","92143","","null","","","null","4","","","","","","","","","","","","","","","NaN",""
"","S1","","html-keyboard-response","38","114761","0.0-1.0-47.0","0","0","92143","","null","","","null","5","","","","","","","","","","","","","","","",""
"","ISI","","html-keyboard-response","39","114921","0.0-1.0-48.0","0","0","92143","","null","","","null","5","NaN","","","","","","","","","","","","","","",""
"","S2","","html-keyboard-response","40","115176","0.0-1.0-49.0","0","0","92143","","null","","","null","5","","NaN","","","","","","","","","","","","","",""
"","response","","html-keyboard-response","41","115611","0.0-1.0-50.0-0.0","0","0","92143","","432","","","75","5","","","1","5","training","adjacent","EF","5","6","Q.jpg","M.jpg","1","1","1","",""
"","feedback","","html-keyboard-response","42","116616","0.0-1.0-51.0-0.0","0","0","92143","","null","","","null","5","","","","","","","","","","","","","","","",""
"","ITI","","html-keyboard-response","43","117624","0.0-1.0-54.0","0","0","92143","","null","","","null","5","","","","","","","","","","","","","","","NaN",""
"","S1","","html-keyboard-response","44","117880","0.0-1.0-56.0","0","0","92143","","null","","","null","6","","","","","","","","","","","","","","","",""
"","ISI","","html-keyboard-response","45","118040","0.0-1.0-57.0","0","0","92143","","null","","","null","6","NaN","","","","","","","","","","","","","","",""
"","S2","","html-keyboard-response","46","118296","0.0-1.0-58.0","0","0","92143","","null","","","null","6","","NaN","","","","","","","","","","","","","",""
"","response","","html-keyboard-response","47","118723","0.0-1.0-59.0-0.0","0","0","92143","","424","","","75","6","","","1","6","training","adjacent","FE","6","5","M.jpg","Q.jpg","1","0","0","",""
"","feedback","","html-keyboard-response","48","119728","0.0-1.0-60.0-0.0","0","0","92143","","null","","","null","6","","","","","","","","","","","","","","","",""
"","time_out","","html-keyboard-response","49","121736","0.0-1.0-62.0-0.0","0","0","92143","","null","","","null","6","","","","","","","","","","","","","","","",""
"","ITI","","html-keyboard-response","50","122744","0.0-1.0-63.0","0","0","92143","","null","","","null","6","","","","","","","","","","","","","","","NaN",""
"","S1","","html-keyboard-response","51","123000","0.0-1.0-65.0","0","0","92143","","null","","","null","7","","","","","","","","","","","","","","","",""
"","ISI","","html-keyboard-response","52","123160","0.0-1.0-66.0","0","0","92143","","null","","","null","7","NaN","","","","","","","","","","","","","","",""
"","S2","","html-keyboard-response","53","123416","0.0-1.0-67.0","0","0","92143","","null","","","null","7","","NaN","","","","","","","","","","","","","",""
"","response","","html-keyboard-response","54","123738","0.0-1.0-68.0-0.0","0","0","92143","","320","","","75","7","","","1","7","training","adjacent","BA","2","1","L.jpg","N.jpg","1","0","0","",""
"","feedback","","html-keyboard-response","55","124745","0.0-1.0-69.0-0.0","0","0","92143","","null","","","null","7","","","","","","","","","","","","","","","",""
"","time_out","","html-keyboard-response","56","126754","0.0-1.0-71.0-0.0","0","0","92143","","null","","","null","7","","","","","","","","","","","","","","","",""
"","ITI","","html-keyboard-response","57","127762","0.0-1.0-72.0","0","0","92143","","null","","","null","7","","","","","","","","","","","","","","","NaN",""
"","S1","","html-keyboard-response","58","128018","0.0-1.0-74.0","0","0","92143","","null","","","null","8","","","","","","","","","","","","","","","",""
"","ISI","","html-keyboard-response","59","128178","0.0-1.0-75.0","0","0","92143","","null","","","null","8","NaN","","","","","","","","","","","","","","",""
"","S2","","html-keyboard-response","60","128434","0.0-1.0-76.0","0","0","92143","","null","","","null","8","","NaN","","","","","","","","","","","","","",""
"","response","","html-keyboard-response","61","128788","0.0-1.0-77.0-0.0","0","0","92143","","352","","","75","8","","","1","8","training","adjacent","CB","3","2","O.jpg","L.jpg","1","0","0","",""
"","feedback","","html-keyboard-response","62","129794","0.0-1.0-78.0-0.0","0","0","92143","","null","","","null","8","","","","","","","","","","","","","","","",""
"","time_out","","html-keyboard-response","63","131802","0.0-1.0-80.0-0.0","0","0","92143","","null","","","null","8","","","","","","","","","","","","","","","",""
"","ITI","","html-keyboard-response","64","132811","0.0-1.0-81.0","0","0","92143","","null","","","null","8","","","","","","","","","","","","","","","NaN",""
"","S1","","html-keyboard-response","65","133066","0.0-1.0-83.0","0","0","92143","","null","","","null","9","","","","","","","","","","","","","","","",""
"","ISI","","html-keyboard-response","66","133227","0.0-1.0-84.0","0","0","92143","","null","","","null","9","NaN","","","","","","","","","","","","","","",""
"","S2","","html-keyboard-response","67","133481","0.0-1.0-85.0","0","0","92143","","null","","","null","9","","NaN","","","","","","","","","","","","","",""
"","response","","html-keyboard-response","68","133563","0.0-1.0-86.0-0.0","0","0","92143","","79","","","75","9","","","1","9","training","adjacent","AB","1","2","N.jpg","L.jpg","1","1","1","",""
"","feedback","","html-keyboard-response","69","134569","0.0-1.0-87.0-0.0","0","0","92143","","null","","","null","9","","","","","","","","","","","","","","","",""
"","ITI","","html-keyboard-response","70","135578","0.0-1.0-90.0","0","0","92143","","null","","","null","9","","","","","","","","","","","","","","","NaN",""
"","S1","","html-keyboard-response","71","135834","0.0-1.0-92.0","0","0","92143","","null","","","null","10","","","","","","","","","","","","","","","",""
"","ISI","","html-keyboard-response","72","135993","0.0-1.0-93.0","0","0","92143","","null","","","null","10","NaN","","","","","","","","","","","","","","",""
"","S2","","html-keyboard-response","73","136249","0.0-1.0-94.0","0","0","92143","","null","","","null","10","","NaN","","","","","","","","","","","","","",""
"","response","","html-keyboard-response","74","136605","0.0-1.0-95.0-0.0","0","0","92143","","352","","","68","10","","","1","10","training","adjacent","FG","6","7","M.jpg","P.jpg","0","1","0","",""
"","feedback","","html-keyboard-response","75","137610","0.0-1.0-96.0-0.0","0","0","92143","","null","","","null","10","","","","","","","","","","","","","","","",""
"","time_out","","html-keyboard-response","76","139617","0.0-1.0-98.0-0.0","0","0","92143","","null","","","null","10","","","","","","","","","","","","","","","",""
"","ITI","","html-keyboard-response","77","140626","0.0-1.0-99.0","0","0","92143","","null","","","null","10","","","","","","","","","","","","","","","NaN",""
"","S1","","html-keyboard-response","78","140882","0.0-1.0-101.0","0","0","92143","","null","","","null","11","","","","","","","","","","","","","","","",""
"","ISI","","html-keyboard-response","79","141042","0.0-1.0-102.0","0","0","92143","","null","","","null","11","NaN","","","","","","","","","","","","","","",""
"","S2","","html-keyboard-response","80","141297","0.0-1.0-103.0","0","0","92143","","null","","","null","11","","NaN","","","","","","","","","","","","","",""
"","response","","html-keyboard-response","81","141631","0.0-1.0-104.0-0.0","0","0","92143","","331","","","68","11","","","1","11","training","adjacent","FE","6","5","M.jpg","Q.jpg","0","0","1","",""
"","feedback","","html-keyboard-response","82","142643","0.0-1.0-105.0-0.0","0","0","92143","","null","","","null","11","","","","","","","","","","","","","","","",""
"","ITI","","html-keyboard-response","83","143649","0.0-1.0-108.0","0","0","92143","","null","","","null","11","","","","","","","","","","","","","","","NaN",""
"","S1","","html-keyboard-response","84","143906","0.0-1.0-110.0","0","0","92143","","null","","","null","12","","","","","","","","","","","","","","","",""
"","ISI","","html-keyboard-response","85","144066","0.0-1.0-111.0","0","0","92143","","null","","","null","12","NaN","","","","","","","","","","","","","","",""
"","S2","","html-keyboard-response","86","144321","0.0-1.0-112.0","0","0","92143","","null","","","null","12","","NaN","","","","","","","","","","","","","",""
"","response","","html-keyboard-response","87","144660","0.0-1.0-113.0-0.0","0","0","92143","","336","","","75","12","","","1","12","training","adjacent","CD","3","4","O.jpg","R.jpg","1","1","1","",""
"","feedback","","html-keyboard-response","88","145666","0.0-1.0-114.0-0.0","0","0","92143","","null","","","null","12","","","","","","","","","","","","","","","",""
"","ITI","","html-keyboard-response","89","146674","0.0-1.0-117.0","0","0","92143","","null","","","null","12","","","","","","","","","","","","","","","NaN",""
"","S1","","html-keyboard-response","90","146929","0.0-1.0-119.0","0","0","92143","","null","","","null","13","","","","","","","","","","","","","","","",""
"","ISI","","html-keyboard-response","91","147090","0.0-1.0-120.0","0","0","92143","","null","","","null","13","NaN","","","","","","","","","","","","","","",""
"","S2","","html-keyboard-response","92","147346","0.0-1.0-121.0","0","0","92143","","null","","","null","13","","NaN","","","","","","","","","","","","","",""
"","response","","html-keyboard-response","93","147683","0.0-1.0-122.0-0.0","0","0","92143","","336","","","75","13","","","1","13","training","adjacent","FE","6","5","M.jpg","Q.jpg","1","0","0","",""
"","feedback","","html-keyboard-response","94","148689","0.0-1.0-123.0-0.0","0","0","92143","","null","","","null","13","","","","","","","","","","","","","","","",""
"","time_out","","html-keyboard-response","95","150697","0.0-1.0-125.0-0.0","0","0","92143","","null","","","null","13","","","","","","","","","","","","","","","",""
"","ITI","","html-keyboard-response","96","151706","0.0-1.0-126.0","0","0","92143","","null","","","null","13","","","","","","","","","","","","","","","NaN",""
"","S1","","html-keyboard-response","97","151961","0.0-1.0-128.0","0","0","92143","","null","","","null","14","","","","","","","","","","","","","","","",""
"","ISI","","html-keyboard-response","98","152122","0.0-1.0-129.0","0","0","92143","","null","","","null","14","NaN","","","","","","","","","","","","","","",""
"","S2","","html-keyboard-response","99","152377","0.0-1.0-130.0","0","0","92143","","null","","","null","14","","NaN","","","","","","","","","","","","","",""
"","response","","html-keyboard-response","100","152675","0.0-1.0-131.0-0.0","0","0","92143","","296","","","68","14","","","1","14","training","adjacent","CD","3","4","O.jpg","R.jpg","0","1","0","",""
"","feedback","","html-keyboard-response","101","153681","0.0-1.0-132.0-0.0","0","0","92143","","null","","","null","14","","","","","","","","","","","","","","","",""
"","time_out","","html-keyboard-response","102","155689","0.0-1.0-134.0-0.0","0","0","92143","","null","","","null","14","","","","","","","","","","","","","","","",""
"","ITI","","html-keyboard-response","103","156698","0.0-1.0-135.0","0","0","92143","","null","","","null","14","","","","","","","","","","","","","","","NaN",""
"","S1","","html-keyboard-response","104","156954","0.0-1.0-137.0","0","0","92143","","null","","","null","15","","","","","","","","","","","","","","","",""
"","ISI","","html-keyboard-response","105","157116","0.0-1.0-138.0","0","0","92143","","null","","","null","15","NaN","","","","","","","","","","","","","","",""
"","S2","","html-keyboard-response","106","157371","0.0-1.0-139.0","0","0","92143","","null","","","null","15","","NaN","","","","","","","","","","","","","",""
"","response","","html-keyboard-response","107","157571","0.0-1.0-140.0-0.0","0","0","92143","","197","","","68","15","","","1","15","training","adjacent","BC","2","3","L.jpg","O.jpg","0","1","0","",""
"","feedback","","html-keyboard-response","108","158578","0.0-1.0-141.0-0.0","0","0","92143","","null","","","null","15","","","","","","","","","","","","","","","",""
"","time_out","","html-keyboard-response","109","160586","0.0-1.0-143.0-0.0","0","0","92143","","null","","","null","15","","","","","","","","","","","","","","","",""
"","ITI","","html-keyboard-response","110","161594","0.0-1.0-144.0","0","0","92143","","null","","","null","15","","","","","","","","","","","","","","","NaN",""
"","S1","","html-keyboard-response","111","161849","0.0-1.0-146.0","0","0","92143","","null","","","null","16","","","","","","","","","","","","","","","",""
"","ISI","","html-keyboard-response","112","162003","0.0-1.0-147.0","0","0","92143","","null","","","null","16","NaN","","","","","","","","","","","","","","",""
"","S2","","html-keyboard-response","113","162258","0.0-1.0-148.0","0","0","92143","","null","","","null","16","","NaN","","","","","","","","","","","","","",""
"","response","","html-keyboard-response","114","162667","0.0-1.0-149.0-0.0","0","0","92143","","407","","","68","16","","","1","16","training","adjacent","GF","7","6","P.jpg","M.jpg","0","0","1","",""
"","feedback","","html-keyboard-response","115","163674","0.0-1.0-150.0-0.0","0","0","92143","","null","","","null","16","","","","","","","","","","","","","","","",""
"","ITI","","html-keyboard-response","116","164683","0.0-1.0-153.0","0","0","92143","","null","","","null","16","","","","","","","","","","","","","","","NaN",""
"","S1","","html-keyboard-response","117","164938","0.0-1.0-155.0","0","0","92143","","null","","","null","17","","","","","","","","","","","","","","","",""
"","ISI","","html-keyboard-response","118","165098","0.0-1.0-156.0","0","0","92143","","null","","","null","17","NaN","","","","","","","","","","","","","","",""
"","S2","","html-keyboard-response","119","165354","0.0-1.0-157.0","0","0","92143","","null","","","null","17","","NaN","","","","","","","","","","","","","",""
"","response","","html-keyboard-response","120","165466","0.0-1.0-158.0-0.0","0","0","92143","","110","","","75","17","","","1","17","training","adjacent","FG","6","7","M.jpg","P.jpg","1","1","1","",""
"","feedback","","html-keyboard-response","121","166474","0.0-1.0-159.0-0.0","0","0","92143","","null","","","null","17","","","","","","","","","","","","","","","",""
"","ITI","","html-keyboard-response","122","167483","0.0-1.0-162.0","0","0","92143","","null","","","null","17","","","","","","","","","","","","","","","NaN",""
"","S1","","html-keyboard-response","123","167738","0.0-1.0-164.0","0","0","92143","","null","","","null","18","","","","","","","","","","","","","","","",""
"","ISI","","html-keyboard-response","124","167898","0.0-1.0-165.0","0","0","92143","","null","","","null","18","NaN","","","","","","","","","","","","","","",""
"","S2","","html-keyboard-response","125","168154","0.0-1.0-166.0","0","0","92143","","null","","","null","18","","NaN","","","","","","","","","","","","","",""
"","response","","html-keyboard-response","126","168498","0.0-1.0-167.0-0.0","0","0","92143","","342","","","68","18","","","1","18","training","adjacent","CD","3","4","O.jpg","R.jpg","0","1","0","",""
"","feedback","","html-keyboard-response","127","169505","0.0-1.0-168.0-0.0","0","0","92143","","null","","","null","18","","","","","","","","","","","","","","","",""
"","time_out","","html-keyboard-response","128","171513","0.0-1.0-170.0-0.0","0","0","92143","","null","","","null","18","","","","","","","","","","","","","","","",""
"","ITI","","html-keyboard-response","129","172522","0.0-1.0-171.0","0","0","92143","","null","","","null","18","","","","","","","","","","","","","","","NaN",""
"","S1","","html-keyboard-response","130","172777","0.0-1.0-173.0","0","0","92143","","null","","","null","19","","","","","","","","","","","","","","","",""
"","ISI","","html-keyboard-response","131","172937","0.0-1.0-174.0","0","0","92143","","null","","","null","19","NaN","","","","","","","","","","","","","","",""
"","S2","","html-keyboard-response","132","173193","0.0-1.0-175.0","0","0","92143","","null","","","null","19","","NaN","","","","","","","","","","","","","",""
"","response","","html-keyboard-response","133","173459","0.0-1.0-176.0-0.0","0","0","92143","","264","","","68","19","","","1","19","training","adjacent","GF","7","6","P.jpg","M.jpg","0","0","1","",""
"","feedback","","html-keyboard-response","134","174465","0.0-1.0-177.0-0.0","0","0","92143","","null","","","null","19","","","","","","","","","","","","","","","",""
"","ITI","","html-keyboard-response","135","175473","0.0-1.0-180.0","0","0","92143","","null","","","null","19","","","","","","","","","","","","","","","NaN",""
"","S1","","html-keyboard-response","136","175729","0.0-1.0-182.0","0","0","92143","","null","","","null","20","","","","","","","","","","","","","","","",""
"","ISI","","html-keyboard-response","137","175881","0.0-1.0-183.0","0","0","92143","","null","","","null","20","NaN","","","","","","","","","","","","","","",""
"","S2","","html-keyboard-response","138","176137","0.0-1.0-184.0","0","0","92143","","null","","","null","20","","NaN","","","","","","","","","","","","","",""
"","response","","html-keyboard-response","139","176483","0.0-1.0-185.0-0.0","0","0","92143","","343","","","75","20","","","1","20","training","adjacent","AB","1","2","N.jpg","L.jpg","1","1","1","",""
"","feedback","","html-keyboard-response","140","177489","0.0-1.0-186.0-0.0","0","0","92143","","null","","","null","20","","","","","","","","","","","","","","","",""
"","ITI","","html-keyboard-response","141","178497","0.0-1.0-189.0","0","0","92143","","null","","","null","20","","","","","","","","","","","","","","","NaN",""
"","S1","","html-keyboard-response","142","178753","0.0-1.0-191.0","0","0","92143","","null","","","null","21","","","","","","","","","","","","","","","",""
"","ISI","","html-keyboard-response","143","178914","0.0-1.0-192.0","0","0","92143","","null","","","null","21","NaN","","","","","","","","","","","","","","",""
"","S2","","html-keyboard-response","144","179169","0.0-1.0-193.0","0","0","92143","","null","","","null","21","","NaN","","","","","","","","","","","","","",""
"","response","","html-keyboard-response","145","179474","0.0-1.0-194.0-0.0","0","0","92143","","302","","","68","21","","","1","21","training","adjacent","BA","2","1","L.jpg","N.jpg","0","0","1","",""
"","feedback","","html-keyboard-response","146","180482","0.0-1.0-195.0-0.0","0","0","92143","","null","","","null","21","","","","","","","","","","","","","","","",""
"","ITI","","html-keyboard-response","147","181490","0.0-1.0-198.0","0","0","92143","","null","","","null","21","","","","","","","","","","","","","","","NaN",""
"","S1","","html-keyboard-response","148","181745","0.0-1.0-200.0","0","0","92143","","null","","","null","22","","","","","","","","","","","","","","","",""
"","ISI","","html-keyboard-response","149","181898","0.0-1.0-201.0","0","0","92143","","null","","","null","22","NaN","","","","","","","","","","","","","","",""
"","S2","","html-keyboard-response","150","182154","0.0-1.0-202.0","0","0","92143","","null","","","null","22","","NaN","","","","","","","","","","","","","",""
"","response","","html-keyboard-response","151","182482","0.0-1.0-203.0-0.0","0","0","92143","","326","","","75","22","","","1","22","training","adjacent","CB","3","2","O.jpg","L.jpg","1","0","0","",""
"","feedback","","html-keyboard-response","152","183490","0.0-1.0-204.0-0.0","0","0","92143","","null","","","null","22","","","","","","","","","","","","","","","",""
"","time_out","","html-keyboard-response","153","185499","0.0-1.0-206.0-0.0","0","0","92143","","null","","","null","22","","","","","","","","","","","","","","","",""
"","ITI","","html-keyboard-response","154","186508","0.0-1.0-207.0","0","0","92143","","null","","","null","22","","","","","","","","","","","","","","","NaN",""
"","S1","","html-keyboard-response","155","186766","0.0-1.0-209.0","0","0","92143","","null","","","null","23","","","","","","","","","","","","","","","",""
"","ISI","","html-keyboard-response","156","186924","0.0-1.0-210.0","0","0","92143","","null","","","null","23","NaN","","","","","","","","","","","","","","",""
"","S2","","html-keyboard-response","157","187179","0.0-1.0-211.0","0","0","92143","","null","","","null","23","","NaN","","","","","","","","","","","","","",""
"","response","","html-keyboard-response","158","187259","0.0-1.0-212.0-0.0","0","0","92143","","78","","","75","23","","","1","23","training","adjacent","DC","4","3","R.jpg","O.jpg","1","0","0","",""
"","feedback","","html-keyboard-response","159","188269","0.0-1.0-213.0-0.0","0","0","92143","","null","","","null","23","","","","","","","","","","","","","","","",""
"","time_out","","html-keyboard-response","160","190275","0.0-1.0-215.0-0.0","0","0","92143","","null","","","null","23","","","","","","","","","","","","","","","",""
"","ITI","","html-keyboard-response","161","191284","0.0-1.0-216.0","0","0","92143","","null","","","null","23","","","","","","","","","","","","","","","NaN",""
"","S1","","html-keyboard-response","162","191539","0.0-1.0-218.0","0","0","92143","","null","","","null","24","","","","","","","","","","","","","","","",""
"","ISI","","html-keyboard-response","163","191699","0.0-1.0-219.0","0","0","92143","","null","","","null","24","NaN","","","","","","","","","","","","","","",""
"","S2","","html-keyboard-response","164","191955","0.0-1.0-220.0","0","0","92143","","null","","","null","24","","NaN","","","","","","","","","","","","","",""
"","response","","html-keyboard-response","165","192283","0.0-1.0-221.0-0.0","0","0","92143","","326","","","75","24","","","1","24","training","adjacent","ED","5","4","Q.jpg","R.jpg","1","0","0","",""
"","feedback","","html-keyboard-response","166","193291","0.0-1.0-222.0-0.0","0","0","92143","","null","","","null","24","","","","","","","","","","","","","","","",""
"","time_out","","html-keyboard-response","167","195299","0.0-1.0-224.0-0.0","0","0","92143","","null","","","null","24","","","","","","","","","","","","","","","",""
"","ITI","","html-keyboard-response","168","196308","0.0-1.0-225.0","0","0","92143","","null","","","null","24","","","","","","","","","","","","","","","NaN",""
"","S1","","html-keyboard-response","169","196563","0.0-1.0-227.0","0","0","92143","","null","","","null","25","","","","","","","","","","","","","","","",""
"","ISI","","html-keyboard-response","170","196724","0.0-1.0-228.0","0","0","92143","","null","","","null","25","NaN","","","","","","","","","","","","","","",""
"","S2","","html-keyboard-response","171","196980","0.0-1.0-229.0","0","0","92143","","null","","","null","25","","NaN","","","","","","","","","","","","","",""
"","response","","html-keyboard-response","172","197124","0.0-1.0-230.0-0.0","0","0","92143","","141","","","75","25","","","1","25","training","adjacent","ED","5","4","Q.jpg","R.jpg","1","0","0","",""
"","feedback","","html-keyboard-response","173","198131","0.0-1.0-231.0-0.0","0","0","92143","","null","","","null","25","","","","","","","","","","","","","","","",""
"","time_out","","html-keyboard-response","174","200140","0.0-1.0-233.0-0.0","0","0","92143","","null","","","null","25","","","","","","","","","","","","","","","",""
"","ITI","","html-keyboard-response","175","201148","0.0-1.0-234.0","0","0","92143","","null","","","null","25","","","","","","","","","","","","","","","NaN",""
"","S1","","html-keyboard-response","176","201404","0.0-1.0-236.0","0","0","92143","","null","","","null","26","","","","","","","","","","","","","","","",""
"","ISI","","html-keyboard-response","177","201563","0.0-1.0-237.0","0","0","92143","","null","","","null","26","NaN","","","","","","","","","","","","","","",""
"","S2","","html-keyboard-response","178","201819","0.0-1.0-238.0","0","0","92143","","null","","","null","26","","NaN","","","","","","","","","","","","","",""
"","response","","html-keyboard-response","179","202211","0.0-1.0-239.0-0.0","0","0","92143","","390","","","68","26","","","1","26","training","adjacent","EF","5","6","Q.jpg","M.jpg","0","1","0","",""
"","feedback","","html-keyboard-response","180","203220","0.0-1.0-240.0-0.0","0","0","92143","","null","","","null","26","","","","","","","","","","","","","","","",""
"","time_out","","html-keyboard-response","181","205227","0.0-1.0-242.0-0.0","0","0","92143","","null","","","null","26","","","","","","","","","","","","","","","",""
"","ITI","","html-keyboard-response","182","206235","0.0-1.0-243.0","0","0","92143","","null","","","null","26","","","","","","","","","","","","","","","NaN",""
"","S1","","html-keyboard-response","183","206491","0.0-1.0-245.0","0","0","92143","","null","","","null","27","","","","","","","","","","","","","","","",""
"","ISI","","html-keyboard-response","184","206651","0.0-1.0-246.0","0","0","92143","","null","","","null","27","NaN","","","","","","","","","","","","","","",""
"","S2","","html-keyboard-response","185","206907","0.0-1.0-247.0","0","0","92143","","null","","","null","27","","NaN","","","","","","","","","","","","","",""
"","response","","html-keyboard-response","186","206970","0.0-1.0-248.0-0.0","0","0","92143","","61","","","75","27","","","1","27","training","adjacent","AB","1","2","N.jpg","L.jpg","1","1","1","",""
"","feedback","","html-keyboard-response","187","207979","0.0-1.0-249.0-0.0","0","0","92143","","null","","","null","27","","","","","","","","","","","","","","","",""
"","ITI","","html-keyboard-response","188","208987","0.0-1.0-252.0","0","0","92143","","null","","","null","27","","","","","","","","","","","","","","","NaN",""
"","S1","","html-keyboard-response","189","209243","0.0-1.0-254.0","0","0","92143","","null","","","null","28","","","","","","","","","","","","","","","",""
"","ISI","","html-keyboard-response","190","209395","0.0-1.0-255.0","0","0","92143","","null","","","null","28","NaN","","","","","","","","","","","","","","",""
"","S2","","html-keyboard-response","191","209651","0.0-1.0-256.0","0","0","92143","","null","","","null","28","","NaN","","","","","","","","","","","","","",""
"","response","","html-keyboard-response","192","210026","0.0-1.0-257.0-0.0","0","0","92143","","373","","","75","28","","","1","28","training","adjacent","FG","6","7","M.jpg","P.jpg","1","1","1","",""
"","feedback","","html-keyboard-response","193","211035","0.0-1.0-258.0-0.0","0","0","92143","","null","","","null","28","","","","","","","","","","","","","","","",""
"","ITI","","html-keyboard-response","194","212043","0.0-1.0-261.0","0","0","92143","","null","","","null","28","","","","","","","","","","","","","","","NaN",""
"","S1","","html-keyboard-response","195","212299","0.0-1.0-263.0","0","0","92143","","null","","","null","29","","","","","","","","","","","","","","","",""
"","ISI","","html-keyboard-response","196","212459","0.0-1.0-264.0","0","0","92143","","null","","","null","29","NaN","","","","","","","","","","","","","","",""
"","S2","","html-keyboard-response","197","212715","0.0-1.0-265.0","0","0","92143","","null","","","null","29","","NaN","","","","","","","","","","","","","",""
"","response","","html-keyboard-response","198","213083","0.0-1.0-266.0-0.0","0","0","92143","","366","","","68","29","","","1","29","training","adjacent","DC","4","3","R.jpg","O.jpg","0","0","1","",""
"","feedback","","html-keyboard-response","199","214091","0.0-1.0-267.0-0.0","0","0","92143","","null","","","null","29","","","","","","","","","","","","","","","",""
"","ITI","","html-keyboard-response","200","215099","0.0-1.0-270.0","0","0","92143","","null","","","null","29","","","","","","","","","","","","","","","NaN",""
"","S1","","html-keyboard-response","201","215355","0.0-1.0-272.0","0","0","92143","","null","","","null","30","","","","","","","","","","","","","","","",""
"","ISI","","html-keyboard-response","202","215507","0.0-1.0-273.0","0","0","92143","","null","","","null","30","NaN","","","","","","","","","","","","","","",""
"","S2","","html-keyboard-response","203","215763","0.0-1.0-274.0","0","0","92143","","null","","","null","30","","NaN","","","","","","","","","","","","","",""
"","response","","html-keyboard-response","204","216114","0.0-1.0-275.0-0.0","0","0","92143","","349","","","68","30","","","1","30","training","adjacent","ED","5","4","Q.jpg","R.jpg","0","0","1","",""
"","feedback","","html-keyboard-response","205","217124","0.0-1.0-276.0-0.0","0","0","92143","","null","","","null","30","","","","","","","","","","","","","","","",""
"","ITI","","html-keyboard-response","206","218131","0.0-1.0-279.0","0","0","92143","","null","","","null","30","","","","","","","","","","","","","","","NaN",""
"","S1","","html-keyboard-response","207","218388","0.0-1.0-281.0","0","0","92143","","null","","","null","31","","","","","","","","","","","","","","","",""
"","ISI","","html-keyboard-response","208","218547","0.0-1.0-282.0","0","0","92143","","null","","","null","31","NaN","","","","","","","","","","","","","","",""
"","S2","","html-keyboard-response","209","218803","0.0-1.0-283.0","0","0","92143","","null","","","null","31","","NaN","","","","","","","","","","","","","",""
"","response","","html-keyboard-response","210","219106","0.0-1.0-284.0-0.0","0","0","92143","","300","","","75","31","","","1","31","training","adjacent","BA","2","1","L.jpg","N.jpg","1","0","0","",""
"","feedback","","html-keyboard-response","211","220115","0.0-1.0-285.0-0.0","0","0","92143","","null","","","null","31","","","","","","","","","","","","","","","",""
"","time_out","","html-keyboard-response","212","222123","0.0-1.0-287.0-0.0","0","0","92143","","null","","","null","31","","","","","","","","","","","","","","","",""
"","ITI","","html-keyboard-response","213","223132","0.0-1.0-288.0","0","0","92143","","null","","","null","31","","","","","","","","","","","","","","","NaN",""
"","S1","","html-keyboard-response","214","223388","0.0-1.0-290.0","0","0","92143","","null","","","null","32","","","","","","","","","","","","","","","",""
"","ISI","","html-keyboard-response","215","223548","0.0-1.0-291.0","0","0","92143","","null","","","null","32","NaN","","","","","","","","","","","","","","",""
"","S2","","html-keyboard-response","216","223803","0.0-1.0-292.0","0","0","92143","","null","","","null","32","","NaN","","","","","","","","","","","","","",""
"","response","","html-keyboard-response","217","224106","0.0-1.0-293.0-0.0","0","0","92143","","301","","","68","32","","","1","32","training","adjacent","EF","5","6","Q.jpg","M.jpg","0","1","0","",""
"","feedback","","html-keyboard-response","218","225115","0.0-1.0-294.0-0.0","0","0","92143","","null","","","null","32","","","","","","","","","","","","","","","",""
"","time_out","","html-keyboard-response","219","227123","0.0-1.0-296.0-0.0","0","0","92143","","null","","","null","32","","","","","","","","","","","","","","","",""
"","ITI","","html-keyboard-response","220","228131","0.0-1.0-297.0","0","0","92143","","null","","","null","32","","","","","","","","","","","","","","","NaN",""
"","S1","","html-keyboard-response","221","228387","0.0-1.0-299.0","0","0","92143","","null","","","null","33","","","","","","","","","","","","","","","",""
"","ISI","","html-keyboard-response","222","228547","0.0-1.0-300.0","0","0","92143","","null","","","null","33","NaN","","","","","","","","","","","","","","",""
"","S2","","html-keyboard-response","223","228803","0.0-1.0-301.0","0","0","92143","","null","","","null","33","","NaN","","","","","","","","","","","","","",""
"","response","","html-keyboard-response","224","229065","0.0-1.0-302.0-0.0","0","0","92143","","260","","","68","33","","","1","33","training","adjacent","AB","1","2","N.jpg","L.jpg","0","1","0","",""
"","feedback","","html-keyboard-response","225","230075","0.0-1.0-303.0-0.0","0","0","92143","","null","","","null","33","","","","","","","","","","","","","","","",""
"","time_out","","html-keyboard-response","226","232084","0.0-1.0-305.0-0.0","0","0","92143","","null","","","null","33","","","","","","","","","","","","","","","",""
"","ITI","","html-keyboard-response","227","233092","0.0-1.0-306.0","0","0","92143","","null","","","null","33","","","","","","","","","","","","","","","NaN",""
"","S1","","html-keyboard-response","228","233348","0.0-1.0-308.0","0","0","92143","","null","","","null","34","","","","","","","","","","","","","","","",""
"","ISI","","html-keyboard-response","229","233508","0.0-1.0-309.0","0","0","92143","","null","","","null","34","NaN","","","","","","","","","","","","","","",""
"","S2","","html-keyboard-response","230","233764","0.0-1.0-310.0","0","0","92143","","null","","","null","34","","NaN","","","","","","","","","","","","","",""
"","response","","html-keyboard-response","231","234066","0.0-1.0-311.0-0.0","0","0","92143","","299","","","75","34","","","1","34","training","adjacent","EF","5","6","Q.jpg","M.jpg","1","1","1","",""
"","feedback","","html-keyboard-response","232","235076","0.0-1.0-312.0-0.0","0","0","92143","","null","","","null","34","","","","","","","","","","","","","","","",""
"","ITI","","html-keyboard-response","233","236084","0.0-1.0-315.0","0","0","92143","","null","","","null","34","","","","","","","","","","","","","","","NaN",""
"","S1","","html-keyboard-response","234","236340","0.0-1.0-317.0","0","0","92143","","null","","","null","35","","","","","","","","","","","","","","","",""
"","ISI","","html-keyboard-response","235","236500","0.0-1.0-318.0","0","0","92143","","null","","","null","35","NaN","","","","","","","","","","","","","","",""
"","S2","","html-keyboard-response","236","236756","0.0-1.0-319.0","0","0","92143","","null","","","null","35","","NaN","","","","","","","","","","","","","",""
"","response","","html-keyboard-response","237","237131","0.0-1.0-320.0-0.0","0","0","92143","","372","","","75","35","","","1","35","training","adjacent","DC","4","3","R.jpg","O.jpg","1","0","0","",""
"","feedback","","html-keyboard-response","238","238139","0.0-1.0-321.0-0.0","0","0","92143","","null","","","null","35","","","","","","","","","","","","","","","",""
"","time_out","","html-keyboard-response","239","240147","0.0-1.0-323.0-0.0","0","0","92143","","null","","","null","35","","","","","","","","","","","","","","","",""
"","ITI","","html-keyboard-response","240","241155","0.0-1.0-324.0","0","0","92143","","null","","","null","35","","","","","","","","","","","","","","","NaN",""
"","S1","","html-keyboard-response","241","241411","0.0-1.0-326.0","0","0","92143","","null","","","null","36","","","","","","","","","","","","","","","",""
"","ISI","","html-keyboard-response","242","241571","0.0-1.0-327.0","0","0","92143","","null","","","null","36","NaN","","","","","","","","","","","","","","",""
"","S2","","html-keyboard-response","243","241827","0.0-1.0-328.0","0","0","92143","","null","","","null","36","","NaN","","","","","","","","","","","","","",""
"","response","","html-keyboard-response","244","242178","0.0-1.0-329.0-0.0","0","0","92143","","348","","","68","36","","","1","36","training","adjacent","GF","7","6","P.jpg","M.jpg","0","0","1","",""
"","feedback","","html-keyboard-response","245","243187","0.0-1.0-330.0-0.0","0","0","92143","","null","","","null","36","","","","","","","","","","","","","","","",""
"","ITI","","html-keyboard-response","246","244195","0.0-1.0-333.0","0","0","92143","","null","","","null","36","","","","","","","","","","","","","","","NaN",""
"","S1","","html-keyboard-response","247","244451","0.0-1.0-335.0","0","0","92143","","null","","","null","37","","","","","","","","","","","","","","","",""
"","ISI","","html-keyboard-response","248","244611","0.0-1.0-336.0","0","0","92143","","null","","","null","37","NaN","","","","","","","","","","","","","","",""
"","S2","","html-keyboard-response","249","244867","0.0-1.0-337.0","0","0","92143","","null","","","null","37","","NaN","","","","","","","","","","","","","",""
"","response","","html-keyboard-response","250","245378","0.0-1.0-338.0-0.0","0","0","92143","","508","","","68","37","","","1","37","training","adjacent","DE","4","5","R.jpg","Q.jpg","0","1","0","",""
"","feedback","","html-keyboard-response","251","246388","0.0-1.0-339.0-0.0","0","0","92143","","null","","","null","37","","","","","","","","","","","","","","","",""
"","time_out","","html-keyboard-response","252","248396","0.0-1.0-341.0-0.0","0","0","92143","","null","","","null","37","","","","","","","","","","","","","","","",""
"","ITI","","html-keyboard-response","253","249405","0.0-1.0-342.0","0","0","92143","","null","","","null","37","","","","","","","","","","","","","","","NaN",""
"","S1","","html-keyboard-response","254","249660","0.0-1.0-344.0","0","0","92143","","null","","","null","38","","","","","","","","","","","","","","","",""
"","ISI","","html-keyboard-response","255","249821","0.0-1.0-345.0","0","0","92143","","null","","","null","38","NaN","","","","","","","","","","","","","","",""
"","S2","","html-keyboard-response","256","250077","0.0-1.0-346.0","0","0","92143","","null","","","null","38","","NaN","","","","","","","","","","","","","",""
"","response","","html-keyboard-response","257","250380","0.0-1.0-347.0-0.0","0","0","92143","","300","","","75","38","","","1","38","training","adjacent","BC","2","3","L.jpg","O.jpg","1","1","1","",""
"","feedback","","html-keyboard-response","258","251389","0.0-1.0-348.0-0.0","0","0","92143","","null","","","null","38","","","","","","","","","","","","","","","",""
"","ITI","","html-keyboard-response","259","252397","0.0-1.0-351.0","0","0","92143","","null","","","null","38","","","","","","","","","","","","","","","NaN",""
"","S1","","html-keyboard-response","260","252653","0.0-1.0-353.0","0","0","92143","","null","","","null","39","","","","","","","","","","","","","","","",""
"","ISI","","html-keyboard-response","261","252813","0.0-1.0-354.0","0","0","92143","","null","","","null","39","NaN","","","","","","","","","","","","","","",""
"","S2","","html-keyboard-response","262","253069","0.0-1.0-355.0","0","0","92143","","null","","","null","39","","NaN","","","","","","","","","","","","","",""
"","response","","html-keyboard-response","263","253411","0.0-1.0-356.0-0.0","0","0","92143","","339","","","75","39","","","1","39","training","adjacent","FG","6","7","M.jpg","P.jpg","1","1","1","",""
"","feedback","","html-keyboard-response","264","254421","0.0-1.0-357.0-0.0","0","0","92143","","null","","","null","39","","","","","","","","","","","","","","","",""
"","ITI","","html-keyboard-response","265","255429","0.0-1.0-360.0","0","0","92143","","null","","","null","39","","","","","","","","","","","","","","","NaN",""
"","S1","","html-keyboard-response","266","255685","0.0-1.0-362.0","0","0","92143","","null","","","null","40","","","","","","","","","","","","","","","",""
"","ISI","","html-keyboard-response","267","255845","0.0-1.0-363.0","0","0","92143","","null","","","null","40","NaN","","","","","","","","","","","","","","",""
"","S2","","html-keyboard-response","268","256101","0.0-1.0-364.0","0","0","92143","","null","","","null","40","","NaN","","","","","","","","","","","","","",""
"","response","","html-keyboard-response","269","256491","0.0-1.0-365.0-0.0","0","0","92143","","387","","","68","40","","","1","40","training","adjacent","FE","6","5","M.jpg","Q.jpg","0","0","1","",""
"","feedback","","html-keyboard-response","270","257501","0.0-1.0-366.0-0.0","0","0","92143","","null","","","null","40","","","","","","","","","","","","","","","",""
"","ITI","","html-keyboard-response","271","258509","0.0-1.0-369.0","0","0","92143","","null","","","null","40","","","","","","","","","","","","","","","NaN",""
"","S1","","html-keyboard-response","272","258765","0.0-1.0-371.0","0","0","92143","","null","","","null","41","","","","","","","","","","","","","","","",""
"","ISI","","html-keyboard-response","273","258925","0.0-1.0-372.0","0","0","92143","","null","","","null","41","NaN","","","","","","","","","","","","","","",""
"","S2","","html-keyboard-response","274","259181","0.0-1.0-373.0","0","0","92143","","null","","","null","41","","NaN","","","","","","","","","","","","","",""
"","response","","html-keyboard-response","275","259538","0.0-1.0-374.0-0.0","0","0","92143","","355","","","68","41","","","1","41","training","adjacent","DE","4","5","R.jpg","Q.jpg","0","1","0","",""
"","feedback","","html-keyboard-response","276","260549","0.0-1.0-375.0-0.0","0","0","92143","","null","","","null","41","","","","","","","","","","","","","","","",""
"","time_out","","html-keyboard-response","277","262557","0.0-1.0-377.0-0.0","0","0","92143","","null","","","null","41","","","","","","","","","","","","","","","",""
"","ITI","","html-keyboard-response","278","263565","0.0-1.0-378.0","0","0","92143","","null","","","null","41","","","","","","","","","","","","","","","NaN",""
"","S1","","html-keyboard-response","279","263821","0.0-1.0-380.0","0","0","92143","","null","","","null","42","","","","","","","","","","","","","","","",""
"","ISI","","html-keyboard-response","280","263981","0.0-1.0-381.0","0","0","92143","","null","","","null","42","NaN","","","","","","","","","","","","","","",""
"","S2","","html-keyboard-response","281","264237","0.0-1.0-382.0","0","0","92143","","null","","","null","42","","NaN","","","","","","","","","","","","","",""
"","response","","html-keyboard-response","282","264579","0.0-1.0-383.0-0.0","0","0","92143","","339","","","75","42","","","1","42","training","adjacent","BC","2","3","L.jpg","O.jpg","1","1","1","",""
"","feedback","","html-keyboard-response","283","265589","0.0-1.0-384.0-0.0","0","0","92143","","null","","","null","42","","","","","","","","","","","","","","","",""
"","ITI","","html-keyboard-response","284","266597","0.0-1.0-387.0","0","0","92143","","null","","","null","42","","","","","","","","","","","","","","","NaN",""
"","S1","","html-keyboard-response","285","266853","0.0-1.0-389.0","0","0","92143","","null","","","null","43","","","","","","","","","","","","","","","",""
"","ISI","","html-keyboard-response","286","267006","0.0-1.0-390.0","0","0","92143","","null","","","null","43","NaN","","","","","","","","","","","","","","",""
"","S2","","html-keyboard-response","287","267261","0.0-1.0-391.0","0","0","92143","","null","","","null","43","","NaN","","","","","","","","","","","","","",""
"","response","","html-keyboard-response","288","267618","0.0-1.0-392.0-0.0","0","0","92143","","354","","","68","43","","","1","43","training","adjacent","CD","3","4","O.jpg","R.jpg","0","1","0","",""
"","feedback","","html-keyboard-response","289","268629","0.0-1.0-393.0-0.0","0","0","92143","","null","","","null","43","","","","","","","","","","","","","","","",""
"","time_out","","html-keyboard-response","290","270637","0.0-1.0-395.0-0.0","0","0","92143","","null","","","null","43","","","","","","","","","","","","","","","",""
"","ITI","","html-keyboard-response","291","271645","0.0-1.0-396.0","0","0","92143","","null","","","null","43","","","","","","","","","","","","","","","NaN",""
"","S1","","html-keyboard-response","292","271901","0.0-1.0-398.0","0","0","92143","","null","","","null","44","","","","","","","","","","","","","","","",""
"","ISI","","html-keyboard-response","293","272061","0.0-1.0-399.0","0","0","92143","","null","","","null","44","NaN","","","","","","","","","","","","","","",""
"","S2","","html-keyboard-response","294","272317","0.0-1.0-400.0","0","0","92143","","null","","","null","44","","NaN","","","","","","","","","","","","","",""
"","response","","html-keyboard-response","295","272466","0.0-1.0-401.0-0.0","0","0","92143","","146","","","75","44","","","1","44","training","adjacent","DE","4","5","R.jpg","Q.jpg","1","1","1","",""
"","feedback","","html-keyboard-response","296","273476","0.0-1.0-402.0-0.0","0","0","92143","","null","","","null","44","","","","","","","","","","","","","","","",""
"","ITI","","html-keyboard-response","297","274485","0.0-1.0-405.0","0","0","92143","","null","","","null","44","","","","","","","","","","","","","","","NaN",""
"","S1","","html-keyboard-response","298","274740","0.0-1.0-407.0","0","0","92143","","null","","","null","45","","","","","","","","","","","","","","","",""
"","ISI","","html-keyboard-response","299","274900","0.0-1.0-408.0","0","0","92143","","null","","","null","45","NaN","","","","","","","","","","","","","","",""
"","S2","","html-keyboard-response","300","275156","0.0-1.0-409.0","0","0","92143","","null","","","null","45","","NaN","","","","","","","","","","","","","",""
"","response","","html-keyboard-response","301","275531","0.0-1.0-410.0-0.0","0","0","92143","","372","","","75","45","","","1","45","training","adjacent","CB","3","2","O.jpg","L.jpg","1","0","0","",""
"","feedback","","html-keyboard-response","302","276540","0.0-1.0-411.0-0.0","0","0","92143","","null","","","null","45","","","","","","","","","","","","","","","",""
"","time_out","","html-keyboard-response","303","278548","0.0-1.0-413.0-0.0","0","0","92143","","null","","","null","45","","","","","","","","","","","","","","","",""
"","ITI","","html-keyboard-response","304","279557","0.0-1.0-414.0","0","0","92143","","null","","","null","45","","","","","","","","","","","","","","","NaN",""
"","S1","","html-keyboard-response","305","279812","0.0-1.0-416.0","0","0","92143","","null","","","null","46","","","","","","","","","","","","","","","",""
"","ISI","","html-keyboard-response","306","279972","0.0-1.0-417.0","0","0","92143","","null","","","null","46","NaN","","","","","","","","","","","","","","",""
"","S2","","html-keyboard-response","307","280229","0.0-1.0-418.0","0","0","92143","","null","","","null","46","","NaN","","","","","","","","","","","","","",""
"","response","","html-keyboard-response","308","280514","0.0-1.0-419.0-0.0","0","0","92143","","282","","","75","46","","","1","46","training","adjacent","DE","4","5","R.jpg","Q.jpg","1","1","1","",""
"","feedback","","html-keyboard-response","309","281525","0.0-1.0-420.0-0.0","0","0","92143","","null","","","null","46","","","","","","","","","","","","","","","",""
"","ITI","","html-keyboard-response","310","282533","0.0-1.0-423.0","0","0","92143","","null","","","null","46","","","","","","","","","","","","","","","NaN",""
"","S1","","html-keyboard-response","311","282788","0.0-1.0-425.0","0","0","92143","","null","","","null","47","","","","","","","","","","","","","","","",""
"","ISI","","html-keyboard-response","312","282948","0.0-1.0-426.0","0","0","92143","","null","","","null","47","NaN","","","","","","","","","","","","","","",""
"","S2","","html-keyboard-response","313","283204","0.0-1.0-427.0","0","0","92143","","null","","","null","47","","NaN","","","","","","","","","","","","","",""
"","response","","html-keyboard-response","314","283578","0.0-1.0-428.0-0.0","0","0","92143","","370","","","75","47","","","1","47","training","adjacent","CB","3","2","O.jpg","L.jpg","1","0","0","",""
"","feedback","","html-keyboard-response","315","284589","0.0-1.0-429.0-0.0","0","0","92143","","null","","","null","47","","","","","","","","","","","","","","","",""
"","time_out","","html-keyboard-response","316","286597","0.0-1.0-431.0-0.0","0","0","92143","","null","","","null","47","","","","","","","","","","","","","","","",""
"","ITI","","html-keyboard-response","317","287605","0.0-1.0-432.0","0","0","92143","","null","","","null","47","","","","","","","","","","","","","","","NaN",""
"","block_over","","html-keyboard-response","318","291521","0.0-1.0-433.0-0.0","0","0","92143","","3913","","","32","47","","","","","","","","","","","","","","","",""
"","S1","","html-keyboard-response","319","291780","0.0-1.0-434.0","0","0","92143","","null","","","null","48","","","","","","","","","","","","","","","",""
"","ISI","","html-keyboard-response","320","291941","0.0-1.0-435.0","0","0","92143","","null","","","null","48","NaN","","","","","","","","","","","","","","",""
"","S2","","html-keyboard-response","321","292197","0.0-1.0-436.0","0","0","92143","","null","","","null","48","","NaN","","","","","","","","","","","","","",""
"","response","","html-keyboard-response","322","292297","0.0-1.0-437.0-0.0","0","0","92143","","98","","","75","48","","","2","48","training","adjacent","GF","7","6","P.jpg","M.jpg","1","0","0","",""
"","feedback","","html-keyboard-response","323","293301","0.0-1.0-438.0-0.0","0","0","92143","","null","","","null","48","","","","","","","","","","","","","","","",""
"","time_out","","html-keyboard-response","324","295309","0.0-1.0-440.0-0.0","0","0","92143","","null","","","null","48","","","","","","","","","","","","","","","",""
"","ITI","","html-keyboard-response","325","296317","0.0-1.0-441.0","0","0","92143","","null","","","null","48","","","","","","","","","","","","","","","NaN",""
"","S1","","html-keyboard-response","326","296573","0.0-1.0-443.0","0","0","92143","","null","","","null","49","","","","","","","","","","","","","","","",""
"","ISI","","html-keyboard-response","327","296733","0.0-1.0-444.0","0","0","92143","","null","","","null","49","NaN","","","","","","","","","","","","","","",""
"","S2","","html-keyboard-response","328","296989","0.0-1.0-445.0","0","0","92143","","null","","","null","49","","NaN","","","","","","","","","","","","","",""
"","response","","html-keyboard-response","329","297345","0.0-1.0-446.0-0.0","0","0","92143","","353","","","75","49","","","2","49","training","adjacent","ED","5","4","Q.jpg","R.jpg","1","0","0","",""
"","feedback","","html-keyboard-response","330","298359","0.0-1.0-447.0-0.0","0","0","92143","","null","","","null","49","","","","","","","","","","","","","","","",""
"","time_out","","html-keyboard-response","331","300365","0.0-1.0-449.0-0.0","0","0","92143","","null","","","null","49","","","","","","","","","","","","","","","",""
"","ITI","","html-keyboard-response","332","301373","0.0-1.0-450.0","0","0","92143","","null","","","null","49","","","","","","","","","","","","","","","NaN",""
"","S1","","html-keyboard-response","333","301629","0.0-1.0-452.0","0","0","92143","","null","","","null","50","","","","","","","","","","","","","","","",""
"","ISI","","html-keyboard-response","334","301789","0.0-1.0-453.0","0","0","92143","","null","","","null","50","NaN","","","","","","","","","","","","","","",""
"","S2","","html-keyboard-response","335","302045","0.0-1.0-454.0","0","0","92143","","null","","","null","50","","NaN","","","","","","","","","","","","","",""
"","response","","html-keyboard-response","336","302330","0.0-1.0-455.0-0.0","0","0","92143","","282","","","68","50","","","2","50","training","adjacent","BA","2","1","L.jpg","N.jpg","0","0","1","",""
"","feedback","","html-keyboard-response","337","303342","0.0-1.0-456.0-0.0","0","0","92143","","null","","","null","50","","","","","","","","","","","","","","","",""
"","ITI","","html-keyboard-response","338","304349","0.0-1.0-459.0","0","0","92143","","null","","","null","50","","","","","","","","","","","","","","","NaN",""
"","S1","","html-keyboard-response","339","304605","0.0-1.0-461.0","0","0","92143","","null","","","null","51","","","","","","","","","","","","","","","",""
"","ISI","","html-keyboard-response","340","304765","0.0-1.0-462.0","0","0","92143","","null","","","null","51","NaN","","","","","","","","","","","","","","",""
"","S2","","html-keyboard-response","341","305021","0.0-1.0-463.0","0","0","92143","","null","","","null","51","","NaN","","","","","","","","","","","","","",""
"","response","","html-keyboard-response","342","305465","0.0-1.0-464.0-0.0","0","0","92143","","441","","","68","51","","","2","51","training","adjacent","EF","5","6","Q.jpg","M.jpg","0","1","0","",""
"","feedback","","html-keyboard-response","343","306471","0.0-1.0-465.0-0.0","0","0","92143","","null","","","null","51","","","","","","","","","","","","","","","",""
"","time_out","","html-keyboard-response","344","308478","0.0-1.0-467.0-0.0","0","0","92143","","null","","","null","51","","","","","","","","","","","","","","","",""
"","ITI","","html-keyboard-response","345","309486","0.0-1.0-468.0","0","0","92143","","null","","","null","51","","","","","","","","","","","","","","","NaN",""
"","S1","","html-keyboard-response","346","309742","0.0-1.0-470.0","0","0","92143","","null","","","null","52","","","","","","","","","","","","","","","",""
"","ISI","","html-keyboard-response","347","309902","0.0-1.0-471.0","0","0","92143","","null","","","null","52","NaN","","","","","","","","","","","","","","",""
"","S2","","html-keyboard-response","348","310158","0.0-1.0-472.0","0","0","92143","","null","","","null","52","","NaN","","","","","","","","","","","","","",""
"","response","","html-keyboard-response","349","310538","0.0-1.0-473.0-0.0","0","0","92143","","378","","","75","52","","","2","52","training","adjacent","DE","4","5","R.jpg","Q.jpg","1","1","1","",""
"","feedback","","html-keyboard-response","350","311542","0.0-1.0-474.0-0.0","0","0","92143","","null","","","null","52","","","","","","","","","","","","","","","",""
"","ITI","","html-keyboard-response","351","312550","0.0-1.0-477.0","0","0","92143","","null","","","null","52","","","","","","","","","","","","","","","NaN",""
"","S1","","html-keyboard-response","352","312806","0.0-1.0-479.0","0","0","92143","","null","","","null","53","","","","","","","","","","","","","","","",""
"","ISI","","html-keyboard-response","353","312966","0.0-1.0-480.0","0","0","92143","","null","","","null","53","NaN","","","","","","","","","","","","","","",""
"","S2","","html-keyboard-response","354","313222","0.0-1.0-481.0","0","0","92143","","null","","","null","53","","NaN","","","","","","","","","","","","","",""
"","response","","html-keyboard-response","355","313619","0.0-1.0-482.0-0.0","0","0","92143","","394","","","68","53","","","2","53","training","adjacent","AB","1","2","N.jpg","L.jpg","0","1","0","",""
"","feedback","","html-keyboard-response","356","314631","0.0-1.0-483.0-0.0","0","0","92143","","null","","","null","53","","","","","","","","","","","","","","","",""
"","time_out","","html-keyboard-response","357","316638","0.0-1.0-485.0-0.0","0","0","92143","","null","","","null","53","","","","","","","","","","","","","","","",""
"","ITI","","html-keyboard-response","358","317646","0.0-1.0-486.0","0","0","92143","","null","","","null","53","","","","","","","","","","","","","","","NaN",""
"","S1","","html-keyboard-response","359","317902","0.0-1.0-488.0","0","0","92143","","null","","","null","54","","","","","","","","","","","","","","","",""
"","ISI","","html-keyboard-response","360","318062","0.0-1.0-489.0","0","0","92143","","null","","","null","54","NaN","","","","","","","","","","","","","","",""
"","S2","","html-keyboard-response","361","318318","0.0-1.0-490.0","0","0","92143","","null","","","null","54","","NaN","","","","","","","","","","","","","",""
"","response","","html-keyboard-response","362","318698","0.0-1.0-491.0-0.0","0","0","92143","","377","","","75","54","","","2","54","training","adjacent","AB","1","2","N.jpg","L.jpg","1","1","1","",""
"","feedback","","html-keyboard-response","363","319702","0.0-1.0-492.0-0.0","0","0","92143","","null","","","null","54","","","","","","","","","","","","","","","",""
"","ITI","","html-keyboard-response","364","320711","0.0-1.0-495.0","0","0","92143","","null","","","null","54","","","","","","","","","","","","","","","NaN",""
"","S1","","html-keyboard-response","365","320966","0.0-1.0-497.0","0","0","92143","","null","","","null","55","","","","","","","","","","","","","","","",""
"","ISI","","html-keyboard-response","366","321126","0.0-1.0-498.0","0","0","92143","","null","","","null","55","NaN","","","","","","","","","","","","","","",""
"","S2","","html-keyboard-response","367","321382","0.0-1.0-499.0","0","0","92143","","null","","","null","55","","NaN","","","","","","","","","","","","","",""
"","response","","html-keyboard-response","368","321834","0.0-1.0-500.0-0.0","0","0","92143","","448","","","68","55","","","2","55","training","adjacent","CD","3","4","O.jpg","R.jpg","0","1","0","",""
"","feedback","","html-keyboard-response","369","322838","0.0-1.0-501.0-0.0","0","0","92143","","null","","","null","55","","","","","","","","","","","","","","","",""
"","time_out","","html-keyboard-response","370","324846","0.0-1.0-503.0-0.0","0","0","92143","","null","","","null","55","","","","","","","","","","","","","","","",""
"","ITI","","html-keyboard-response","371","325855","0.0-1.0-504.0","0","0","92143","","null","","","null","55","","","","","","","","","","","","","","","NaN",""
"","S1","","html-keyboard-response","372","326110","0.0-1.0-506.0","0","0","92143","","null","","","null","56","","","","","","","","","","","","","","","",""
"","ISI","","html-keyboard-response","373","326270","0.0-1.0-507.0","0","0","92143","","null","","","null","56","NaN","","","","","","","","","","","","","","",""
"","S2","","html-keyboard-response","374","326527","0.0-1.0-508.0","0","0","92143","","null","","","null","56","","NaN","","","","","","","","","","","","","",""
"","response","","html-keyboard-response","375","326963","0.0-1.0-509.0-0.0","0","0","92143","","433","","","68","56","","","2","56","training","adjacent","GF","7","6","P.jpg","M.jpg","0","0","1","",""
"","feedback","","html-keyboard-response","376","327967","0.0-1.0-510.0-0.0","0","0","92143","","null","","","null","56","","","","","","","","","","","","","","","",""
"","ITI","","html-keyboard-response","377","328975","0.0-1.0-513.0","0","0","92143","","null","","","null","56","","","","","","","","","","","","","","","NaN",""
"","S1","","html-keyboard-response","378","329230","0.0-1.0-515.0","0","0","92143","","null","","","null","57","","","","","","","","","","","","","","","",""
"","ISI","","html-keyboard-response","379","329391","0.0-1.0-516.0","0","0","92143","","null","","","null","57","NaN","","","","","","","","","","","","","","",""
"","S2","","html-keyboard-response","380","329647","0.0-1.0-517.0","0","0","92143","","null","","","null","57","","NaN","","","","","","","","","","","","","",""
"","response","","html-keyboard-response","381","330106","0.0-1.0-518.0-0.0","0","0","92143","","456","","","75","57","","","2","57","training","adjacent","FG","6","7","M.jpg","P.jpg","1","1","1","",""
"","feedback","","html-keyboard-response","382","331111","0.0-1.0-519.0-0.0","0","0","92143","","null","","","null","57","","","","","","","","","","","","","","","",""
"","ITI","","html-keyboard-response","383","332118","0.0-1.0-522.0","0","0","92143","","null","","","null","57","","","","","","","","","","","","","","","NaN",""
"","S1","","html-keyboard-response","384","332375","0.0-1.0-524.0","0","0","92143","","null","","","null","58","","","","","","","","","","","","","","","",""
"","ISI","","html-keyboard-response","385","332535","0.0-1.0-525.0","0","0","92143","","null","","","null","58","NaN","","","","","","","","","","","","","","",""
"","S2","","html-keyboard-response","386","332791","0.0-1.0-526.0","0","0","92143","","null","","","null","58","","NaN","","","","","","","","","","","","","",""
"","response","","html-keyboard-response","387","333298","0.0-1.0-527.0-0.0","0","0","92143","","504","","","75","58","","","2","58","training","adjacent","DE","4","5","R.jpg","Q.jpg","1","1","1","",""
"","feedback","","html-keyboard-response","388","334303","0.0-1.0-528.0-0.0","0","0","92143","","null","","","null","58","","","","","","","","","","","","","","","",""
"","ITI","","html-keyboard-response","389","335311","0.0-1.0-531.0","0","0","92143","","null","","","null","58","","","","","","","","","","","","","","","NaN",""
"","S1","","html-keyboard-response","390","335567","0.0-1.0-533.0","0","0","92143","","null","","","null","59","","","","","","","","","","","","","","","",""
"","ISI","","html-keyboard-response","391","335727","0.0-1.0-534.0","0","0","92143","","null","","","null","59","NaN","","","","","","","","","","","","","","",""
"","S2","","html-keyboard-response","392","335983","0.0-1.0-535.0","0","0","92143","","null","","","null","59","","NaN","","","","","","","","","","","","","",""
"","response","","html-keyboard-response","393","336522","0.0-1.0-536.0-0.0","0","0","92143","","536","","","75","59","","","2","59","training","adjacent","FE","6","5","M.jpg","Q.jpg","1","0","0","",""
"","feedback","","html-keyboard-response","394","337527","0.0-1.0-537.0-0.0","0","0","92143","","null","","","null","59","","","","","","","","","","","","","","","",""
"","time_out","","html-keyboard-response","395","339535","0.0-1.0-539.0-0.0","0","0","92143","","null","","","null","59","","","","","","","","","","","","","","","",""
"","ITI","","html-keyboard-response","396","340544","0.0-1.0-540.0","0","0","92143","","null","","","null","59","","","","","","","","","","","","","","","NaN",""
"","S1","","html-keyboard-response","397","340799","0.0-1.0-542.0","0","0","92143","","null","","","null","60","","","","","","","","","","","","","","","",""
"","ISI","","html-keyboard-response","398","340959","0.0-1.0-543.0","0","0","92143","","null","","","null","60","NaN","","","","","","","","","","","","","","",""
"","S2","","html-keyboard-response","399","341215","0.0-1.0-544.0","0","0","92143","","null","","","null","60","","NaN","","","","","","","","","","","","","",""
"","response","","html-keyboard-response","400","341586","0.0-1.0-545.0-0.0","0","0","92143","","368","","","68","60","","","2","60","training","adjacent","FG","6","7","M.jpg","P.jpg","0","1","0","",""
"","feedback","","html-keyboard-response","401","342590","0.0-1.0-546.0-0.0","0","0","92143","","null","","","null","60","","","","","","","","","","","","","","","",""
"","time_out","","html-keyboard-response","402","344599","0.0-1.0-548.0-0.0","0","0","92143","","null","","","null","60","","","","","","","","","","","","","","","",""
"","ITI","","html-keyboard-response","403","345606","0.0-1.0-549.0","0","0","92143","","null","","","null","60","","","","","","","","","","","","","","","NaN",""
"","S1","","html-keyboard-response","404","345862","0.0-1.0-551.0","0","0","92143","","null","","","null","61","","","","","","","","","","","","","","","",""
"","ISI","","html-keyboard-response","405","346022","0.0-1.0-552.0","0","0","92143","","null","","","null","61","NaN","","","","","","","","","","","","","","",""
"","S2","","html-keyboard-response","406","346278","0.0-1.0-553.0","0","0","92143","","null","","","null","61","","NaN","","","","","","","","","","","","","",""
"","response","","html-keyboard-response","407","346369","0.0-1.0-554.0-0.0","0","0","92143","","88","","","75","61","","","2","61","training","adjacent","CB","3","2","O.jpg","L.jpg","1","0","0","",""
"","feedback","","html-keyboard-response","408","347374","0.0-1.0-555.0-0.0","0","0","92143","","null","","","null","61","","","","","","","","","","","","","","","",""
"","time_out","","html-keyboard-response","409","349382","0.0-1.0-557.0-0.0","0","0","92143","","null","","","null","61","","","","","","","","","","","","","","","",""
"","ITI","","html-keyboard-response","410","350390","0.0-1.0-558.0","0","0","92143","","null","","","null","61","","","","","","","","","","","","","","","NaN",""
"","S1","","html-keyboard-response","411","350646","0.0-1.0-560.0","0","0","92143","","null","","","null","62","","","","","","","","","","","","","","","",""
"","ISI","","html-keyboard-response","412","350806","0.0-1.0-561.0","0","0","92143","","null","","","null","62","NaN","","","","","","","","","","","","","","",""
"","S2","","html-keyboard-response","413","351062","0.0-1.0-562.0","0","0","92143","","null","","","null","62","","NaN","","","","","","","","","","","","","",""
"","response","","html-keyboard-response","414","351233","0.0-1.0-563.0-0.0","0","0","92143","","168","","","75","62","","","2","62","training","adjacent","CB","3","2","O.jpg","L.jpg","1","0","0","",""
"","feedback","","html-keyboard-response","415","352238","0.0-1.0-564.0-0.0","0","0","92143","","null","","","null","62","","","","","","","","","","","","","","","",""
"","time_out","","html-keyboard-response","416","354246","0.0-1.0-566.0-0.0","0","0","92143","","null","","","null","62","","","","","","","","","","","","","","","",""
"","ITI","","html-keyboard-response","417","355255","0.0-1.0-567.0","0","0","92143","","null","","","null","62","","","","","","","","","","","","","","","NaN",""
"","S1","","html-keyboard-response","418","355510","0.0-1.0-569.0","0","0","92143","","null","","","null","63","","","","","","","","","","","","","","","",""
"","ISI","","html-keyboard-response","419","355670","0.0-1.0-570.0","0","0","92143","","null","","","null","63","NaN","","","","","","","","","","","","","","",""
"","S2","","html-keyboard-response","420","355926","0.0-1.0-571.0","0","0","92143","","null","","","null","63","","NaN","","","","","","","","","","","","","",""
"","response","","html-keyboard-response","421","356009","0.0-1.0-572.0-0.0","0","0","92143","","80","","","68","63","","","2","63","training","adjacent","EF","5","6","Q.jpg","M.jpg","0","1","0","",""
"","feedback","","html-keyboard-response","422","357014","0.0-1.0-573.0-0.0","0","0","92143","","null","","","null","63","","","","","","","","","","","","","","","",""
"","time_out","","html-keyboard-response","423","359022","0.0-1.0-575.0-0.0","0","0","92143","","null","","","null","63","","","","","","","","","","","","","","","",""
"","ITI","","html-keyboard-response","424","360031","0.0-1.0-576.0","0","0","92143","","null","","","null","63","","","","","","","","","","","","","","","NaN",""
"","S1","","html-keyboard-response","425","360286","0.0-1.0-578.0","0","0","92143","","null","","","null","64","","","","","","","","","","","","","","","",""
"","ISI","","html-keyboard-response","426","360446","0.0-1.0-579.0","0","0","92143","","null","","","null","64","NaN","","","","","","","","","","","","","","",""
"","S2","","html-keyboard-response","427","360702","0.0-1.0-580.0","0","0","92143","","null","","","null","64","","NaN","","","","","","","","","","","","","",""
"","response","","html-keyboard-response","428","361041","0.0-1.0-581.0-0.0","0","0","92143","","335","","","68","64","","","2","64","training","adjacent","FG","6","7","M.jpg","P.jpg","0","1","0","",""
"","feedback","","html-keyboard-response","429","362047","0.0-1.0-582.0-0.0","0","0","92143","","null","","","null","64","","","","","","","","","","","","","","","",""
"","time_out","","html-keyboard-response","430","364055","0.0-1.0-584.0-0.0","0","0","92143","","null","","","null","64","","","","","","","","","","","","","","","",""
"","ITI","","html-keyboard-response","431","365063","0.0-1.0-585.0","0","0","92143","","null","","","null","64","","","","","","","","","","","","","","","NaN",""
"","S1","","html-keyboard-response","432","365318","0.0-1.0-587.0","0","0","92143","","null","","","null","65","","","","","","","","","","","","","","","",""
"","ISI","","html-keyboard-response","433","365479","0.0-1.0-588.0","0","0","92143","","null","","","null","65","NaN","","","","","","","","","","","","","","",""
"","S2","","html-keyboard-response","434","365735","0.0-1.0-589.0","0","0","92143","","null","","","null","65","","NaN","","","","","","","","","","","","","",""
"","response","","html-keyboard-response","435","366193","0.0-1.0-590.0-0.0","0","0","92143","","455","","","68","65","","","2","65","training","adjacent","ED","5","4","Q.jpg","R.jpg","0","0","1","",""
"","feedback","","html-keyboard-response","436","367200","0.0-1.0-591.0-0.0","0","0","92143","","null","","","null","65","","","","","","","","","","","","","","","",""
"","ITI","","html-keyboard-response","437","368208","0.0-1.0-594.0","0","0","92143","","null","","","null","65","","","","","","","","","","","","","","","NaN",""
"","S1","","html-keyboard-response","438","368464","0.0-1.0-596.0","0","0","92143","","null","","","null","66","","","","","","","","","","","","","","","",""
"","ISI","","html-keyboard-response","439","368624","0.0-1.0-597.0","0","0","92143","","null","","","null","66","NaN","","","","","","","","","","","","","","",""
"","S2","","html-keyboard-response","440","368880","0.0-1.0-598.0","0","0","92143","","null","","","null","66","","NaN","","","","","","","","","","","","","",""
"","response","","html-keyboard-response","441","369282","0.0-1.0-599.0-0.0","0","0","92143","","399","","","68","66","","","2","66","training","adjacent","ED","5","4","Q.jpg","R.jpg","0","0","1","",""
"","feedback","","html-keyboard-response","442","370288","0.0-1.0-600.0-0.0","0","0","92143","","null","","","null","66","","","","","","","","","","","","","","","",""
"","ITI","","html-keyboard-response","443","371296","0.0-1.0-603.0","0","0","92143","","null","","","null","66","","","","","","","","","","","","","","","NaN",""
"","S1","","html-keyboard-response","444","371552","0.0-1.0-605.0","0","0","92143","","null","","","null","67","","","","","","","","","","","","","","","",""
"","ISI","","html-keyboard-response","445","371712","0.0-1.0-606.0","0","0","92143","","null","","","null","67","NaN","","","","","","","","","","","","","","",""
"","S2","","html-keyboard-response","446","371968","0.0-1.0-607.0","0","0","92143","","null","","","null","67","","NaN","","","","","","","","","","","","","",""
"","response","","html-keyboard-response","447","372434","0.0-1.0-608.0-0.0","0","0","92143","","462","","","75","67","","","2","67","training","adjacent","AB","1","2","N.jpg","L.jpg","1","1","1","",""
"","feedback","","html-keyboard-response","448","373441","0.0-1.0-609.0-0.0","0","0","92143","","null","","","null","67","","","","","","","","","","","","","","","",""
"","ITI","","html-keyboard-response","449","374448","0.0-1.0-612.0","0","0","92143","","null","","","null","67","","","","","","","","","","","","","","","NaN",""
"","S1","","html-keyboard-response","450","374704","0.0-1.0-614.0","0","0","92143","","null","","","null","68","","","","","","","","","","","","","","","",""
"","ISI","","html-keyboard-response","451","374864","0.0-1.0-615.0","0","0","92143","","null","","","null","68","NaN","","","","","","","","","","","","","","",""
"","S2","","html-keyboard-response","452","375120","0.0-1.0-616.0","0","0","92143","","null","","","null","68","","NaN","","","","","","","","","","","","","",""
"","response","","html-keyboard-response","453","375585","0.0-1.0-617.0-0.0","0","0","92143","","461","","","68","68","","","2","68","training","adjacent","BC","2","3","L.jpg","O.jpg","0","1","0","",""
"","feedback","","html-keyboard-response","454","376591","0.0-1.0-618.0-0.0","0","0","92143","","null","","","null","68","","","","","","","","","","","","","","","",""
"","time_out","","html-keyboard-response","455","378600","0.0-1.0-620.0-0.0","0","0","92143","","null","","","null","68","","","","","","","","","","","","","","","",""
"","ITI","","html-keyboard-response","456","379608","0.0-1.0-621.0","0","0","92143","","null","","","null","68","","","","","","","","","","","","","","","NaN",""
"","S1","","html-keyboard-response","457","379863","0.0-1.0-623.0","0","0","92143","","null","","","null","69","","","","","","","","","","","","","","","",""
"","ISI","","html-keyboard-response","458","380023","0.0-1.0-624.0","0","0","92143","","null","","","null","69","NaN","","","","","","","","","","","","","","",""
"","S2","","html-keyboard-response","459","380279","0.0-1.0-625.0","0","0","92143","","null","","","null","69","","NaN","","","","","","","","","","","","","",""
"","response","","html-keyboard-response","460","380842","0.0-1.0-626.0-0.0","0","0","92143","","559","","","75","69","","","2","69","training","adjacent","FE","6","5","M.jpg","Q.jpg","1","0","0","",""
"","feedback","","html-keyboard-response","461","381848","0.0-1.0-627.0-0.0","0","0","92143","","null","","","null","69","","","","","","","","","","","","","","","",""
"","time_out","","html-keyboard-response","462","383856","0.0-1.0-629.0-0.0","0","0","92143","","null","","","null","69","","","","","","","","","","","","","","","",""
"","ITI","","html-keyboard-response","463","384864","0.0-1.0-630.0","0","0","92143","","null","","","null","69","","","","","","","","","","","","","","","NaN",""
"","S1","","html-keyboard-response","464","385120","0.0-1.0-632.0","0","0","92143","","null","","","null","70","","","","","","","","","","","","","","","",""
"","ISI","","html-keyboard-response","465","385280","0.0-1.0-633.0","0","0","92143","","null","","","null","70","NaN","","","","","","","","","","","","","","",""
"","S2","","html-keyboard-response","466","385536","0.0-1.0-634.0","0","0","92143","","null","","","null","70","","NaN","","","","","","","","","","","","","",""
"","response","","html-keyboard-response","467","386025","0.0-1.0-635.0-0.0","0","0","92143","","486","","","75","70","","","2","70","training","adjacent","FE","6","5","M.jpg","Q.jpg","1","0","0","",""
"","feedback","","html-keyboard-response","468","387032","0.0-1.0-636.0-0.0","0","0","92143","","null","","","null","70","","","","","","","","","","","","","","","",""
"","time_out","","html-keyboard-response","469","389040","0.0-1.0-638.0-0.0","0","0","92143","","null","","","null","70","","","","","","","","","","","","","","","",""
"","ITI","","html-keyboard-response","470","390048","0.0-1.0-639.0","0","0","92143","","null","","","null","70","","","","","","","","","","","","","","","NaN",""
"","S1","","html-keyboard-response","471","390304","0.0-1.0-641.0","0","0","92143","","null","","","null","71","","","","","","","","","","","","","","","",""
"","ISI","","html-keyboard-response","472","390464","0.0-1.0-642.0","0","0","92143","","null","","","null","71","NaN","","","","","","","","","","","","","","",""
"","S2","","html-keyboard-response","473","390720","0.0-1.0-643.0","0","0","92143","","null","","","null","71","","NaN","","","","","","","","","","","","","",""
"","response","","html-keyboard-response","474","391162","0.0-1.0-644.0-0.0","0","0","92143","","439","","","75","71","","","2","71","training","adjacent","DE","4","5","R.jpg","Q.jpg","1","1","1","",""
"","feedback","","html-keyboard-response","475","392168","0.0-1.0-645.0-0.0","0","0","92143","","null","","","null","71","","","","","","","","","","","","","","","",""
"","ITI","","html-keyboard-response","476","393176","0.0-1.0-648.0","0","0","92143","","null","","","null","71","","","","","","","","","","","","","","","NaN",""
"","S1","","html-keyboard-response","477","393432","0.0-1.0-650.0","0","0","92143","","null","","","null","72","","","","","","","","","","","","","","","",""
"","ISI","","html-keyboard-response","478","393592","0.0-1.0-651.0","0","0","92143","","null","","","null","72","NaN","","","","","","","","","","","","","","",""
"","S2","","html-keyboard-response","479","393848","0.0-1.0-652.0","0","0","92143","","null","","","null","72","","NaN","","","","","","","","","","","","","",""
"","response","","html-keyboard-response","480","394225","0.0-1.0-653.0-0.0","0","0","92143","","374","","","68","72","","","2","72","training","adjacent","BA","2","1","L.jpg","N.jpg","0","0","1","",""
"","feedback","","html-keyboard-response","481","395232","0.0-1.0-654.0-0.0","0","0","92143","","null","","","null","72","","","","","","","","","","","","","","","",""
"","ITI","","html-keyboard-response","482","396240","0.0-1.0-657.0","0","0","92143","","null","","","null","72","","","","","","","","","","","","","","","NaN",""
"","S1","","html-keyboard-response","483","396496","0.0-1.0-659.0","0","0","92143","","null","","","null","73","","","","","","","","","","","","","","","",""
"","ISI","","html-keyboard-response","484","396656","0.0-1.0-660.0","0","0","92143","","null","","","null","73","NaN","","","","","","","","","","","","","","",""
"","S2","","html-keyboard-response","485","396912","0.0-1.0-661.0","0","0","92143","","null","","","null","73","","NaN","","","","","","","","","","","","","",""
"","response","","html-keyboard-response","486","397033","0.0-1.0-662.0-0.0","0","0","92143","","118","","","75","73","","","2","73","training","adjacent","DE","4","5","R.jpg","Q.jpg","1","1","1","",""
"","feedback","","html-keyboard-response","487","398040","0.0-1.0-663.0-0.0","0","0","92143","","null","","","null","73","","","","","","","","","","","","","","","",""
"","ITI","","html-keyboard-response","488","399048","0.0-1.0-666.0","0","0","92143","","null","","","null","73","","","","","","","","","","","","","","","NaN",""
"","S1","","html-keyboard-response","489","399304","0.0-1.0-668.0","0","0","92143","","null","","","null","74","","","","","","","","","","","","","","","",""
"","ISI","","html-keyboard-response","490","399464","0.0-1.0-669.0","0","0","92143","","null","","","null","74","NaN","","","","","","","","","","","","","","",""
"","S2","","html-keyboard-response","491","399720","0.0-1.0-670.0","0","0","92143","","null","","","null","74","","NaN","","","","","","","","","","","","","",""
"","response","","html-keyboard-response","492","399873","0.0-1.0-671.0-0.0","0","0","92143","","149","","","68","74","","","2","74","training","adjacent","CB","3","2","O.jpg","L.jpg","0","0","1","",""
"","feedback","","html-keyboard-response","493","400880","0.0-1.0-672.0-0.0","0","0","92143","","null","","","null","74","","","","","","","","","","","","","","","",""
"","ITI","","html-keyboard-response","494","401888","0.0-1.0-675.0","0","0","92143","","null","","","null","74","","","","","","","","","","","","","","","NaN",""
"","S1","","html-keyboard-response","495","402144","0.0-1.0-677.0","0","0","92143","","null","","","null","75","","","","","","","","","","","","","","","",""
"","ISI","","html-keyboard-response","496","402304","0.0-1.0-678.0","0","0","92143","","null","","","null","75","NaN","","","","","","","","","","","","","","",""
"","S2","","html-keyboard-response","497","402560","0.0-1.0-679.0","0","0","92143","","null","","","null","75","","NaN","","","","","","","","","","","","","",""
"","response","","html-keyboard-response","498","402889","0.0-1.0-680.0-0.0","0","0","92143","","325","","","75","75","","","2","75","training","adjacent","FG","6","7","M.jpg","P.jpg","1","1","1","",""
"","feedback","","html-keyboard-response","499","403896","0.0-1.0-681.0-0.0","0","0","92143","","null","","","null","75","","","","","","","","","","","","","","","",""
"","ITI","","html-keyboard-response","500","404904","0.0-1.0-684.0","0","0","92143","","null","","","null","75","","","","","","","","","","","","","","","NaN",""
"","S1","","html-keyboard-response","501","405160","0.0-1.0-686.0","0","0","92143","","null","","","null","76","","","","","","","","","","","","","","","",""
"","ISI","","html-keyboard-response","502","405320","0.0-1.0-687.0","0","0","92143","","null","","","null","76","NaN","","","","","","","","","","","","","","",""
"","S2","","html-keyboard-response","503","405576","0.0-1.0-688.0","0","0","92143","","null","","","null","76","","NaN","","","","","","","","","","","","","",""
"","response","","html-keyboard-response","504","405969","0.0-1.0-689.0-0.0","0","0","92143","","389","","","68","76","","","2","76","training","adjacent","DC","4","3","R.jpg","O.jpg","0","0","1","",""
"","feedback","","html-keyboard-response","505","406976","0.0-1.0-690.0-0.0","0","0","92143","","null","","","null","76","","","","","","","","","","","","","","","",""
"","ITI","","html-keyboard-response","506","407984","0.0-1.0-693.0","0","0","92143","","null","","","null","76","","","","","","","","","","","","","","","NaN",""
"","S1","","html-keyboard-response","507","408240","0.0-1.0-695.0","0","0","92143","","null","","","null","77","","","","","","","","","","","","","","","",""
"","ISI","","html-keyboard-response","508","408400","0.0-1.0-696.0","0","0","92143","","null","","","null","77","NaN","","","","","","","","","","","","","","",""
"","S2","","html-keyboard-response","509","408656","0.0-1.0-697.0","0","0","92143","","null","","","null","77","","NaN","","","","","","","","","","","","","",""
"","response","","html-keyboard-response","510","409080","0.0-1.0-698.0-0.0","0","0","92143","","421","","","68","77","","","2","77","training","adjacent","GF","7","6","P.jpg","M.jpg","0","0","1","",""
"","feedback","","html-keyboard-response","511","410088","0.0-1.0-699.0-0.0","0","0","92143","","null","","","null","77","","","","","","","","","","","","","","","",""
"","ITI","","html-keyboard-response","512","411096","0.0-1.0-702.0","0","0","92143","","null","","","null","77","","","","","","","","","","","","","","","NaN",""
"","S1","","html-keyboard-response","513","411351","0.0-1.0-704.0","0","0","92143","","null","","","null","78","","","","","","","","","","","","","","","",""
"","ISI","","html-keyboard-response","514","411504","0.0-1.0-705.0","0","0","92143","","null","","","null","78","NaN","","","","","","","","","","","","","","",""
"","S2","","html-keyboard-response","515","411760","0.0-1.0-706.0","0","0","92143","","null","","","null","78","","NaN","","","","","","","","","","","","","",""
"","response","","html-keyboard-response","516","412152","0.0-1.0-707.0-0.0","0","0","92143","","389","","","68","78","","","2","78","training","adjacent","GF","7","6","P.jpg","M.jpg","0","0","1","",""
"","feedback","","html-keyboard-response","517","413159","0.0-1.0-708.0-0.0","0","0","92143","","null","","","null","78","","","","","","","","","","","","","","","",""
"","ITI","","html-keyboard-response","518","414167","0.0-1.0-711.0","0","0","92143","","null","","","null","78","","","","","","","","","","","","","","","NaN",""
"","S1","","html-keyboard-response","519","414424","0.0-1.0-713.0","0","0","92143","","null","","","null","79","","","","","","","","","","","","","","","",""
"","ISI","","html-keyboard-response","520","414583","0.0-1.0-714.0","0","0","92143","","null","","","null","79","NaN","","","","","","","","","","","","","","",""
"","S2","","html-keyboard-response","521","414840","0.0-1.0-715.0","0","0","92143","","null","","","null","79","","NaN","","","","","","","","","","","","","",""
"","response","","html-keyboard-response","522","415185","0.0-1.0-716.0-0.0","0","0","92143","","342","","","75","79","","","2","79","training","adjacent","CB","3","2","O.jpg","L.jpg","1","0","0","",""
"","feedback","","html-keyboard-response","523","416191","0.0-1.0-717.0-0.0","0","0","92143","","null","","","null","79","","","","","","","","","","","","","","","",""
"","time_out","","html-keyboard-response","524","418200","0.0-1.0-719.0-0.0","0","0","92143","","null","","","null","79","","","","","","","","","","","","","","","",""
"","ITI","","html-keyboard-response","525","419208","0.0-1.0-720.0","0","0","92143","","null","","","null","79","","","","","","","","","","","","","","","NaN",""
"","S1","","html-keyboard-response","526","419464","0.0-1.0-722.0","0","0","92143","","null","","","null","80","","","","","","","","","","","","","","","",""
"","ISI","","html-keyboard-response","527","419624","0.0-1.0-723.0","0","0","92143","","null","","","null","80","NaN","","","","","","","","","","","","","","",""
"","S2","","html-keyboard-response","528","419880","0.0-1.0-724.0","0","0","92143","","null","","","null","80","","NaN","","","","","","","","","","","","","",""
"","response","","html-keyboard-response","529","420192","0.0-1.0-725.0-0.0","0","0","92143","","309","","","75","80","","","2","80","training","adjacent","EF","5","6","Q.jpg","M.jpg","1","1","1","",""
"","feedback","","html-keyboard-response","530","421200","0.0-1.0-726.0-0.0","0","0","92143","","null","","","null","80","","","","","","","","","","","","","","","",""
"","ITI","","html-keyboard-response","531","422208","0.0-1.0-729.0","0","0","92143","","null","","","null","80","","","","","","","","","","","","","","","NaN",""
"","S1","","html-keyboard-response","532","422464","0.0-1.0-731.0","0","0","92143","","null","","","null","81","","","","","","","","","","","","","","","",""
"","ISI","","html-keyboard-response","533","422624","0.0-1.0-732.0","0","0","92143","","null","","","null","81","NaN","","","","","","","","","","","","","","",""
"","S2","","html-keyboard-response","534","422880","0.0-1.0-733.0","0","0","92143","","null","","","null","81","","NaN","","","","","","","","","","","","","",""
"","response","","html-keyboard-response","535","423568","0.0-1.0-734.0-0.0","0","0","92143","","685","","","75","81","","","2","81","training","adjacent","BC","2","3","L.jpg","O.jpg","1","1","1","",""
"","feedback","","html-keyboard-response","536","424576","0.0-1.0-735.0-0.0","0","0","92143","","null","","","null","81","","","","","","","","","","","","","","","",""
"","ITI","","html-keyboard-response","537","425584","0.0-1.0-738.0","0","0","92143","","null","","","null","81","","","","","","","","","","","","","","","NaN",""
"","S1","","html-keyboard-response","538","425840","0.0-1.0-740.0","0","0","92143","","null","","","null","82","","","","","","","","","","","","","","","",""
"","ISI","","html-keyboard-response","539","426000","0.0-1.0-741.0","0","0","92143","","null","","","null","82","NaN","","","","","","","","","","","","","","",""
"","S2","","html-keyboard-response","540","426256","0.0-1.0-742.0","0","0","92143","","null","","","null","82","","NaN","","","","","","","","","","","","","",""
"","response","","html-keyboard-response","541","426745","0.0-1.0-743.0-0.0","0","0","92143","","486","","","75","82","","","2","82","training","adjacent","BC","2","3","L.jpg","O.jpg","1","1","1","",""
"","feedback","","html-keyboard-response","542","427754","0.0-1.0-744.0-0.0","0","0","92143","","null","","","null","82","","","","","","","","","","","","","","","",""
"","ITI","","html-keyboard-response","543","428762","0.0-1.0-747.0","0","0","92143","","null","","","null","82","","","","","","","","","","","","","","","NaN",""
"","S1","","html-keyboard-response","544","429018","0.0-1.0-749.0","0","0","92143","","null","","","null","83","","","","","","","","","","","","","","","",""
"","ISI","","html-keyboard-response","545","429178","0.0-1.0-750.0","0","0","92143","","null","","","null","83","NaN","","","","","","","","","","","","","","",""
"","S2","","html-keyboard-response","546","429434","0.0-1.0-751.0","0","0","92143","","null","","","null","83","","NaN","","","","","","","","","","","","","",""
"","response","","html-keyboard-response","547","429777","0.0-1.0-752.0-0.0","0","0","92143","","341","","","68","83","","","2","83","training","adjacent","CD","3","4","O.jpg","R.jpg","0","1","0","",""
"","feedback","","html-keyboard-response","548","430786","0.0-1.0-753.0-0.0","0","0","92143","","null","","","null","83","","","","","","","","","","","","","","","",""
"","time_out","","html-keyboard-response","549","432794","0.0-1.0-755.0-0.0","0","0","92143","","null","","","null","83","","","","","","","","","","","","","","","",""
"","ITI","","html-keyboard-response","550","433802","0.0-1.0-756.0","0","0","92143","","null","","","null","83","","","","","","","","","","","","","","","NaN",""
"","S1","","html-keyboard-response","551","434058","0.0-1.0-758.0","0","0","92143","","null","","","null","84","","","","","","","","","","","","","","","",""
"","ISI","","html-keyboard-response","552","434218","0.0-1.0-759.0","0","0","92143","","null","","","null","84","NaN","","","","","","","","","","","","","","",""
"","S2","","html-keyboard-response","553","434474","0.0-1.0-760.0","0","0","92143","","null","","","null","84","","NaN","","","","","","","","","","","","","",""
"","response","","html-keyboard-response","554","434786","0.0-1.0-761.0-0.0","0","0","92143","","308","","","75","84","","","2","84","training","adjacent","EF","5","6","Q.jpg","M.jpg","1","1","1","",""
"","feedback","","html-keyboard-response","555","435794","0.0-1.0-762.0-0.0","0","0","92143","","null","","","null","84","","","","","","","","","","","","","","","",""
"","ITI","","html-keyboard-response","556","436802","0.0-1.0-765.0","0","0","92143","","null","","","null","84","","","","","","","","","","","","","","","NaN",""
"","S1","","html-keyboard-response","557","437058","0.0-1.0-767.0","0","0","92143","","null","","","null","85","","","","","","","","","","","","","","","",""
"","ISI","","html-keyboard-response","558","437218","0.0-1.0-768.0","0","0","92143","","null","","","null","85","NaN","","","","","","","","","","","","","","",""
"","S2","","html-keyboard-response","559","437474","0.0-1.0-769.0","0","0","92143","","null","","","null","85","","NaN","","","","","","","","","","","","","",""
"","response","","html-keyboard-response","560","437978","0.0-1.0-770.0-0.0","0","0","92143","","501","","","68","85","","","2","85","training","adjacent","BA","2","1","L.jpg","N.jpg","0","0","1","",""
"","feedback","","html-keyboard-response","561","438986","0.0-1.0-771.0-0.0","0","0","92143","","null","","","null","85","","","","","","","","","","","","","","","",""
"","ITI","","html-keyboard-response","562","439994","0.0-1.0-774.0","0","0","92143","","null","","","null","85","","","","","","","","","","","","","","","NaN",""
"","S1","","html-keyboard-response","563","440250","0.0-1.0-776.0","0","0","92143","","null","","","null","86","","","","","","","","","","","","","","","",""
"","ISI","","html-keyboard-response","564","440410","0.0-1.0-777.0","0","0","92143","","null","","","null","86","NaN","","","","","","","","","","","","","","",""
"","S2","","html-keyboard-response","565","440666","0.0-1.0-778.0","0","0","92143","","null","","","null","86","","NaN","","","","","","","","","","","","","",""
"","response","","html-keyboard-response","566","441089","0.0-1.0-779.0-0.0","0","0","92143","","420","","","68","86","","","2","86","training","adjacent","CD","3","4","O.jpg","R.jpg","0","1","0","",""
"","feedback","","html-keyboard-response","567","442098","0.0-1.0-780.0-0.0","0","0","92143","","null","","","null","86","","","","","","","","","","","","","","","",""
"","time_out","","html-keyboard-response","568","444106","0.0-1.0-782.0-0.0","0","0","92143","","null","","","null","86","","","","","","","","","","","","","","","",""
"","ITI","","html-keyboard-response","569","445115","0.0-1.0-783.0","0","0","92143","","null","","","null","86","","","","","","","","","","","","","","","NaN",""
"","S1","","html-keyboard-response","570","445370","0.0-1.0-785.0","0","0","92143","","null","","","null","87","","","","","","","","","","","","","","","",""
"","ISI","","html-keyboard-response","571","445529","0.0-1.0-786.0","0","0","92143","","null","","","null","87","NaN","","","","","","","","","","","","","","",""
"","S2","","html-keyboard-response","572","445786","0.0-1.0-787.0","0","0","92143","","null","","","null","87","","NaN","","","","","","","","","","","","","",""
"","response","","html-keyboard-response","573","446385","0.0-1.0-788.0-0.0","0","0","92143","","596","","","75","87","","","2","87","training","adjacent","ED","5","4","Q.jpg","R.jpg","1","0","0","",""
"","feedback","","html-keyboard-response","574","447394","0.0-1.0-789.0-0.0","0","0","92143","","null","","","null","87","","","","","","","","","","","","","","","",""
"","time_out","","html-keyboard-response","575","449401","0.0-1.0-791.0-0.0","0","0","92143","","null","","","null","87","","","","","","","","","","","","","","","",""
"","ITI","","html-keyboard-response","576","450410","0.0-1.0-792.0","0","0","92143","","null","","","null","87","","","","","","","","","","","","","","","NaN",""
"","S1","","html-keyboard-response","577","450666","0.0-1.0-794.0","0","0","92143","","null","","","null","88","","","","","","","","","","","","","","","",""
"","ISI","","html-keyboard-response","578","450827","0.0-1.0-795.0","0","0","92143","","null","","","null","88","NaN","","","","","","","","","","","","","","",""
"","S2","","html-keyboard-response","579","451082","0.0-1.0-796.0","0","0","92143","","null","","","null","88","","NaN","","","","","","","","","","","","","",""
"","response","","html-keyboard-response","580","451298","0.0-1.0-797.0-0.0","0","0","92143","","213","","","68","88","","","2","88","training","adjacent","DC","4","3","R.jpg","O.jpg","0","0","1","",""
"","feedback","","html-keyboard-response","581","452306","0.0-1.0-798.0-0.0","0","0","92143","","null","","","null","88","","","","","","","","","","","","","","","",""
"","ITI","","html-keyboard-response","582","453314","0.0-1.0-801.0","0","0","92143","","null","","","null","88","","","","","","","","","","","","","","","NaN",""
