"success","ttype","start_time","trial_type","trial_index","time_elapsed","internal_node_id","warning","missed_checkup","PID","view_history","rt","responses","repeat_instructions","key_press","index","keypress_isi","keypress_S2","block","trial_num","phase","group_type","pair_type","S1_stim","S2_stim","S1_img","S2_img","S1_chosen","S1_higher","accuracy","keypress_iti","total_bonus_tally"
"true","full_screen","d08042022hr1926","fullscreen","0","15997","0.0-0.0","0","0","25840","","","","","","","","","","","","","","","","","","","","","",""
"","instructions","","instructions","1","113298","0.0-1.0-0.0-0.0","0","0","25840","[{""page_index"":0,""viewing_time"":3225},{""page_index"":1,""viewing_time"":65562},{""page_index"":2,""viewing_time"":23651},{""page_index"":3,""viewing_time"":4861}]","97300","","","","","","","","","","","","","","","","","","","",""
"","comprehension_check","","survey-multi-choice","2","134963","0.0-1.0-0.0-1.0","0","0","25840","","21661","{""Q0"":""True"",""Q1"":""D"",""Q2"":""Only when the screen 'MAKE A CHOICE' is shown"",""Q3"":""Green mark"",""Q4"":""either D or K""}","1","","","","","","","","","","","","","","","","","",""
"","missed_instruction_checkup","","html-keyboard-response","3","137802","0.0-1.0-0.0-2.0-0.0","0","1","25840","","2834","","","32","","","","","","","","","","","","","","","","",""
"","instructions","","instructions","4","145400","0.0-1.0-0.1-0.1","0","0","25840","[{""page_index"":0,""viewing_time"":2532},{""page_index"":1,""viewing_time"":3243},{""page_index"":2,""viewing_time"":699},{""page_index"":3,""viewing_time"":1122}]","7596","","","","","","","","","","","","","","","","","","","",""
"","comprehension_check","","survey-multi-choice","5","172270","0.0-1.0-0.1-1.1","0","0","25840","","26867","{""Q0"":""False"",""Q1"":""D"",""Q2"":""Only when the screen 'MAKE A CHOICE' is shown"",""Q3"":""Green mark"",""Q4"":""either D or K""}","1","","","","","","","","","","","","","","","","","",""
"","missed_instruction_checkup","","html-keyboard-response","6","174452","0.0-1.0-0.1-2.1-0.1","0","1","25840","","2178","","","32","","","","","","","","","","","","","","","","",""
"","instructions","","instructions","7","183813","0.0-1.0-0.2-0.2","0","0","25840","[{""page_index"":0,""viewing_time"":1813},{""page_index"":1,""viewing_time"":1518},{""page_index"":2,""viewing_time"":4764},{""page_index"":3,""viewing_time"":1265}]","9360","","","","","","","","","","","","","","","","","","","",""
"","comprehension_check","","survey-multi-choice","8","217402","0.0-1.0-0.2-1.2","0","0","25840","","33586","{""Q0"":""True"",""Q1"":""D"",""Q2"":""Once the second image appears and while the screen 'MAKE A CHOICE' is shown"",""Q3"":""Green mark"",""Q4"":""either D or K""}","0","","","","","","","","","","","","","","","","","",""
"","start_exp","","html-keyboard-response","9","222989","0.0-1.0-1.0","0","0","25840","","5583","","","32","","","","","","","","","","","","","","","","",""
"","S1","","html-keyboard-response","10","223241","0.0-1.0-2.0","0","0","25840","","null","","","null","0","","","","","","","","","","","","","","","",""
"","ISI","","html-keyboard-response","11","225243","0.0-1.0-3.0","0","0","25840","","772","","","75","0","k","","","","","","","","","","","","","","",""
"","S2","","html-keyboard-response","12","225495","0.0-1.0-4.0","0","0","25840","","null","","","null","0","","NaN","","","","","","","","","","","","","",""
"","response","","html-keyboard-response","13","226064","0.0-1.0-5.0-0.0","0","0","25840","","568","","","75","0","","","1","0","training","adjacent","BC","2","3","L.jpg","Q.jpg","0","1","0","",""
"","feedback","","html-keyboard-response","14","227065","0.0-1.0-6.0-0.0","0","0","25840","","null","","","null","0","","","","","","","","","","","","","","","",""
"","time_out","","html-keyboard-response","15","229068","0.0-1.0-8.0-0.0","0","0","25840","","null","","","null","0","","","","","","","","","","","","","","","",""
"","ITI","","html-keyboard-response","16","230069","0.0-1.0-9.0","0","0","25840","","null","","","null","0","","","","","","","","","","","","","","","NaN",""
"","S1","","html-keyboard-response","17","230321","0.0-1.0-11.0","0","0","25840","","null","","","null","1","","","","","","","","","","","","","","","",""
"","ISI","","html-keyboard-response","18","232322","0.0-1.0-12.0","0","0","25840","","null","","","null","1","NaN","","","","","","","","","","","","","","",""
"","S2","","html-keyboard-response","19","232574","0.0-1.0-13.0","0","0","25840","","null","","","null","1","","NaN","","","","","","","","","","","","","",""
"","response","","html-keyboard-response","20","233299","0.0-1.0-14.0-0.0","0","0","25840","","723","","","68","1","","","1","1","training","adjacent","ED","5","4","O.jpg","M.jpg","1","0","0","",""
"","feedback","","html-keyboard-response","21","234301","0.0-1.0-15.0-0.0","0","0","25840","","null","","","null","1","","","","","","","","","","","","","","","",""
"","time_out","","html-keyboard-response","22","236303","0.0-1.0-17.0-0.0","0","0","25840","","null","","","null","1","","","","","","","","","","","","","","","",""
"","ITI","","html-keyboard-response","23","237304","0.0-1.0-18.0","0","0","25840","","null","","","null","1","","","","","","","","","","","","","","","NaN",""
"","S1","","html-keyboard-response","24","237556","0.0-1.0-20.0","0","0","25840","","null","","","null","2","","","","","","","","","","","","","","","",""
"","ISI","","html-keyboard-response","25","239558","0.0-1.0-21.0","0","0","25840","","null","","","null","2","NaN","","","","","","","","","","","","","","",""
"","S2","","html-keyboard-response","26","239810","0.0-1.0-22.0","0","0","25840","","null","","","null","2","","NaN","","","","","","","","","","","","","",""
"","response","","html-keyboard-response","27","240883","0.0-1.0-23.0-0.0","0","0","25840","","1072","","","75","2","","","1","2","training","adjacent","GF","7","6","P.jpg","N.jpg","0","0","1","",""
"","feedback","","html-keyboard-response","28","241884","0.0-1.0-24.0-0.0","0","0","25840","","null","","","null","2","","","","","","","","","","","","","","","",""
"","ITI","","html-keyboard-response","29","242885","0.0-1.0-27.0","0","0","25840","","null","","","null","2","","","","","","","","","","","","","","","NaN",""
"","S1","","html-keyboard-response","30","243138","0.0-1.0-29.0","0","0","25840","","null","","","null","3","","","","","","","","","","","","","","","",""
"","ISI","","html-keyboard-response","31","245139","0.0-1.0-30.0","0","0","25840","","null","","","null","3","NaN","","","","","","","","","","","","","","",""
"","S2","","html-keyboard-response","32","245392","0.0-1.0-31.0","0","0","25840","","null","","","null","3","","NaN","","","","","","","","","","","","","",""
"","response","","html-keyboard-response","33","246942","0.0-1.0-32.0-0.0","0","0","25840","","1549","","","68","3","","","1","3","training","adjacent","FG","6","7","N.jpg","P.jpg","1","1","1","",""
"","feedback","","html-keyboard-response","34","247944","0.0-1.0-33.0-0.0","0","0","25840","","null","","","null","3","","","","","","","","","","","","","","","",""
"","ITI","","html-keyboard-response","35","248946","0.0-1.0-36.0","0","0","25840","","null","","","null","3","","","","","","","","","","","","","","","NaN",""
"","S1","","html-keyboard-response","36","249198","0.0-1.0-38.0","0","0","25840","","null","","","null","4","","","","","","","","","","","","","","","",""
"","ISI","","html-keyboard-response","37","251199","0.0-1.0-39.0","0","0","25840","","null","","","null","4","NaN","","","","","","","","","","","","","","",""
"","S2","","html-keyboard-response","38","251451","0.0-1.0-40.0","0","0","25840","","null","","","null","4","","NaN","","","","","","","","","","","","","",""
"","response","","html-keyboard-response","39","252137","0.0-1.0-41.0-0.0","0","0","25840","","684","","","75","4","","","1","4","training","adjacent","DC","4","3","M.jpg","Q.jpg","0","0","1","",""
"","feedback","","html-keyboard-response","40","253139","0.0-1.0-42.0-0.0","0","0","25840","","null","","","null","4","","","","","","","","","","","","","","","",""
"","ITI","","html-keyboard-response","41","254140","0.0-1.0-45.0","0","0","25840","","null","","","null","4","","","","","","","","","","","","","","","NaN",""
"","S1","","html-keyboard-response","42","254392","0.0-1.0-47.0","0","0","25840","","null","","","null","5","","","","","","","","","","","","","","","",""
"","ISI","","html-keyboard-response","43","256393","0.0-1.0-48.0","0","0","25840","","null","","","null","5","NaN","","","","","","","","","","","","","","",""
"","S2","","html-keyboard-response","44","256645","0.0-1.0-49.0","0","0","25840","","null","","","null","5","","NaN","","","","","","","","","","","","","",""
"","response","","html-keyboard-response","45","258274","0.0-1.0-50.0-0.0","0","0","25840","","1628","","","75","5","","","1","5","training","adjacent","BA","2","1","L.jpg","R.jpg","0","0","1","",""
"","feedback","","html-keyboard-response","46","259276","0.0-1.0-51.0-0.0","0","0","25840","","null","","","null","5","","","","","","","","","","","","","","","",""
"","ITI","","html-keyboard-response","47","260277","0.0-1.0-54.0","0","0","25840","","null","","","null","5","","","","","","","","","","","","","","","NaN",""
"","S1","","html-keyboard-response","48","260529","0.0-1.0-56.0","0","0","25840","","null","","","null","6","","","","","","","","","","","","","","","",""
"","ISI","","html-keyboard-response","49","262532","0.0-1.0-57.0","0","0","25840","","null","","","null","6","NaN","","","","","","","","","","","","","","",""
"","S2","","html-keyboard-response","50","262795","0.0-1.0-58.0","0","0","25840","","null","","","null","6","","NaN","","","","","","","","","","","","","",""
"","response","","html-keyboard-response","51","263750","0.0-1.0-59.0-0.0","0","0","25840","","954","","","75","6","","","1","6","training","adjacent","GF","7","6","P.jpg","N.jpg","0","0","1","",""
"","feedback","","html-keyboard-response","52","264751","0.0-1.0-60.0-0.0","0","0","25840","","null","","","null","6","","","","","","","","","","","","","","","",""
"","ITI","","html-keyboard-response","53","265752","0.0-1.0-63.0","0","0","25840","","null","","","null","6","","","","","","","","","","","","","","","NaN",""
"","S1","","html-keyboard-response","54","266007","0.0-1.0-65.0","0","0","25840","","null","","","null","7","","","","","","","","","","","","","","","",""
"","ISI","","html-keyboard-response","55","268009","0.0-1.0-66.0","0","0","25840","","null","","","null","7","NaN","","","","","","","","","","","","","","",""
"","S2","","html-keyboard-response","56","268261","0.0-1.0-67.0","0","0","25840","","null","","","null","7","","NaN","","","","","","","","","","","","","",""
"","response","","html-keyboard-response","57","269910","0.0-1.0-68.0-0.0","0","0","25840","","1648","","","68","7","","","1","7","training","adjacent","CD","3","4","Q.jpg","M.jpg","1","1","1","",""
"","feedback","","html-keyboard-response","58","270912","0.0-1.0-69.0-0.0","0","0","25840","","null","","","null","7","","","","","","","","","","","","","","","",""
"","ITI","","html-keyboard-response","59","271913","0.0-1.0-72.0","0","0","25840","","null","","","null","7","","","","","","","","","","","","","","","NaN",""
"","S1","","html-keyboard-response","60","272166","0.0-1.0-74.0","0","0","25840","","null","","","null","8","","","","","","","","","","","","","","","",""
"","ISI","","html-keyboard-response","61","274167","0.0-1.0-75.0","0","0","25840","","null","","","null","8","NaN","","","","","","","","","","","","","","",""
"","S2","","html-keyboard-response","62","274419","0.0-1.0-76.0","0","0","25840","","null","","","null","8","","NaN","","","","","","","","","","","","","",""
"","response","","html-keyboard-response","63","275021","0.0-1.0-77.0-0.0","0","0","25840","","600","","","75","8","","","1","8","training","adjacent","DC","4","3","M.jpg","Q.jpg","0","0","1","",""
"","feedback","","html-keyboard-response","64","276023","0.0-1.0-78.0-0.0","0","0","25840","","null","","","null","8","","","","","","","","","","","","","","","",""
"","ITI","","html-keyboard-response","65","277026","0.0-1.0-81.0","0","0","25840","","null","","","null","8","","","","","","","","","","","","","","","NaN",""
"","S1","","html-keyboard-response","66","277278","0.0-1.0-83.0","0","0","25840","","null","","","null","9","","","","","","","","","","","","","","","",""
"","ISI","","html-keyboard-response","67","279279","0.0-1.0-84.0","0","0","25840","","null","","","null","9","NaN","","","","","","","","","","","","","","",""
"","S2","","html-keyboard-response","68","279531","0.0-1.0-85.0","0","0","25840","","null","","","null","9","","NaN","","","","","","","","","","","","","",""
"","response","","html-keyboard-response","69","280081","0.0-1.0-86.0-0.0","0","0","25840","","548","","","68","9","","","1","9","training","adjacent","FG","6","7","N.jpg","P.jpg","1","1","1","",""
"","feedback","","html-keyboard-response","70","281082","0.0-1.0-87.0-0.0","0","0","25840","","null","","","null","9","","","","","","","","","","","","","","","",""
"","ITI","","html-keyboard-response","71","282084","0.0-1.0-90.0","0","0","25840","","null","","","null","9","","","","","","","","","","","","","","","NaN",""
"","S1","","html-keyboard-response","72","282336","0.0-1.0-92.0","0","0","25840","","null","","","null","10","","","","","","","","","","","","","","","",""
"","ISI","","html-keyboard-response","73","284337","0.0-1.0-93.0","0","0","25840","","null","","","null","10","NaN","","","","","","","","","","","","","","",""
"","S2","","html-keyboard-response","74","284589","0.0-1.0-94.0","0","0","25840","","null","","","null","10","","NaN","","","","","","","","","","","","","",""
"","response","","html-keyboard-response","75","285088","0.0-1.0-95.0-0.0","0","0","25840","","498","","","68","10","","","1","10","training","adjacent","CD","3","4","Q.jpg","M.jpg","1","1","1","",""
"","feedback","","html-keyboard-response","76","286090","0.0-1.0-96.0-0.0","0","0","25840","","null","","","null","10","","","","","","","","","","","","","","","",""
"","ITI","","html-keyboard-response","77","287092","0.0-1.0-99.0","0","0","25840","","null","","","null","10","","","","","","","","","","","","","","","NaN",""
"","S1","","html-keyboard-response","78","287344","0.0-1.0-101.0","0","0","25840","","null","","","null","11","","","","","","","","","","","","","","","",""
"","ISI","","html-keyboard-response","79","289345","0.0-1.0-102.0","0","0","25840","","null","","","null","11","NaN","","","","","","","","","","","","","","",""
"","S2","","html-keyboard-response","80","289597","0.0-1.0-103.0","0","0","25840","","null","","","null","11","","NaN","","","","","","","","","","","","","",""
"","response","","html-keyboard-response","81","290230","0.0-1.0-104.0-0.0","0","0","25840","","632","","","68","11","","","1","11","training","adjacent","CB","3","2","Q.jpg","L.jpg","1","0","0","",""
"","feedback","","html-keyboard-response","82","291231","0.0-1.0-105.0-0.0","0","0","25840","","null","","","null","11","","","","","","","","","","","","","","","",""
"","time_out","","html-keyboard-response","83","293233","0.0-1.0-107.0-0.0","0","0","25840","","null","","","null","11","","","","","","","","","","","","","","","",""
"","ITI","","html-keyboard-response","84","294234","0.0-1.0-108.0","0","0","25840","","null","","","null","11","","","","","","","","","","","","","","","NaN",""
"","S1","","html-keyboard-response","85","294486","0.0-1.0-110.0","0","0","25840","","null","","","null","12","","","","","","","","","","","","","","","",""
"","ISI","","html-keyboard-response","86","296487","0.0-1.0-111.0","0","0","25840","","null","","","null","12","NaN","","","","","","","","","","","","","","",""
"","S2","","html-keyboard-response","87","296740","0.0-1.0-112.0","0","0","25840","","null","","","null","12","","NaN","","","","","","","","","","","","","",""
"","response","","html-keyboard-response","88","297060","0.0-1.0-113.0-0.0","0","0","25840","","319","","","68","12","","","1","12","training","adjacent","BA","2","1","L.jpg","R.jpg","1","0","0","",""
"","feedback","","html-keyboard-response","89","298062","0.0-1.0-114.0-0.0","0","0","25840","","null","","","null","12","","","","","","","","","","","","","","","",""
"","time_out","","html-keyboard-response","90","300063","0.0-1.0-116.0-0.0","0","0","25840","","null","","","null","12","","","","","","","","","","","","","","","",""
"","ITI","","html-keyboard-response","91","301064","0.0-1.0-117.0","0","0","25840","","null","","","null","12","","","","","","","","","","","","","","","NaN",""
"","S1","","html-keyboard-response","92","301316","0.0-1.0-119.0","0","0","25840","","null","","","null","13","","","","","","","","","","","","","","","",""
"","ISI","","html-keyboard-response","93","303318","0.0-1.0-120.0","0","0","25840","","null","","","null","13","NaN","","","","","","","","","","","","","","",""
"","S2","","html-keyboard-response","94","303570","0.0-1.0-121.0","0","0","25840","","null","","","null","13","","NaN","","","","","","","","","","","","","",""
"","response","","html-keyboard-response","95","304046","0.0-1.0-122.0-0.0","0","0","25840","","476","","","75","13","","","1","13","training","adjacent","BC","2","3","L.jpg","Q.jpg","0","1","0","",""
"","feedback","","html-keyboard-response","96","305048","0.0-1.0-123.0-0.0","0","0","25840","","null","","","null","13","","","","","","","","","","","","","","","",""
"","time_out","","html-keyboard-response","97","307051","0.0-1.0-125.0-0.0","0","0","25840","","null","","","null","13","","","","","","","","","","","","","","","",""
"","ITI","","html-keyboard-response","98","308053","0.0-1.0-126.0","0","0","25840","","null","","","null","13","","","","","","","","","","","","","","","NaN",""
"","S1","","html-keyboard-response","99","308305","0.0-1.0-128.0","0","0","25840","","null","","","null","14","","","","","","","","","","","","","","","",""
"","ISI","","html-keyboard-response","100","310306","0.0-1.0-129.0","0","0","25840","","null","","","null","14","NaN","","","","","","","","","","","","","","",""
"","S2","","html-keyboard-response","101","310558","0.0-1.0-130.0","0","0","25840","","null","","","null","14","","NaN","","","","","","","","","","","","","",""
"","response","","html-keyboard-response","102","311214","0.0-1.0-131.0-0.0","0","0","25840","","654","","","75","14","","","1","14","training","adjacent","EF","5","6","O.jpg","N.jpg","0","1","0","",""
"","feedback","","html-keyboard-response","103","312227","0.0-1.0-132.0-0.0","0","0","25840","","null","","","null","14","","","","","","","","","","","","","","","",""
"","time_out","","html-keyboard-response","104","314228","0.0-1.0-134.0-0.0","0","0","25840","","null","","","null","14","","","","","","","","","","","","","","","",""
"","ITI","","html-keyboard-response","105","315229","0.0-1.0-135.0","0","0","25840","","null","","","null","14","","","","","","","","","","","","","","","NaN",""
"","S1","","html-keyboard-response","106","315481","0.0-1.0-137.0","0","0","25840","","null","","","null","15","","","","","","","","","","","","","","","",""
"","ISI","","html-keyboard-response","107","317483","0.0-1.0-138.0","0","0","25840","","null","","","null","15","NaN","","","","","","","","","","","","","","",""
"","S2","","html-keyboard-response","108","317735","0.0-1.0-139.0","0","0","25840","","null","","","null","15","","NaN","","","","","","","","","","","","","",""
"","response","","html-keyboard-response","109","318490","0.0-1.0-140.0-0.0","0","0","25840","","754","","","75","15","","","1","15","training","adjacent","BC","2","3","L.jpg","Q.jpg","0","1","0","",""
"","feedback","","html-keyboard-response","110","319491","0.0-1.0-141.0-0.0","0","0","25840","","null","","","null","15","","","","","","","","","","","","","","","",""
"","time_out","","html-keyboard-response","111","321493","0.0-1.0-143.0-0.0","0","0","25840","","null","","","null","15","","","","","","","","","","","","","","","",""
"","ITI","","html-keyboard-response","112","322494","0.0-1.0-144.0","0","0","25840","","null","","","null","15","","","","","","","","","","","","","","","NaN",""
"","S1","","html-keyboard-response","113","322746","0.0-1.0-146.0","0","0","25840","","null","","","null","16","","","","","","","","","","","","","","","",""
"","ISI","","html-keyboard-response","114","324747","0.0-1.0-147.0","0","0","25840","","null","","","null","16","NaN","","","","","","","","","","","","","","",""
"","S2","","html-keyboard-response","115","324999","0.0-1.0-148.0","0","0","25840","","null","","","null","16","","NaN","","","","","","","","","","","","","",""
"","response","","html-keyboard-response","116","325336","0.0-1.0-149.0-0.0","0","0","25840","","335","","","68","16","","","1","16","training","adjacent","ED","5","4","O.jpg","M.jpg","1","0","0","",""
"","feedback","","html-keyboard-response","117","326338","0.0-1.0-150.0-0.0","0","0","25840","","null","","","null","16","","","","","","","","","","","","","","","",""
"","time_out","","html-keyboard-response","118","328339","0.0-1.0-152.0-0.0","0","0","25840","","null","","","null","16","","","","","","","","","","","","","","","",""
"","ITI","","html-keyboard-response","119","329340","0.0-1.0-153.0","0","0","25840","","null","","","null","16","","","","","","","","","","","","","","","NaN",""
"","S1","","html-keyboard-response","120","329592","0.0-1.0-155.0","0","0","25840","","null","","","null","17","","","","","","","","","","","","","","","",""
"","ISI","","html-keyboard-response","121","331594","0.0-1.0-156.0","0","0","25840","","null","","","null","17","NaN","","","","","","","","","","","","","","",""
"","S2","","html-keyboard-response","122","331846","0.0-1.0-157.0","0","0","25840","","null","","","null","17","","NaN","","","","","","","","","","","","","",""
"","response","","html-keyboard-response","123","332470","0.0-1.0-158.0-0.0","0","0","25840","","623","","","68","17","","","1","17","training","adjacent","BA","2","1","L.jpg","R.jpg","1","0","0","",""
"","feedback","","html-keyboard-response","124","333472","0.0-1.0-159.0-0.0","0","0","25840","","null","","","null","17","","","","","","","","","","","","","","","",""
"","time_out","","html-keyboard-response","125","335474","0.0-1.0-161.0-0.0","0","0","25840","","null","","","null","17","","","","","","","","","","","","","","","",""
"","ITI","","html-keyboard-response","126","336476","0.0-1.0-162.0","0","0","25840","","null","","","null","17","","","","","","","","","","","","","","","NaN",""
"","S1","","html-keyboard-response","127","336728","0.0-1.0-164.0","0","0","25840","","null","","","null","18","","","","","","","","","","","","","","","",""
"","ISI","","html-keyboard-response","128","338729","0.0-1.0-165.0","0","0","25840","","null","","","null","18","NaN","","","","","","","","","","","","","","",""
"","S2","","html-keyboard-response","129","338981","0.0-1.0-166.0","0","0","25840","","null","","","null","18","","NaN","","","","","","","","","","","","","",""
"","response","","html-keyboard-response","130","339835","0.0-1.0-167.0-0.0","0","0","25840","","853","","","75","18","","","1","18","training","adjacent","BC","2","3","L.jpg","Q.jpg","0","1","0","",""
"","feedback","","html-keyboard-response","131","340840","0.0-1.0-168.0-0.0","0","0","25840","","null","","","null","18","","","","","","","","","","","","","","","",""
"","time_out","","html-keyboard-response","132","342841","0.0-1.0-170.0-0.0","0","0","25840","","null","","","null","18","","","","","","","","","","","","","","","",""
"","ITI","","html-keyboard-response","133","343842","0.0-1.0-171.0","0","0","25840","","null","","","null","18","","","","","","","","","","","","","","","NaN",""
"","S1","","html-keyboard-response","134","344094","0.0-1.0-173.0","0","0","25840","","null","","","null","19","","","","","","","","","","","","","","","",""
"","ISI","","html-keyboard-response","135","346095","0.0-1.0-174.0","0","0","25840","","null","","","null","19","NaN","","","","","","","","","","","","","","",""
"","S2","","html-keyboard-response","136","346348","0.0-1.0-175.0","0","0","25840","","null","","","null","19","","NaN","","","","","","","","","","","","","",""
"","response","","html-keyboard-response","137","346680","0.0-1.0-176.0-0.0","0","0","25840","","331","","","75","19","","","1","19","training","adjacent","CB","3","2","Q.jpg","L.jpg","0","0","1","",""
"","feedback","","html-keyboard-response","138","347682","0.0-1.0-177.0-0.0","0","0","25840","","null","","","null","19","","","","","","","","","","","","","","","",""
"","ITI","","html-keyboard-response","139","348684","0.0-1.0-180.0","0","0","25840","","null","","","null","19","","","","","","","","","","","","","","","NaN",""
"","S1","","html-keyboard-response","140","348936","0.0-1.0-182.0","0","0","25840","","null","","","null","20","","","","","","","","","","","","","","","",""
"","ISI","","html-keyboard-response","141","350937","0.0-1.0-183.0","0","0","25840","","null","","","null","20","NaN","","","","","","","","","","","","","","",""
"","S2","","html-keyboard-response","142","351189","0.0-1.0-184.0","0","0","25840","","null","","","null","20","","NaN","","","","","","","","","","","","","",""
"","response","","html-keyboard-response","143","351940","0.0-1.0-185.0-0.0","0","0","25840","","750","","","75","20","","","1","20","training","adjacent","EF","5","6","O.jpg","N.jpg","0","1","0","",""
"","feedback","","html-keyboard-response","144","352942","0.0-1.0-186.0-0.0","0","0","25840","","null","","","null","20","","","","","","","","","","","","","","","",""
"","time_out","","html-keyboard-response","145","354943","0.0-1.0-188.0-0.0","0","0","25840","","null","","","null","20","","","","","","","","","","","","","","","",""
"","ITI","","html-keyboard-response","146","355944","0.0-1.0-189.0","0","0","25840","","null","","","null","20","","","","","","","","","","","","","","","NaN",""
"","S1","","html-keyboard-response","147","356197","0.0-1.0-191.0","0","0","25840","","null","","","null","21","","","","","","","","","","","","","","","",""
"","ISI","","html-keyboard-response","148","358198","0.0-1.0-192.0","0","0","25840","","null","","","null","21","NaN","","","","","","","","","","","","","","",""
"","S2","","html-keyboard-response","149","358450","0.0-1.0-193.0","0","0","25840","","null","","","null","21","","NaN","","","","","","","","","","","","","",""
"","response","","html-keyboard-response","150","358802","0.0-1.0-194.0-0.0","0","0","25840","","351","","","68","21","","","1","21","training","adjacent","EF","5","6","O.jpg","N.jpg","1","1","1","",""
"","feedback","","html-keyboard-response","151","359804","0.0-1.0-195.0-0.0","0","0","25840","","null","","","null","21","","","","","","","","","","","","","","","",""
"","ITI","","html-keyboard-response","152","360806","0.0-1.0-198.0","0","0","25840","","null","","","null","21","","","","","","","","","","","","","","","NaN",""
"","S1","","html-keyboard-response","153","361057","0.0-1.0-200.0","0","0","25840","","null","","","null","22","","","","","","","","","","","","","","","",""
"","ISI","","html-keyboard-response","154","363067","0.0-1.0-201.0","0","0","25840","","null","","","null","22","NaN","","","","","","","","","","","","","","",""
"","S2","","html-keyboard-response","155","363320","0.0-1.0-202.0","0","0","25840","","null","","","null","22","","NaN","","","","","","","","","","","","","",""
"","response","","html-keyboard-response","156","363770","0.0-1.0-203.0-0.0","0","0","25840","","449","","","68","22","","","1","22","training","adjacent","ED","5","4","O.jpg","M.jpg","1","0","0","",""
"","feedback","","html-keyboard-response","157","364772","0.0-1.0-204.0-0.0","0","0","25840","","null","","","null","22","","","","","","","","","","","","","","","",""
"","time_out","","html-keyboard-response","158","366774","0.0-1.0-206.0-0.0","0","0","25840","","null","","","null","22","","","","","","","","","","","","","","","",""
"","ITI","","html-keyboard-response","159","367775","0.0-1.0-207.0","0","0","25840","","null","","","null","22","","","","","","","","","","","","","","","NaN",""
"","S1","","html-keyboard-response","160","368027","0.0-1.0-209.0","0","0","25840","","null","","","null","23","","","","","","","","","","","","","","","",""
"","ISI","","html-keyboard-response","161","370028","0.0-1.0-210.0","0","0","25840","","null","","","null","23","NaN","","","","","","","","","","","","","","",""
"","S2","","html-keyboard-response","162","370280","0.0-1.0-211.0","0","0","25840","","null","","","null","23","","NaN","","","","","","","","","","","","","",""
"","response","","html-keyboard-response","163","370611","0.0-1.0-212.0-0.0","0","0","25840","","329","","","68","23","","","1","23","training","adjacent","DE","4","5","M.jpg","O.jpg","1","1","1","",""
"","feedback","","html-keyboard-response","164","371614","0.0-1.0-213.0-0.0","0","0","25840","","null","","","null","23","","","","","","","","","","","","","","","",""
"","ITI","","html-keyboard-response","165","372616","0.0-1.0-216.0","0","0","25840","","null","","","null","23","","","","","","","","","","","","","","","NaN",""
"","S1","","html-keyboard-response","166","372868","0.0-1.0-218.0","0","0","25840","","null","","","null","24","","","","","","","","","","","","","","","",""
"","ISI","","html-keyboard-response","167","374869","0.0-1.0-219.0","0","0","25840","","null","","","null","24","NaN","","","","","","","","","","","","","","",""
"","S2","","html-keyboard-response","168","375121","0.0-1.0-220.0","0","0","25840","","null","","","null","24","","NaN","","","","","","","","","","","","","",""
"","response","","html-keyboard-response","169","375550","0.0-1.0-221.0-0.0","0","0","25840","","428","","","75","24","","","1","24","training","adjacent","GF","7","6","P.jpg","N.jpg","0","0","1","",""
"","feedback","","html-keyboard-response","170","376553","0.0-1.0-222.0-0.0","0","0","25840","","null","","","null","24","","","","","","","","","","","","","","","",""
"","ITI","","html-keyboard-response","171","377555","0.0-1.0-225.0","0","0","25840","","null","","","null","24","","","","","","","","","","","","","","","NaN",""
"","S1","","html-keyboard-response","172","377807","0.0-1.0-227.0","0","0","25840","","null","","","null","25","","","","","","","","","","","","","","","",""
"","ISI","","html-keyboard-response","173","379808","0.0-1.0-228.0","0","0","25840","","null","","","null","25","NaN","","","","","","","","","","","","","","",""
"","S2","","html-keyboard-response","174","380060","0.0-1.0-229.0","0","0","25840","","null","","","null","25","","NaN","","","","","","","","","","","","","",""
"","response","","html-keyboard-response","175","380614","0.0-1.0-230.0-0.0","0","0","25840","","552","","","75","25","","","1","25","training","adjacent","ED","5","4","O.jpg","M.jpg","0","0","1","",""
"","feedback","","html-keyboard-response","176","381624","0.0-1.0-231.0-0.0","0","0","25840","","null","","","null","25","","","","","","","","","","","","","","","",""
"","ITI","","html-keyboard-response","177","382626","0.0-1.0-234.0","0","0","25840","","null","","","null","25","","","","","","","","","","","","","","","NaN",""
"","S1","","html-keyboard-response","178","382878","0.0-1.0-236.0","0","0","25840","","null","","","null","26","","","","","","","","","","","","","","","",""
"","ISI","","html-keyboard-response","179","384880","0.0-1.0-237.0","0","0","25840","","null","","","null","26","NaN","","","","","","","","","","","","","","",""
"","S2","","html-keyboard-response","180","385132","0.0-1.0-238.0","0","0","25840","","null","","","null","26","","NaN","","","","","","","","","","","","","",""
"","response","","html-keyboard-response","181","385541","0.0-1.0-239.0-0.0","0","0","25840","","407","","","68","26","","","1","26","training","adjacent","AB","1","2","R.jpg","L.jpg","1","1","1","",""
"","feedback","","html-keyboard-response","182","386543","0.0-1.0-240.0-0.0","0","0","25840","","null","","","null","26","","","","","","","","","","","","","","","",""
"","ITI","","html-keyboard-response","183","387545","0.0-1.0-243.0","0","0","25840","","null","","","null","26","","","","","","","","","","","","","","","NaN",""
"","S1","","html-keyboard-response","184","387797","0.0-1.0-245.0","0","0","25840","","null","","","null","27","","","","","","","","","","","","","","","",""
"","ISI","","html-keyboard-response","185","389798","0.0-1.0-246.0","0","0","25840","","null","","","null","27","NaN","","","","","","","","","","","","","","",""
"","S2","","html-keyboard-response","186","390050","0.0-1.0-247.0","0","0","25840","","null","","","null","27","","NaN","","","","","","","","","","","","","",""
"","response","","html-keyboard-response","187","390665","0.0-1.0-248.0-0.0","0","0","25840","","614","","","75","27","","","1","27","training","adjacent","CD","3","4","Q.jpg","M.jpg","0","1","0","",""
"","feedback","","html-keyboard-response","188","391668","0.0-1.0-249.0-0.0","0","0","25840","","null","","","null","27","","","","","","","","","","","","","","","",""
"","time_out","","html-keyboard-response","189","393669","0.0-1.0-251.0-0.0","0","0","25840","","null","","","null","27","","","","","","","","","","","","","","","",""
"","ITI","","html-keyboard-response","190","394671","0.0-1.0-252.0","0","0","25840","","null","","","null","27","","","","","","","","","","","","","","","NaN",""
"","S1","","html-keyboard-response","191","394935","0.0-1.0-254.0","0","0","25840","","null","","","null","28","","","","","","","","","","","","","","","",""
"","ISI","","html-keyboard-response","192","396946","0.0-1.0-255.0","0","0","25840","","null","","","null","28","NaN","","","","","","","","","","","","","","",""
"","S2","","html-keyboard-response","193","397198","0.0-1.0-256.0","0","0","25840","","null","","","null","28","","NaN","","","","","","","","","","","","","",""
"","response","","html-keyboard-response","194","397669","0.0-1.0-257.0-0.0","0","0","25840","","470","","","75","28","","","1","28","training","adjacent","GF","7","6","P.jpg","N.jpg","0","0","1","",""
"","feedback","","html-keyboard-response","195","398671","0.0-1.0-258.0-0.0","0","0","25840","","null","","","null","28","","","","","","","","","","","","","","","",""
"","ITI","","html-keyboard-response","196","399673","0.0-1.0-261.0","0","0","25840","","null","","","null","28","","","","","","","","","","","","","","","NaN",""
"","S1","","html-keyboard-response","197","399925","0.0-1.0-263.0","0","0","25840","","null","","","null","29","","","","","","","","","","","","","","","",""
"","ISI","","html-keyboard-response","198","401927","0.0-1.0-264.0","0","0","25840","","null","","","null","29","NaN","","","","","","","","","","","","","","",""
"","S2","","html-keyboard-response","199","402179","0.0-1.0-265.0","0","0","25840","","null","","","null","29","","NaN","","","","","","","","","","","","","",""
"","response","","html-keyboard-response","200","402867","0.0-1.0-266.0-0.0","0","0","25840","","687","","","75","29","","","1","29","training","adjacent","FE","6","5","N.jpg","O.jpg","0","0","1","",""
"","feedback","","html-keyboard-response","201","403869","0.0-1.0-267.0-0.0","0","0","25840","","null","","","null","29","","","","","","","","","","","","","","","",""
"","ITI","","html-keyboard-response","202","404871","0.0-1.0-270.0","0","0","25840","","null","","","null","29","","","","","","","","","","","","","","","NaN",""
"","S1","","html-keyboard-response","203","405123","0.0-1.0-272.0","0","0","25840","","null","","","null","30","","","","","","","","","","","","","","","",""
"","ISI","","html-keyboard-response","204","407125","0.0-1.0-273.0","0","0","25840","","null","","","null","30","NaN","","","","","","","","","","","","","","",""
"","S2","","html-keyboard-response","205","407377","0.0-1.0-274.0","0","0","25840","","null","","","null","30","","NaN","","","","","","","","","","","","","",""
"","response","","html-keyboard-response","206","408023","0.0-1.0-275.0-0.0","0","0","25840","","645","","","75","30","","","1","30","training","adjacent","CD","3","4","Q.jpg","M.jpg","0","1","0","",""
"","feedback","","html-keyboard-response","207","409025","0.0-1.0-276.0-0.0","0","0","25840","","null","","","null","30","","","","","","","","","","","","","","","",""
"","time_out","","html-keyboard-response","208","411027","0.0-1.0-278.0-0.0","0","0","25840","","null","","","null","30","","","","","","","","","","","","","","","",""
"","ITI","","html-keyboard-response","209","412028","0.0-1.0-279.0","0","0","25840","","null","","","null","30","","","","","","","","","","","","","","","NaN",""
"","S1","","html-keyboard-response","210","412280","0.0-1.0-281.0","0","0","25840","","null","","","null","31","","","","","","","","","","","","","","","",""
"","ISI","","html-keyboard-response","211","414281","0.0-1.0-282.0","0","0","25840","","null","","","null","31","NaN","","","","","","","","","","","","","","",""
"","S2","","html-keyboard-response","212","414533","0.0-1.0-283.0","0","0","25840","","null","","","null","31","","NaN","","","","","","","","","","","","","",""
"","response","","html-keyboard-response","213","415370","0.0-1.0-284.0-0.0","0","0","25840","","835","","","75","31","","","1","31","training","adjacent","DE","4","5","M.jpg","O.jpg","0","1","0","",""
"","feedback","","html-keyboard-response","214","416372","0.0-1.0-285.0-0.0","0","0","25840","","null","","","null","31","","","","","","","","","","","","","","","",""
"","time_out","","html-keyboard-response","215","418373","0.0-1.0-287.0-0.0","0","0","25840","","null","","","null","31","","","","","","","","","","","","","","","",""
"","ITI","","html-keyboard-response","216","419376","0.0-1.0-288.0","0","0","25840","","null","","","null","31","","","","","","","","","","","","","","","NaN",""
"","S1","","html-keyboard-response","217","419628","0.0-1.0-290.0","0","0","25840","","null","","","null","32","","","","","","","","","","","","","","","",""
"","ISI","","html-keyboard-response","218","421629","0.0-1.0-291.0","0","0","25840","","null","","","null","32","NaN","","","","","","","","","","","","","","",""
"","S2","","html-keyboard-response","219","421881","0.0-1.0-292.0","0","0","25840","","null","","","null","32","","NaN","","","","","","","","","","","","","",""
"","response","","html-keyboard-response","220","422678","0.0-1.0-293.0-0.0","0","0","25840","","797","","","68","32","","","1","32","training","adjacent","FG","6","7","N.jpg","P.jpg","1","1","1","",""
"","feedback","","html-keyboard-response","221","423680","0.0-1.0-294.0-0.0","0","0","25840","","null","","","null","32","","","","","","","","","","","","","","","",""
"","ITI","","html-keyboard-response","222","424681","0.0-1.0-297.0","0","0","25840","","null","","","null","32","","","","","","","","","","","","","","","NaN",""
"","S1","","html-keyboard-response","223","424934","0.0-1.0-299.0","0","0","25840","","null","","","null","33","","","","","","","","","","","","","","","",""
"","ISI","","html-keyboard-response","224","426935","0.0-1.0-300.0","0","0","25840","","null","","","null","33","NaN","","","","","","","","","","","","","","",""
"","S2","","html-keyboard-response","225","427187","0.0-1.0-301.0","0","0","25840","","null","","","null","33","","NaN","","","","","","","","","","","","","",""
"","response","","html-keyboard-response","226","428209","0.0-1.0-302.0-0.0","0","0","25840","","1021","","","68","33","","","1","33","training","adjacent","EF","5","6","O.jpg","N.jpg","1","1","1","",""
"","feedback","","html-keyboard-response","227","429211","0.0-1.0-303.0-0.0","0","0","25840","","null","","","null","33","","","","","","","","","","","","","","","",""
"","ITI","","html-keyboard-response","228","430213","0.0-1.0-306.0","0","0","25840","","null","","","null","33","","","","","","","","","","","","","","","NaN",""
"","S1","","html-keyboard-response","229","430466","0.0-1.0-308.0","0","0","25840","","null","","","null","34","","","","","","","","","","","","","","","",""
"","ISI","","html-keyboard-response","230","432467","0.0-1.0-309.0","0","0","25840","","null","","","null","34","NaN","","","","","","","","","","","","","","",""
"","S2","","html-keyboard-response","231","432719","0.0-1.0-310.0","0","0","25840","","null","","","null","34","","NaN","","","","","","","","","","","","","",""
"","response","","html-keyboard-response","232","433446","0.0-1.0-311.0-0.0","0","0","25840","","727","","","75","34","","","1","34","training","adjacent","FE","6","5","N.jpg","O.jpg","0","0","1","",""
"","feedback","","html-keyboard-response","233","434448","0.0-1.0-312.0-0.0","0","0","25840","","null","","","null","34","","","","","","","","","","","","","","","",""
"","ITI","","html-keyboard-response","234","435451","0.0-1.0-315.0","0","0","25840","","null","","","null","34","","","","","","","","","","","","","","","NaN",""
"","S1","","html-keyboard-response","235","435703","0.0-1.0-317.0","0","0","25840","","null","","","null","35","","","","","","","","","","","","","","","",""
"","ISI","","html-keyboard-response","236","437704","0.0-1.0-318.0","0","0","25840","","null","","","null","35","NaN","","","","","","","","","","","","","","",""
"","S2","","html-keyboard-response","237","437956","0.0-1.0-319.0","0","0","25840","","null","","","null","35","","NaN","","","","","","","","","","","","","",""
"","response","","html-keyboard-response","238","438769","0.0-1.0-320.0-0.0","0","0","25840","","812","","","75","35","","","1","35","training","adjacent","FE","6","5","N.jpg","O.jpg","0","0","1","",""
"","feedback","","html-keyboard-response","239","439771","0.0-1.0-321.0-0.0","0","0","25840","","null","","","null","35","","","","","","","","","","","","","","","",""
"","ITI","","html-keyboard-response","240","440773","0.0-1.0-324.0","0","0","25840","","null","","","null","35","","","","","","","","","","","","","","","NaN",""
"","S1","","html-keyboard-response","241","441025","0.0-1.0-326.0","0","0","25840","","null","","","null","36","","","","","","","","","","","","","","","",""
"","ISI","","html-keyboard-response","242","443026","0.0-1.0-327.0","0","0","25840","","null","","","null","36","NaN","","","","","","","","","","","","","","",""
"","S2","","html-keyboard-response","243","443278","0.0-1.0-328.0","0","0","25840","","null","","","null","36","","NaN","","","","","","","","","","","","","",""
"","response","","html-keyboard-response","244","443787","0.0-1.0-329.0-0.0","0","0","25840","","507","","","75","36","","","1","36","training","adjacent","FE","6","5","N.jpg","O.jpg","0","0","1","",""
"","feedback","","html-keyboard-response","245","444789","0.0-1.0-330.0-0.0","0","0","25840","","null","","","null","36","","","","","","","","","","","","","","","",""
"","ITI","","html-keyboard-response","246","445792","0.0-1.0-333.0","0","0","25840","","null","","","null","36","","","","","","","","","","","","","","","NaN",""
"","S1","","html-keyboard-response","247","446044","0.0-1.0-335.0","0","0","25840","","null","","","null","37","","","","","","","","","","","","","","","",""
"","ISI","","html-keyboard-response","248","448045","0.0-1.0-336.0","0","0","25840","","null","","","null","37","NaN","","","","","","","","","","","","","","",""
"","S2","","html-keyboard-response","249","448297","0.0-1.0-337.0","0","0","25840","","null","","","null","37","","NaN","","","","","","","","","","","","","",""
"","response","","html-keyboard-response","250","449091","0.0-1.0-338.0-0.0","0","0","25840","","792","","","75","37","","","1","37","training","adjacent","BA","2","1","L.jpg","R.jpg","0","0","1","",""
"","feedback","","html-keyboard-response","251","450093","0.0-1.0-339.0-0.0","0","0","25840","","null","","","null","37","","","","","","","","","","","","","","","",""
"","ITI","","html-keyboard-response","252","451095","0.0-1.0-342.0","0","0","25840","","null","","","null","37","","","","","","","","","","","","","","","NaN",""
"","S1","","html-keyboard-response","253","451347","0.0-1.0-344.0","0","0","25840","","null","","","null","38","","","","","","","","","","","","","","","",""
"","ISI","","html-keyboard-response","254","453348","0.0-1.0-345.0","0","0","25840","","null","","","null","38","NaN","","","","","","","","","","","","","","",""
"","S2","","html-keyboard-response","255","453600","0.0-1.0-346.0","0","0","25840","","null","","","null","38","","NaN","","","","","","","","","","","","","",""
"","response","","html-keyboard-response","256","454181","0.0-1.0-347.0-0.0","0","0","25840","","579","","","75","38","","","1","38","training","adjacent","CB","3","2","Q.jpg","L.jpg","0","0","1","",""
"","feedback","","html-keyboard-response","257","455184","0.0-1.0-348.0-0.0","0","0","25840","","null","","","null","38","","","","","","","","","","","","","","","",""
"","ITI","","html-keyboard-response","258","456187","0.0-1.0-351.0","0","0","25840","","null","","","null","38","","","","","","","","","","","","","","","NaN",""
"","S1","","html-keyboard-response","259","456439","0.0-1.0-353.0","0","0","25840","","null","","","null","39","","","","","","","","","","","","","","","",""
"","ISI","","html-keyboard-response","260","458440","0.0-1.0-354.0","0","0","25840","","null","","","null","39","NaN","","","","","","","","","","","","","","",""
"","S2","","html-keyboard-response","261","458692","0.0-1.0-355.0","0","0","25840","","null","","","null","39","","NaN","","","","","","","","","","","","","",""
"","response","","html-keyboard-response","262","459146","0.0-1.0-356.0-0.0","0","0","25840","","452","","","68","39","","","1","39","training","adjacent","DC","4","3","M.jpg","Q.jpg","1","0","0","",""
"","feedback","","html-keyboard-response","263","460149","0.0-1.0-357.0-0.0","0","0","25840","","null","","","null","39","","","","","","","","","","","","","","","",""
"","time_out","","html-keyboard-response","264","462151","0.0-1.0-359.0-0.0","0","0","25840","","null","","","null","39","","","","","","","","","","","","","","","",""
"","ITI","","html-keyboard-response","265","463152","0.0-1.0-360.0","0","0","25840","","null","","","null","39","","","","","","","","","","","","","","","NaN",""
"","S1","","html-keyboard-response","266","463413","0.0-1.0-362.0","0","0","25840","","null","","","null","40","","","","","","","","","","","","","","","",""
"","ISI","","html-keyboard-response","267","465415","0.0-1.0-363.0","0","0","25840","","null","","","null","40","NaN","","","","","","","","","","","","","","",""
"","S2","","html-keyboard-response","268","465667","0.0-1.0-364.0","0","0","25840","","null","","","null","40","","NaN","","","","","","","","","","","","","",""
"","response","","html-keyboard-response","269","466584","0.0-1.0-365.0-0.0","0","0","25840","","916","","","68","40","","","1","40","training","adjacent","AB","1","2","R.jpg","L.jpg","1","1","1","",""
"","feedback","","html-keyboard-response","270","467586","0.0-1.0-366.0-0.0","0","0","25840","","null","","","null","40","","","","","","","","","","","","","","","",""
"","ITI","","html-keyboard-response","271","468588","0.0-1.0-369.0","0","0","25840","","null","","","null","40","","","","","","","","","","","","","","","NaN",""
"","S1","","html-keyboard-response","272","468840","0.0-1.0-371.0","0","0","25840","","null","","","null","41","","","","","","","","","","","","","","","",""
"","ISI","","html-keyboard-response","273","470842","0.0-1.0-372.0","0","0","25840","","null","","","null","41","NaN","","","","","","","","","","","","","","",""
"","S2","","html-keyboard-response","274","471094","0.0-1.0-373.0","0","0","25840","","null","","","null","41","","NaN","","","","","","","","","","","","","",""
"","response","","html-keyboard-response","275","471599","0.0-1.0-374.0-0.0","0","0","25840","","504","","","68","41","","","1","41","training","adjacent","FG","6","7","N.jpg","P.jpg","1","1","1","",""
"","feedback","","html-keyboard-response","276","472601","0.0-1.0-375.0-0.0","0","0","25840","","null","","","null","41","","","","","","","","","","","","","","","",""
"","ITI","","html-keyboard-response","277","473603","0.0-1.0-378.0","0","0","25840","","null","","","null","41","","","","","","","","","","","","","","","NaN",""
"","S1","","html-keyboard-response","278","473855","0.0-1.0-380.0","0","0","25840","","null","","","null","42","","","","","","","","","","","","","","","",""
"","ISI","","html-keyboard-response","279","475857","0.0-1.0-381.0","0","0","25840","","null","","","null","42","NaN","","","","","","","","","","","","","","",""
"","S2","","html-keyboard-response","280","476109","0.0-1.0-382.0","0","0","25840","","null","","","null","42","","NaN","","","","","","","","","","","","","",""
"","response","","html-keyboard-response","281","476476","0.0-1.0-383.0-0.0","0","0","25840","","366","","","75","42","","","1","42","training","adjacent","DC","4","3","M.jpg","Q.jpg","0","0","1","",""
"","feedback","","html-keyboard-response","282","477478","0.0-1.0-384.0-0.0","0","0","25840","","null","","","null","42","","","","","","","","","","","","","","","",""
"","ITI","","html-keyboard-response","283","478487","0.0-1.0-387.0","0","0","25840","","null","","","null","42","","","","","","","","","","","","","","","NaN",""
"","S1","","html-keyboard-response","284","478740","0.0-1.0-389.0","0","0","25840","","null","","","null","43","","","","","","","","","","","","","","","",""
"","ISI","","html-keyboard-response","285","480742","0.0-1.0-390.0","0","0","25840","","null","","","null","43","NaN","","","","","","","","","","","","","","",""
"","S2","","html-keyboard-response","286","480994","0.0-1.0-391.0","0","0","25840","","null","","","null","43","","NaN","","","","","","","","","","","","","",""
"","response","","html-keyboard-response","287","481752","0.0-1.0-392.0-0.0","0","0","25840","","757","","","75","43","","","1","43","training","adjacent","AB","1","2","R.jpg","L.jpg","0","1","0","",""
"","feedback","","html-keyboard-response","288","482758","0.0-1.0-393.0-0.0","0","0","25840","","null","","","null","43","","","","","","","","","","","","","","","",""
"","time_out","","html-keyboard-response","289","484761","0.0-1.0-395.0-0.0","0","0","25840","","null","","","null","43","","","","","","","","","","","","","","","",""
"","ITI","","html-keyboard-response","290","485762","0.0-1.0-396.0","0","0","25840","","null","","","null","43","","","","","","","","","","","","","","","NaN",""
"","S1","","html-keyboard-response","291","486014","0.0-1.0-398.0","0","0","25840","","null","","","null","44","","","","","","","","","","","","","","","",""
"","ISI","","html-keyboard-response","292","488015","0.0-1.0-399.0","0","0","25840","","null","","","null","44","NaN","","","","","","","","","","","","","","",""
"","S2","","html-keyboard-response","293","488267","0.0-1.0-400.0","0","0","25840","","null","","","null","44","","NaN","","","","","","","","","","","","","",""
"","response","","html-keyboard-response","294","489376","0.0-1.0-401.0-0.0","0","0","25840","","1107","","","68","44","","","1","44","training","adjacent","DE","4","5","M.jpg","O.jpg","1","1","1","",""
"","feedback","","html-keyboard-response","295","490378","0.0-1.0-402.0-0.0","0","0","25840","","null","","","null","44","","","","","","","","","","","","","","","",""
"","ITI","","html-keyboard-response","296","491380","0.0-1.0-405.0","0","0","25840","","null","","","null","44","","","","","","","","","","","","","","","NaN",""
"","S1","","html-keyboard-response","297","491632","0.0-1.0-407.0","0","0","25840","","null","","","null","45","","","","","","","","","","","","","","","",""
"","ISI","","html-keyboard-response","298","493633","0.0-1.0-408.0","0","0","25840","","null","","","null","45","NaN","","","","","","","","","","","","","","",""
"","S2","","html-keyboard-response","299","493885","0.0-1.0-409.0","0","0","25840","","null","","","null","45","","NaN","","","","","","","","","","","","","",""
"","response","","html-keyboard-response","300","494436","0.0-1.0-410.0-0.0","0","0","25840","","549","","","75","45","","","1","45","training","adjacent","DE","4","5","M.jpg","O.jpg","0","1","0","",""
"","feedback","","html-keyboard-response","301","495438","0.0-1.0-411.0-0.0","0","0","25840","","null","","","null","45","","","","","","","","","","","","","","","",""
"","time_out","","html-keyboard-response","302","497439","0.0-1.0-413.0-0.0","0","0","25840","","null","","","null","45","","","","","","","","","","","","","","","",""
"","ITI","","html-keyboard-response","303","498441","0.0-1.0-414.0","0","0","25840","","null","","","null","45","","","","","","","","","","","","","","","NaN",""
"","S1","","html-keyboard-response","304","498698","0.0-1.0-416.0","0","0","25840","","null","","","null","46","","","","","","","","","","","","","","","",""
"","ISI","","html-keyboard-response","305","500699","0.0-1.0-417.0","0","0","25840","","null","","","null","46","NaN","","","","","","","","","","","","","","",""
"","S2","","html-keyboard-response","306","500951","0.0-1.0-418.0","0","0","25840","","null","","","null","46","","NaN","","","","","","","","","","","","","",""
"","response","","html-keyboard-response","307","502237","0.0-1.0-419.0-0.0","0","0","25840","","1285","","","68","46","","","1","46","training","adjacent","AB","1","2","R.jpg","L.jpg","1","1","1","",""
"","feedback","","html-keyboard-response","308","503239","0.0-1.0-420.0-0.0","0","0","25840","","null","","","null","46","","","","","","","","","","","","","","","",""
"","ITI","","html-keyboard-response","309","504251","0.0-1.0-423.0","0","0","25840","","null","","","null","46","","","","","","","","","","","","","","","NaN",""
"","S1","","html-keyboard-response","310","504503","0.0-1.0-425.0","0","0","25840","","null","","","null","47","","","","","","","","","","","","","","","",""
"","ISI","","html-keyboard-response","311","506505","0.0-1.0-426.0","0","0","25840","","null","","","null","47","NaN","","","","","","","","","","","","","","",""
"","S2","","html-keyboard-response","312","506757","0.0-1.0-427.0","0","0","25840","","null","","","null","47","","NaN","","","","","","","","","","","","","",""
"","response","","html-keyboard-response","313","507224","0.0-1.0-428.0-0.0","0","0","25840","","466","","","75","47","","","1","47","training","adjacent","CB","3","2","Q.jpg","L.jpg","0","0","1","",""
"","feedback","","html-keyboard-response","314","508226","0.0-1.0-429.0-0.0","0","0","25840","","null","","","null","47","","","","","","","","","","","","","","","",""
"","ITI","","html-keyboard-response","315","509228","0.0-1.0-432.0","0","0","25840","","null","","","null","47","","","","","","","","","","","","","","","NaN",""
"","block_over","","html-keyboard-response","316","514840","0.0-1.0-433.0-0.0","0","0","25840","","5611","","","32","47","","","","","","","","","","","","","","","",""
"","S1","","html-keyboard-response","317","515092","0.0-1.0-434.0","0","0","25840","","null","","","null","48","","","","","","","","","","","","","","","",""
"","ISI","","html-keyboard-response","318","517093","0.0-1.0-435.0","0","0","25840","","null","","","null","48","NaN","","","","","","","","","","","","","","",""
"","S2","","html-keyboard-response","319","517345","0.0-1.0-436.0","0","0","25840","","null","","","null","48","","NaN","","","","","","","","","","","","","",""
"","response","","html-keyboard-response","320","518051","0.0-1.0-437.0-0.0","0","0","25840","","705","","","75","48","","","2","48","training","adjacent","DE","4","5","M.jpg","O.jpg","0","1","0","",""
"","feedback","","html-keyboard-response","321","519053","0.0-1.0-438.0-0.0","0","0","25840","","null","","","null","48","","","","","","","","","","","","","","","",""
"","time_out","","html-keyboard-response","322","521055","0.0-1.0-440.0-0.0","0","0","25840","","null","","","null","48","","","","","","","","","","","","","","","",""
"","ITI","","html-keyboard-response","323","522056","0.0-1.0-441.0","0","0","25840","","null","","","null","48","","","","","","","","","","","","","","","NaN",""
"","S1","","html-keyboard-response","324","522308","0.0-1.0-443.0","0","0","25840","","null","","","null","49","","","","","","","","","","","","","","","",""
"","ISI","","html-keyboard-response","325","524309","0.0-1.0-444.0","0","0","25840","","null","","","null","49","NaN","","","","","","","","","","","","","","",""
"","S2","","html-keyboard-response","326","524562","0.0-1.0-445.0","0","0","25840","","null","","","null","49","","NaN","","","","","","","","","","","","","",""
"","response","","html-keyboard-response","327","524980","0.0-1.0-446.0-0.0","0","0","25840","","417","","","75","49","","","2","49","training","adjacent","CB","3","2","Q.jpg","L.jpg","0","0","1","",""
"","feedback","","html-keyboard-response","328","525982","0.0-1.0-447.0-0.0","0","0","25840","","null","","","null","49","","","","","","","","","","","","","","","",""
"","ITI","","html-keyboard-response","329","526984","0.0-1.0-450.0","0","0","25840","","null","","","null","49","","","","","","","","","","","","","","","NaN",""
"","S1","","html-keyboard-response","330","527236","0.0-1.0-452.0","0","0","25840","","null","","","null","50","","","","","","","","","","","","","","","",""
"","ISI","","html-keyboard-response","331","529238","0.0-1.0-453.0","0","0","25840","","null","","","null","50","NaN","","","","","","","","","","","","","","",""
"","S2","","html-keyboard-response","332","529490","0.0-1.0-454.0","0","0","25840","","null","","","null","50","","NaN","","","","","","","","","","","","","",""
"","response","","html-keyboard-response","333","530021","0.0-1.0-455.0-0.0","0","0","25840","","530","","","75","50","","","2","50","training","adjacent","GF","7","6","P.jpg","N.jpg","0","0","1","",""
"","feedback","","html-keyboard-response","334","531023","0.0-1.0-456.0-0.0","0","0","25840","","null","","","null","50","","","","","","","","","","","","","","","",""
"","ITI","","html-keyboard-response","335","532025","0.0-1.0-459.0","0","0","25840","","null","","","null","50","","","","","","","","","","","","","","","NaN",""
"","S1","","html-keyboard-response","336","532277","0.0-1.0-461.0","0","0","25840","","null","","","null","51","","","","","","","","","","","","","","","",""
"","ISI","","html-keyboard-response","337","534279","0.0-1.0-462.0","0","0","25840","","null","","","null","51","NaN","","","","","","","","","","","","","","",""
"","S2","","html-keyboard-response","338","534531","0.0-1.0-463.0","0","0","25840","","null","","","null","51","","NaN","","","","","","","","","","","","","",""
"","response","","html-keyboard-response","339","534843","0.0-1.0-464.0-0.0","0","0","25840","","311","","","75","51","","","2","51","training","adjacent","CD","3","4","Q.jpg","M.jpg","0","1","0","",""
"","feedback","","html-keyboard-response","340","535845","0.0-1.0-465.0-0.0","0","0","25840","","null","","","null","51","","","","","","","","","","","","","","","",""
"","time_out","","html-keyboard-response","341","537846","0.0-1.0-467.0-0.0","0","0","25840","","null","","","null","51","","","","","","","","","","","","","","","",""
"","ITI","","html-keyboard-response","342","538849","0.0-1.0-468.0","0","0","25840","","null","","","null","51","","","","","","","","","","","","","","","NaN",""
"","S1","","html-keyboard-response","343","539101","0.0-1.0-470.0","0","0","25840","","null","","","null","52","","","","","","","","","","","","","","","",""
"","ISI","","html-keyboard-response","344","541102","0.0-1.0-471.0","0","0","25840","","null","","","null","52","NaN","","","","","","","","","","","","","","",""
"","S2","","html-keyboard-response","345","541354","0.0-1.0-472.0","0","0","25840","","null","","","null","52","","NaN","","","","","","","","","","","","","",""
"","response","","html-keyboard-response","346","542050","0.0-1.0-473.0-0.0","0","0","25840","","695","","","75","52","","","2","52","training","adjacent","CB","3","2","Q.jpg","L.jpg","0","0","1","",""
"","feedback","","html-keyboard-response","347","543053","0.0-1.0-474.0-0.0","0","0","25840","","null","","","null","52","","","","","","","","","","","","","","","",""
"","ITI","","html-keyboard-response","348","544055","0.0-1.0-477.0","0","0","25840","","null","","","null","52","","","","","","","","","","","","","","","NaN",""
"","S1","","html-keyboard-response","349","544307","0.0-1.0-479.0","0","0","25840","","null","","","null","53","","","","","","","","","","","","","","","",""
"","ISI","","html-keyboard-response","350","546308","0.0-1.0-480.0","0","0","25840","","null","","","null","53","NaN","","","","","","","","","","","","","","",""
"","S2","","html-keyboard-response","351","546560","0.0-1.0-481.0","0","0","25840","","null","","","null","53","","NaN","","","","","","","","","","","","","",""
"","response","","html-keyboard-response","352","547131","0.0-1.0-482.0-0.0","0","0","25840","","569","","","68","53","","","2","53","training","adjacent","DC","4","3","M.jpg","Q.jpg","1","0","0","",""
"","feedback","","html-keyboard-response","353","548132","0.0-1.0-483.0-0.0","0","0","25840","","null","","","null","53","","","","","","","","","","","","","","","",""
"","time_out","","html-keyboard-response","354","550134","0.0-1.0-485.0-0.0","0","0","25840","","null","","","null","53","","","","","","","","","","","","","","","",""
"","ITI","","html-keyboard-response","355","551135","0.0-1.0-486.0","0","0","25840","","null","","","null","53","","","","","","","","","","","","","","","NaN",""
"","S1","","html-keyboard-response","356","551387","0.0-1.0-488.0","0","0","25840","","null","","","null","54","","","","","","","","","","","","","","","",""
"","ISI","","html-keyboard-response","357","553389","0.0-1.0-489.0","0","0","25840","","null","","","null","54","NaN","","","","","","","","","","","","","","",""
"","S2","","html-keyboard-response","358","553641","0.0-1.0-490.0","0","0","25840","","null","","","null","54","","NaN","","","","","","","","","","","","","",""
"","response","","html-keyboard-response","359","554759","0.0-1.0-491.0-0.0","0","0","25840","","1117","","","68","54","","","2","54","training","adjacent","ED","5","4","O.jpg","M.jpg","1","0","0","",""
"","feedback","","html-keyboard-response","360","555761","0.0-1.0-492.0-0.0","0","0","25840","","null","","","null","54","","","","","","","","","","","","","","","",""
"","time_out","","html-keyboard-response","361","557763","0.0-1.0-494.0-0.0","0","0","25840","","null","","","null","54","","","","","","","","","","","","","","","",""
"","ITI","","html-keyboard-response","362","558766","0.0-1.0-495.0","0","0","25840","","null","","","null","54","","","","","","","","","","","","","","","NaN",""
"","S1","","html-keyboard-response","363","559018","0.0-1.0-497.0","0","0","25840","","null","","","null","55","","","","","","","","","","","","","","","",""
"","ISI","","html-keyboard-response","364","561019","0.0-1.0-498.0","0","0","25840","","null","","","null","55","NaN","","","","","","","","","","","","","","",""
"","S2","","html-keyboard-response","365","561271","0.0-1.0-499.0","0","0","25840","","null","","","null","55","","NaN","","","","","","","","","","","","","",""
"","response","","html-keyboard-response","366","562326","0.0-1.0-500.0-0.0","0","0","25840","","1054","","","75","55","","","2","55","training","adjacent","DE","4","5","M.jpg","O.jpg","0","1","0","",""
"","feedback","","html-keyboard-response","367","563327","0.0-1.0-501.0-0.0","0","0","25840","","null","","","null","55","","","","","","","","","","","","","","","",""
"","time_out","","html-keyboard-response","368","565329","0.0-1.0-503.0-0.0","0","0","25840","","null","","","null","55","","","","","","","","","","","","","","","",""
"","ITI","","html-keyboard-response","369","566330","0.0-1.0-504.0","0","0","25840","","null","","","null","55","","","","","","","","","","","","","","","NaN",""
"","S1","","html-keyboard-response","370","566582","0.0-1.0-506.0","0","0","25840","","null","","","null","56","","","","","","","","","","","","","","","",""
"","ISI","","html-keyboard-response","371","568584","0.0-1.0-507.0","0","0","25840","","null","","","null","56","NaN","","","","","","","","","","","","","","",""
"","S2","","html-keyboard-response","372","568836","0.0-1.0-508.0","0","0","25840","","null","","","null","56","","NaN","","","","","","","","","","","","","",""
"","response","","html-keyboard-response","373","569538","0.0-1.0-509.0-0.0","0","0","25840","","701","","","75","56","","","2","56","training","adjacent","GF","7","6","P.jpg","N.jpg","0","0","1","",""
"","feedback","","html-keyboard-response","374","570540","0.0-1.0-510.0-0.0","0","0","25840","","null","","","null","56","","","","","","","","","","","","","","","",""
"","ITI","","html-keyboard-response","375","571542","0.0-1.0-513.0","0","0","25840","","null","","","null","56","","","","","","","","","","","","","","","NaN",""
"","S1","","html-keyboard-response","376","571794","0.0-1.0-515.0","0","0","25840","","null","","","null","57","","","","","","","","","","","","","","","",""
"","ISI","","html-keyboard-response","377","573796","0.0-1.0-516.0","0","0","25840","","null","","","null","57","NaN","","","","","","","","","","","","","","",""
"","S2","","html-keyboard-response","378","574048","0.0-1.0-517.0","0","0","25840","","null","","","null","57","","NaN","","","","","","","","","","","","","",""
"","response","","html-keyboard-response","379","575030","0.0-1.0-518.0-0.0","0","0","25840","","981","","","68","57","","","2","57","training","adjacent","BC","2","3","L.jpg","Q.jpg","1","1","1","",""
"","feedback","","html-keyboard-response","380","576032","0.0-1.0-519.0-0.0","0","0","25840","","null","","","null","57","","","","","","","","","","","","","","","",""
"","ITI","","html-keyboard-response","381","577034","0.0-1.0-522.0","0","0","25840","","null","","","null","57","","","","","","","","","","","","","","","NaN",""
"","S1","","html-keyboard-response","382","577286","0.0-1.0-524.0","0","0","25840","","null","","","null","58","","","","","","","","","","","","","","","",""
"","ISI","","html-keyboard-response","383","579288","0.0-1.0-525.0","0","0","25840","","null","","","null","58","NaN","","","","","","","","","","","","","","",""
"","S2","","html-keyboard-response","384","579540","0.0-1.0-526.0","0","0","25840","","null","","","null","58","","NaN","","","","","","","","","","","","","",""
"","response","","html-keyboard-response","385","580167","0.0-1.0-527.0-0.0","0","0","25840","","626","","","75","58","","","2","58","training","adjacent","FE","6","5","N.jpg","O.jpg","0","0","1","",""
"","feedback","","html-keyboard-response","386","581169","0.0-1.0-528.0-0.0","0","0","25840","","null","","","null","58","","","","","","","","","","","","","","","",""
"","ITI","","html-keyboard-response","387","582171","0.0-1.0-531.0","0","0","25840","","null","","","null","58","","","","","","","","","","","","","","","NaN",""
"","S1","","html-keyboard-response","388","582424","0.0-1.0-533.0","0","0","25840","","null","","","null","59","","","","","","","","","","","","","","","",""
"","ISI","","html-keyboard-response","389","584426","0.0-1.0-534.0","0","0","25840","","null","","","null","59","NaN","","","","","","","","","","","","","","",""
"","S2","","html-keyboard-response","390","584678","0.0-1.0-535.0","0","0","25840","","null","","","null","59","","NaN","","","","","","","","","","","","","",""
"","response","","html-keyboard-response","391","585773","0.0-1.0-536.0-0.0","0","0","25840","","1094","","","68","59","","","2","59","training","adjacent","EF","5","6","O.jpg","N.jpg","1","1","1","",""
"","feedback","","html-keyboard-response","392","586775","0.0-1.0-537.0-0.0","0","0","25840","","null","","","null","59","","","","","","","","","","","","","","","",""
"","ITI","","html-keyboard-response","393","587777","0.0-1.0-540.0","0","0","25840","","null","","","null","59","","","","","","","","","","","","","","","NaN",""
"","S1","","html-keyboard-response","394","588028","0.0-1.0-542.0","0","0","25840","","null","","","null","60","","","","","","","","","","","","","","","",""
"","ISI","","html-keyboard-response","395","590030","0.0-1.0-543.0","0","0","25840","","null","","","null","60","NaN","","","","","","","","","","","","","","",""
"","S2","","html-keyboard-response","396","590282","0.0-1.0-544.0","0","0","25840","","null","","","null","60","","NaN","","","","","","","","","","","","","",""
"","response","","html-keyboard-response","397","590691","0.0-1.0-545.0-0.0","0","0","25840","","408","","","68","60","","","2","60","training","adjacent","FG","6","7","N.jpg","P.jpg","1","1","1","",""
"","feedback","","html-keyboard-response","398","591693","0.0-1.0-546.0-0.0","0","0","25840","","null","","","null","60","","","","","","","","","","","","","","","",""
"","ITI","","html-keyboard-response","399","592695","0.0-1.0-549.0","0","0","25840","","null","","","null","60","","","","","","","","","","","","","","","NaN",""
"","S1","","html-keyboard-response","400","592947","0.0-1.0-551.0","0","0","25840","","null","","","null","61","","","","","","","","","","","","","","","",""
"","ISI","","html-keyboard-response","401","594949","0.0-1.0-552.0","0","0","25840","","null","","","null","61","NaN","","","","","","","","","","","","","","",""
"","S2","","html-keyboard-response","402","595201","0.0-1.0-553.0","0","0","25840","","null","","","null","61","","NaN","","","","","","","","","","","","","",""
"","response","","html-keyboard-response","403","595992","0.0-1.0-554.0-0.0","0","0","25840","","790","","","75","61","","","2","61","training","adjacent","DC","4","3","M.jpg","Q.jpg","0","0","1","",""
"","feedback","","html-keyboard-response","404","596994","0.0-1.0-555.0-0.0","0","0","25840","","null","","","null","61","","","","","","","","","","","","","","","",""
"","ITI","","html-keyboard-response","405","597996","0.0-1.0-558.0","0","0","25840","","null","","","null","61","","","","","","","","","","","","","","","NaN",""
"","S1","","html-keyboard-response","406","598249","0.0-1.0-560.0","0","0","25840","","null","","","null","62","","","","","","","","","","","","","","","",""
"","ISI","","html-keyboard-response","407","600250","0.0-1.0-561.0","0","0","25840","","null","","","null","62","NaN","","","","","","","","","","","","","","",""
"","S2","","html-keyboard-response","408","600502","0.0-1.0-562.0","0","0","25840","","null","","","null","62","","NaN","","","","","","","","","","","","","",""
"","response","","html-keyboard-response","409","601140","0.0-1.0-563.0-0.0","0","0","25840","","637","","","75","62","","","2","62","training","adjacent","FE","6","5","N.jpg","O.jpg","0","0","1","",""
"","feedback","","html-keyboard-response","410","602143","0.0-1.0-564.0-0.0","0","0","25840","","null","","","null","62","","","","","","","","","","","","","","","",""
"","ITI","","html-keyboard-response","411","603147","0.0-1.0-567.0","0","0","25840","","null","","","null","62","","","","","","","","","","","","","","","NaN",""
"","S1","","html-keyboard-response","412","603399","0.0-1.0-569.0","0","0","25840","","null","","","null","63","","","","","","","","","","","","","","","",""
"","ISI","","html-keyboard-response","413","605400","0.0-1.0-570.0","0","0","25840","","null","","","null","63","NaN","","","","","","","","","","","","","","",""
"","S2","","html-keyboard-response","414","605652","0.0-1.0-571.0","0","0","25840","","null","","","null","63","","NaN","","","","","","","","","","","","","",""
"","response","","html-keyboard-response","415","606852","0.0-1.0-572.0-0.0","0","0","25840","","1198","","","75","63","","","2","63","training","adjacent","FE","6","5","N.jpg","O.jpg","0","0","1","",""
"","feedback","","html-keyboard-response","416","607853","0.0-1.0-573.0-0.0","0","0","25840","","null","","","null","63","","","","","","","","","","","","","","","",""
"","ITI","","html-keyboard-response","417","608856","0.0-1.0-576.0","0","0","25840","","null","","","null","63","","","","","","","","","","","","","","","NaN",""
"","S1","","html-keyboard-response","418","609108","0.0-1.0-578.0","0","0","25840","","null","","","null","64","","","","","","","","","","","","","","","",""
"","ISI","","html-keyboard-response","419","611109","0.0-1.0-579.0","0","0","25840","","null","","","null","64","NaN","","","","","","","","","","","","","","",""
"","S2","","html-keyboard-response","420","611361","0.0-1.0-580.0","0","0","25840","","null","","","null","64","","NaN","","","","","","","","","","","","","",""
"","response","","html-keyboard-response","421","611865","0.0-1.0-581.0-0.0","0","0","25840","","502","","","68","64","","","2","64","training","adjacent","AB","1","2","R.jpg","L.jpg","1","1","1","",""
"","feedback","","html-keyboard-response","422","612867","0.0-1.0-582.0-0.0","0","0","25840","","null","","","null","64","","","","","","","","","","","","","","","",""
"","ITI","","html-keyboard-response","423","613869","0.0-1.0-585.0","0","0","25840","","null","","","null","64","","","","","","","","","","","","","","","NaN",""
"","S1","","html-keyboard-response","424","614120","0.0-1.0-587.0","0","0","25840","","null","","","null","65","","","","","","","","","","","","","","","",""
"","ISI","","html-keyboard-response","425","616122","0.0-1.0-588.0","0","0","25840","","null","","","null","65","NaN","","","","","","","","","","","","","","",""
"","S2","","html-keyboard-response","426","616374","0.0-1.0-589.0","0","0","25840","","null","","","null","65","","NaN","","","","","","","","","","","","","",""
"","response","","html-keyboard-response","427","617588","0.0-1.0-590.0-0.0","0","0","25840","","1212","","","75","65","","","2","65","training","adjacent","DC","4","3","M.jpg","Q.jpg","0","0","1","",""
"","feedback","","html-keyboard-response","428","618591","0.0-1.0-591.0-0.0","0","0","25840","","null","","","null","65","","","","","","","","","","","","","","","",""
"","ITI","","html-keyboard-response","429","619593","0.0-1.0-594.0","0","0","25840","","null","","","null","65","","","","","","","","","","","","","","","NaN",""
"","S1","","html-keyboard-response","430","619845","0.0-1.0-596.0","0","0","25840","","null","","","null","66","","","","","","","","","","","","","","","",""
"","ISI","","html-keyboard-response","431","621846","0.0-1.0-597.0","0","0","25840","","null","","","null","66","NaN","","","","","","","","","","","","","","",""
"","S2","","html-keyboard-response","432","622098","0.0-1.0-598.0","0","0","25840","","null","","","null","66","","NaN","","","","","","","","","","","","","",""
"","response","","html-keyboard-response","433","622474","0.0-1.0-599.0-0.0","0","0","25840","","373","","","68","66","","","2","66","training","adjacent","FG","6","7","N.jpg","P.jpg","1","1","1","",""
"","feedback","","html-keyboard-response","434","623477","0.0-1.0-600.0-0.0","0","0","25840","","null","","","null","66","","","","","","","","","","","","","","","",""
"","ITI","","html-keyboard-response","435","624478","0.0-1.0-603.0","0","0","25840","","null","","","null","66","","","","","","","","","","","","","","","NaN",""
"","S1","","html-keyboard-response","436","624730","0.0-1.0-605.0","0","0","25840","","null","","","null","67","","","","","","","","","","","","","","","",""
"","ISI","","html-keyboard-response","437","626732","0.0-1.0-606.0","0","0","25840","","null","","","null","67","NaN","","","","","","","","","","","","","","",""
"","S2","","html-keyboard-response","438","626983","0.0-1.0-607.0","0","0","25840","","null","","","null","67","","NaN","","","","","","","","","","","","","",""
"","response","","html-keyboard-response","439","627928","0.0-1.0-608.0-0.0","0","0","25840","","943","","","75","67","","","2","67","training","adjacent","BC","2","3","L.jpg","Q.jpg","0","1","0","",""
"","feedback","","html-keyboard-response","440","628930","0.0-1.0-609.0-0.0","0","0","25840","","null","","","null","67","","","","","","","","","","","","","","","",""
"","time_out","","html-keyboard-response","441","630931","0.0-1.0-611.0-0.0","0","0","25840","","null","","","null","67","","","","","","","","","","","","","","","",""
"","ITI","","html-keyboard-response","442","631932","0.0-1.0-612.0","0","0","25840","","null","","","null","67","","","","","","","","","","","","","","","NaN",""
"","S1","","html-keyboard-response","443","632184","0.0-1.0-614.0","0","0","25840","","null","","","null","68","","","","","","","","","","","","","","","",""
"","ISI","","html-keyboard-response","444","634186","0.0-1.0-615.0","0","0","25840","","null","","","null","68","NaN","","","","","","","","","","","","","","",""
"","S2","","html-keyboard-response","445","634438","0.0-1.0-616.0","0","0","25840","","null","","","null","68","","NaN","","","","","","","","","","","","","",""
"","response","","html-keyboard-response","446","635177","0.0-1.0-617.0-0.0","0","0","25840","","738","","","68","68","","","2","68","training","adjacent","CB","3","2","Q.jpg","L.jpg","1","0","0","",""
"","feedback","","html-keyboard-response","447","636178","0.0-1.0-618.0-0.0","0","0","25840","","null","","","null","68","","","","","","","","","","","","","","","",""
"","time_out","","html-keyboard-response","448","638180","0.0-1.0-620.0-0.0","0","0","25840","","null","","","null","68","","","","","","","","","","","","","","","",""
"","ITI","","html-keyboard-response","449","639181","0.0-1.0-621.0","0","0","25840","","null","","","null","68","","","","","","","","","","","","","","","NaN",""
"","S1","","html-keyboard-response","450","639433","0.0-1.0-623.0","0","0","25840","","null","","","null","69","","","","","","","","","","","","","","","",""
"","ISI","","html-keyboard-response","451","641434","0.0-1.0-624.0","0","0","25840","","null","","","null","69","NaN","","","","","","","","","","","","","","",""
"","S2","","html-keyboard-response","452","641686","0.0-1.0-625.0","0","0","25840","","null","","","null","69","","NaN","","","","","","","","","","","","","",""
"","response","","html-keyboard-response","453","643126","0.0-1.0-626.0-0.0","0","0","25840","","1438","","","75","69","","","2","69","training","adjacent","ED","5","4","O.jpg","M.jpg","0","0","1","",""
"","feedback","","html-keyboard-response","454","644128","0.0-1.0-627.0-0.0","0","0","25840","","null","","","null","69","","","","","","","","","","","","","","","",""
"","ITI","","html-keyboard-response","455","645130","0.0-1.0-630.0","0","0","25840","","null","","","null","69","","","","","","","","","","","","","","","NaN",""
"","S1","","html-keyboard-response","456","645383","0.0-1.0-632.0","0","0","25840","","null","","","null","70","","","","","","","","","","","","","","","",""
"","ISI","","html-keyboard-response","457","647384","0.0-1.0-633.0","0","0","25840","","null","","","null","70","NaN","","","","","","","","","","","","","","",""
"","S2","","html-keyboard-response","458","647637","0.0-1.0-634.0","0","0","25840","","null","","","null","70","","NaN","","","","","","","","","","","","","",""
"","response","","html-keyboard-response","459","648276","0.0-1.0-635.0-0.0","0","0","25840","","638","","","68","70","","","2","70","training","adjacent","EF","5","6","O.jpg","N.jpg","1","1","1","",""
"","feedback","","html-keyboard-response","460","649278","0.0-1.0-636.0-0.0","0","0","25840","","null","","","null","70","","","","","","","","","","","","","","","",""
"","ITI","","html-keyboard-response","461","650280","0.0-1.0-639.0","0","0","25840","","null","","","null","70","","","","","","","","","","","","","","","NaN",""
"","S1","","html-keyboard-response","462","650532","0.0-1.0-641.0","0","0","25840","","null","","","null","71","","","","","","","","","","","","","","","",""
"","ISI","","html-keyboard-response","463","652534","0.0-1.0-642.0","0","0","25840","","null","","","null","71","NaN","","","","","","","","","","","","","","",""
"","S2","","html-keyboard-response","464","652787","0.0-1.0-643.0","0","0","25840","","null","","","null","71","","NaN","","","","","","","","","","","","","",""
"","response","","html-keyboard-response","465","653896","0.0-1.0-644.0-0.0","0","0","25840","","1108","","","75","71","","","2","71","training","adjacent","BA","2","1","L.jpg","R.jpg","0","0","1","",""
"","feedback","","html-keyboard-response","466","654898","0.0-1.0-645.0-0.0","0","0","25840","","null","","","null","71","","","","","","","","","","","","","","","",""
"","ITI","","html-keyboard-response","467","655900","0.0-1.0-648.0","0","0","25840","","null","","","null","71","","","","","","","","","","","","","","","NaN",""
"","S1","","html-keyboard-response","468","656152","0.0-1.0-650.0","0","0","25840","","null","","","null","72","","","","","","","","","","","","","","","",""
"","ISI","","html-keyboard-response","469","658154","0.0-1.0-651.0","0","0","25840","","null","","","null","72","NaN","","","","","","","","","","","","","","",""
"","S2","","html-keyboard-response","470","658406","0.0-1.0-652.0","0","0","25840","","null","","","null","72","","NaN","","","","","","","","","","","","","",""
"","response","","html-keyboard-response","471","659237","0.0-1.0-653.0-0.0","0","0","25840","","830","","","75","72","","","2","72","training","adjacent","CD","3","4","Q.jpg","M.jpg","0","1","0","",""
"","feedback","","html-keyboard-response","472","660239","0.0-1.0-654.0-0.0","0","0","25840","","null","","","null","72","","","","","","","","","","","","","","","",""
"","time_out","","html-keyboard-response","473","662242","0.0-1.0-656.0-0.0","0","0","25840","","null","","","null","72","","","","","","","","","","","","","","","",""
"","ITI","","html-keyboard-response","474","663243","0.0-1.0-657.0","0","0","25840","","null","","","null","72","","","","","","","","","","","","","","","NaN",""
"","S1","","html-keyboard-response","475","663495","0.0-1.0-659.0","0","0","25840","","null","","","null","73","","","","","","","","","","","","","","","",""
"","ISI","","html-keyboard-response","476","665496","0.0-1.0-660.0","0","0","25840","","null","","","null","73","NaN","","","","","","","","","","","","","","",""
"","S2","","html-keyboard-response","477","665748","0.0-1.0-661.0","0","0","25840","","null","","","null","73","","NaN","","","","","","","","","","","","","",""
"","response","","html-keyboard-response","478","666502","0.0-1.0-662.0-0.0","0","0","25840","","752","","","68","73","","","2","73","training","adjacent","CD","3","4","Q.jpg","M.jpg","1","1","1","",""
"","feedback","","html-keyboard-response","479","667504","0.0-1.0-663.0-0.0","0","0","25840","","null","","","null","73","","","","","","","","","","","","","","","",""
"","ITI","","html-keyboard-response","480","668505","0.0-1.0-666.0","0","0","25840","","null","","","null","73","","","","","","","","","","","","","","","NaN",""
"","S1","","html-keyboard-response","481","668757","0.0-1.0-668.0","0","0","25840","","null","","","null","74","","","","","","","","","","","","","","","",""
"","ISI","","html-keyboard-response","482","670758","0.0-1.0-669.0","0","0","25840","","null","","","null","74","NaN","","","","","","","","","","","","","","",""
"","S2","","html-keyboard-response","483","671010","0.0-1.0-670.0","0","0","25840","","null","","","null","74","","NaN","","","","","","","","","","","","","",""
"","response","","html-keyboard-response","484","671781","0.0-1.0-671.0-0.0","0","0","25840","","769","","","75","74","","","2","74","training","adjacent","FE","6","5","N.jpg","O.jpg","0","0","1","",""
"","feedback","","html-keyboard-response","485","672783","0.0-1.0-672.0-0.0","0","0","25840","","null","","","null","74","","","","","","","","","","","","","","","",""
"","ITI","","html-keyboard-response","486","673785","0.0-1.0-675.0","0","0","25840","","null","","","null","74","","","","","","","","","","","","","","","NaN",""
"","S1","","html-keyboard-response","487","674037","0.0-1.0-677.0","0","0","25840","","null","","","null","75","","","","","","","","","","","","","","","",""
"","ISI","","html-keyboard-response","488","676038","0.0-1.0-678.0","0","0","25840","","null","","","null","75","NaN","","","","","","","","","","","","","","",""
"","S2","","html-keyboard-response","489","676290","0.0-1.0-679.0","0","0","25840","","null","","","null","75","","NaN","","","","","","","","","","","","","",""
"","response","","html-keyboard-response","490","677371","0.0-1.0-680.0-0.0","0","0","25840","","1079","","","68","75","","","2","75","training","adjacent","BA","2","1","L.jpg","R.jpg","1","0","0","",""
"","feedback","","html-keyboard-response","491","678373","0.0-1.0-681.0-0.0","0","0","25840","","null","","","null","75","","","","","","","","","","","","","","","",""
"","time_out","","html-keyboard-response","492","680374","0.0-1.0-683.0-0.0","0","0","25840","","null","","","null","75","","","","","","","","","","","","","","","",""
"","ITI","","html-keyboard-response","493","681377","0.0-1.0-684.0","0","0","25840","","null","","","null","75","","","","","","","","","","","","","","","NaN",""
"","S1","","html-keyboard-response","494","681628","0.0-1.0-686.0","0","0","25840","","null","","","null","76","","","","","","","","","","","","","","","",""
"","ISI","","html-keyboard-response","495","683630","0.0-1.0-687.0","0","0","25840","","null","","","null","76","NaN","","","","","","","","","","","","","","",""
"","S2","","html-keyboard-response","496","683882","0.0-1.0-688.0","0","0","25840","","null","","","null","76","","NaN","","","","","","","","","","","","","",""
"","response","","html-keyboard-response","497","684897","0.0-1.0-689.0-0.0","0","0","25840","","1014","","","68","76","","","2","76","training","adjacent","DC","4","3","M.jpg","Q.jpg","1","0","0","",""
"","feedback","","html-keyboard-response","498","685898","0.0-1.0-690.0-0.0","0","0","25840","","null","","","null","76","","","","","","","","","","","","","","","",""
"","time_out","","html-keyboard-response","499","687900","0.0-1.0-692.0-0.0","0","0","25840","","null","","","null","76","","","","","","","","","","","","","","","",""
"","ITI","","html-keyboard-response","500","688901","0.0-1.0-693.0","0","0","25840","","null","","","null","76","","","","","","","","","","","","","","","NaN",""
"","S1","","html-keyboard-response","501","689153","0.0-1.0-695.0","0","0","25840","","null","","","null","77","","","","","","","","","","","","","","","",""
"","ISI","","html-keyboard-response","502","691155","0.0-1.0-696.0","0","0","25840","","null","","","null","77","NaN","","","","","","","","","","","","","","",""
"","S2","","html-keyboard-response","503","691407","0.0-1.0-697.0","0","0","25840","","null","","","null","77","","NaN","","","","","","","","","","","","","",""
"","response","","html-keyboard-response","504","692277","0.0-1.0-698.0-0.0","0","0","25840","","869","","","75","77","","","2","77","training","adjacent","BA","2","1","L.jpg","R.jpg","0","0","1","",""
"","feedback","","html-keyboard-response","505","693279","0.0-1.0-699.0-0.0","0","0","25840","","null","","","null","77","","","","","","","","","","","","","","","",""
"","ITI","","html-keyboard-response","506","694295","0.0-1.0-702.0","0","0","25840","","null","","","null","77","","","","","","","","","","","","","","","NaN",""
"","S1","","html-keyboard-response","507","694547","0.0-1.0-704.0","0","0","25840","","null","","","null","78","","","","","","","","","","","","","","","",""
"","ISI","","html-keyboard-response","508","696549","0.0-1.0-705.0","0","0","25840","","null","","","null","78","NaN","","","","","","","","","","","","","","",""
"","S2","","html-keyboard-response","509","696801","0.0-1.0-706.0","0","0","25840","","null","","","null","78","","NaN","","","","","","","","","","","","","",""
"","response","","html-keyboard-response","510","697677","0.0-1.0-707.0-0.0","0","0","25840","","875","","","68","78","","","2","78","training","adjacent","BC","2","3","L.jpg","Q.jpg","1","1","1","",""
"","feedback","","html-keyboard-response","511","698679","0.0-1.0-708.0-0.0","0","0","25840","","null","","","null","78","","","","","","","","","","","","","","","",""
"","ITI","","html-keyboard-response","512","699681","0.0-1.0-711.0","0","0","25840","","null","","","null","78","","","","","","","","","","","","","","","NaN",""
"","S1","","html-keyboard-response","513","699933","0.0-1.0-713.0","0","0","25840","","null","","","null","79","","","","","","","","","","","","","","","",""
"","ISI","","html-keyboard-response","514","701935","0.0-1.0-714.0","0","0","25840","","null","","","null","79","NaN","","","","","","","","","","","","","","",""
"","S2","","html-keyboard-response","515","702187","0.0-1.0-715.0","0","0","25840","","null","","","null","79","","NaN","","","","","","","","","","","","","",""
"","response","","html-keyboard-response","516","703939","0.0-1.0-716.0-0.0","0","0","25840","","null","","","null","79","","","2","79","training","adjacent","ED","5","4","O.jpg","M.jpg","NaN","0","0","",""
"","too_slow_prompt","","html-keyboard-response","517","704941","0.0-1.0-718.0-0.0","1","0","25840","","null","","","null","","","","","","","","","","","","","","","","",""
"","time_out","","html-keyboard-response","518","706943","0.0-1.0-719.0-0.0","0","0","25840","","null","","","null","79","","","","","","","","","","","","","","","",""
"","ITI","","html-keyboard-response","519","707944","0.0-1.0-720.0","0","0","25840","","null","","","null","79","","","","","","","","","","","","","","","NaN",""
"","S1","","html-keyboard-response","520","708196","0.0-1.0-722.0","0","0","25840","","null","","","null","80","","","","","","","","","","","","","","","",""
"","ISI","","html-keyboard-response","521","710197","0.0-1.0-723.0","0","0","25840","","null","","","null","80","NaN","","","","","","","","","","","","","","",""
"","S2","","html-keyboard-response","522","710347","0.0-1.0-724.0","0","0","25840","","148","","","75","80","","k","2","80","training","adjacent","DE","4","5","M.jpg","O.jpg","0","1","0","",""
"","feedback","","html-keyboard-response","523","711349","0.0-1.0-726.0-0.0","0","0","25840","","null","","","null","80","","","","","","","","","","","","","","","",""
"","time_out","","html-keyboard-response","524","713350","0.0-1.0-728.0-0.0","0","0","25840","","null","","","null","80","","","","","","","","","","","","","","","",""
"","ITI","","html-keyboard-response","525","714351","0.0-1.0-729.0","0","0","25840","","null","","","null","80","","","","","","","","","","","","","","","NaN",""
"","S1","","html-keyboard-response","526","714603","0.0-1.0-731.0","0","0","25840","","null","","","null","81","","","","","","","","","","","","","","","",""
"","ISI","","html-keyboard-response","527","716605","0.0-1.0-732.0","0","0","25840","","null","","","null","81","NaN","","","","","","","","","","","","","","",""
"","S2","","html-keyboard-response","528","716857","0.0-1.0-733.0","0","0","25840","","null","","","null","81","","NaN","","","","","","","","","","","","","",""
"","response","","html-keyboard-response","529","717780","0.0-1.0-734.0-0.0","0","0","25840","","922","","","75","81","","","2","81","training","adjacent","ED","5","4","O.jpg","M.jpg","0","0","1","",""
"","feedback","","html-keyboard-response","530","718782","0.0-1.0-735.0-0.0","0","0","25840","","null","","","null","81","","","","","","","","","","","","","","","",""
"","ITI","","html-keyboard-response","531","719784","0.0-1.0-738.0","0","0","25840","","null","","","null","81","","","","","","","","","","","","","","","NaN",""
"","S1","","html-keyboard-response","532","720036","0.0-1.0-740.0","0","0","25840","","null","","","null","82","","","","","","","","","","","","","","","",""
"","ISI","","html-keyboard-response","533","722038","0.0-1.0-741.0","0","0","25840","","null","","","null","82","NaN","","","","","","","","","","","","","","",""
"","S2","","html-keyboard-response","534","722290","0.0-1.0-742.0","0","0","25840","","null","","","null","82","","NaN","","","","","","","","","","","","","",""
"","response","","html-keyboard-response","535","723091","0.0-1.0-743.0-0.0","0","0","25840","","800","","","68","82","","","2","82","training","adjacent","AB","1","2","R.jpg","L.jpg","1","1","1","",""
"","feedback","","html-keyboard-response","536","724092","0.0-1.0-744.0-0.0","0","0","25840","","null","","","null","82","","","","","","","","","","","","","","","",""
"","ITI","","html-keyboard-response","537","725094","0.0-1.0-747.0","0","0","25840","","null","","","null","82","","","","","","","","","","","","","","","NaN",""
"","S1","","html-keyboard-response","538","725346","0.0-1.0-749.0","0","0","25840","","null","","","null","83","","","","","","","","","","","","","","","",""
"","ISI","","html-keyboard-response","539","727348","0.0-1.0-750.0","0","0","25840","","null","","","null","83","NaN","","","","","","","","","","","","","","",""
"","S2","","html-keyboard-response","540","727600","0.0-1.0-751.0","0","0","25840","","null","","","null","83","","NaN","","","","","","","","","","","","","",""
"","response","","html-keyboard-response","541","728249","0.0-1.0-752.0-0.0","0","0","25840","","648","","","68","83","","","2","83","training","adjacent","FG","6","7","N.jpg","P.jpg","1","1","1","",""
"","feedback","","html-keyboard-response","542","729251","0.0-1.0-753.0-0.0","0","0","25840","","null","","","null","83","","","","","","","","","","","","","","","",""
"","ITI","","html-keyboard-response","543","730253","0.0-1.0-756.0","0","0","25840","","null","","","null","83","","","","","","","","","","","","","","","NaN",""
"","S1","","html-keyboard-response","544","730505","0.0-1.0-758.0","0","0","25840","","null","","","null","84","","","","","","","","","","","","","","","",""
"","ISI","","html-keyboard-response","545","732507","0.0-1.0-759.0","0","0","25840","","null","","","null","84","NaN","","","","","","","","","","","","","","",""
"","S2","","html-keyboard-response","546","732759","0.0-1.0-760.0","0","0","25840","","null","","","null","84","","NaN","","","","","","","","","","","","","",""
"","response","","html-keyboard-response","547","733359","0.0-1.0-761.0-0.0","0","0","25840","","599","","","68","84","","","2","84","training","adjacent","EF","5","6","O.jpg","N.jpg","1","1","1","",""
"","feedback","","html-keyboard-response","548","734360","0.0-1.0-762.0-0.0","0","0","25840","","null","","","null","84","","","","","","","","","","","","","","","",""
"","ITI","","html-keyboard-response","549","735363","0.0-1.0-765.0","0","0","25840","","null","","","null","84","","","","","","","","","","","","","","","NaN",""
"","S1","","html-keyboard-response","550","735615","0.0-1.0-767.0","0","0","25840","","null","","","null","85","","","","","","","","","","","","","","","",""
"","ISI","","html-keyboard-response","551","737617","0.0-1.0-768.0","0","0","25840","","null","","","null","85","NaN","","","","","","","","","","","","","","",""
"","S2","","html-keyboard-response","552","737869","0.0-1.0-769.0","0","0","25840","","null","","","null","85","","NaN","","","","","","","","","","","","","",""
"","response","","html-keyboard-response","553","738732","0.0-1.0-770.0-0.0","0","0","25840","","862","","","75","85","","","2","85","training","adjacent","DE","4","5","M.jpg","O.jpg","0","1","0","",""
"","feedback","","html-keyboard-response","554","739734","0.0-1.0-771.0-0.0","0","0","25840","","null","","","null","85","","","","","","","","","","","","","","","",""
"","time_out","","html-keyboard-response","555","741736","0.0-1.0-773.0-0.0","0","0","25840","","null","","","null","85","","","","","","","","","","","","","","","",""
"","ITI","","html-keyboard-response","556","742737","0.0-1.0-774.0","0","0","25840","","null","","","null","85","","","","","","","","","","","","","","","NaN",""
"","S1","","html-keyboard-response","557","742989","0.0-1.0-776.0","0","0","25840","","null","","","null","86","","","","","","","","","","","","","","","",""
"","ISI","","html-keyboard-response","558","744991","0.0-1.0-777.0","0","0","25840","","null","","","null","86","NaN","","","","","","","","","","","","","","",""
"","S2","","html-keyboard-response","559","745242","0.0-1.0-778.0","0","0","25840","","null","","","null","86","","NaN","","","","","","","","","","","","","",""
"","response","","html-keyboard-response","560","746294","0.0-1.0-779.0-0.0","0","0","25840","","1051","","","75","86","","","2","86","training","adjacent","CB","3","2","Q.jpg","L.jpg","0","0","1","",""
"","feedback","","html-keyboard-response","561","747296","0.0-1.0-780.0-0.0","0","0","25840","","null","","","null","86","","","","","","","","","","","","","","","",""
"","ITI","","html-keyboard-response","562","748298","0.0-1.0-783.0","0","0","25840","","null","","","null","86","","","","","","","","","","","","","","","NaN",""
"","S1","","html-keyboard-response","563","748550","0.0-1.0-785.0","0","0","25840","","null","","","null","87","","","","","","","","","","","","","","","",""
"","ISI","","html-keyboard-response","564","750552","0.0-1.0-786.0","0","0","25840","","null","","","null","87","NaN","","","","","","","","","","","","","","",""
"","S2","","html-keyboard-response","565","750804","0.0-1.0-787.0","0","0","25840","","null","","","null","87","","NaN","","","","","","","","","","","","","",""
"","response","","html-keyboard-response","566","751360","0.0-1.0-788.0-0.0","0","0","25840","","555","","","68","87","","","2","87","training","adjacent","AB","1","2","R.jpg","L.jpg","1","1","1","",""
"","feedback","","html-keyboard-response","567","752362","0.0-1.0-789.0-0.0","0","0","25840","","null","","","null","87","","","","","","","","","","","","","","","",""
"","ITI","","html-keyboard-response","568","753364","0.0-1.0-792.0","0","0","25840","","null","","","null","87","","","","","","","","","","","","","","","NaN",""
"","S1","","html-keyboard-response","569","753616","0.0-1.0-794.0","0","0","25840","","null","","","null","88","","","","","","","","","","","","","","","",""
"","ISI","","html-keyboard-response","570","755618","0.0-1.0-795.0","0","0","25840","","null","","","null","88","NaN","","","","","","","","","","","","","","",""
"","S2","","html-keyboard-response","571","755870","0.0-1.0-796.0","0","0","25840","","null","","","null","88","","NaN","","","","","","","","","","","","","",""
"","response","","html-keyboard-response","572","756303","0.0-1.0-797.0-0.0","0","0","25840","","432","","","68","88","","","2","88","training","adjacent","AB","1","2","R.jpg","L.jpg","1","1","1","",""
"","feedback","","html-keyboard-response","573","757305","0.0-1.0-798.0-0.0","0","0","25840","","null","","","null","88","","","","","","","","","","","","","","","",""
"","ITI","","html-keyboard-response","574","758307","0.0-1.0-801.0","0","0","25840","","null","","","null","88","","","","","","","","","","","","","","","NaN",""
"","S1","","html-keyboard-response","575","758559","0.0-1.0-803.0","0","0","25840","","null","","","null","89","","","","","","","","","","","","","","","",""
"","ISI","","html-keyboard-response","576","760561","0.0-1.0-804.0","0","0","25840","","null","","","null","89","NaN","","","","","","","","","","","","","","",""
"","S2","","html-keyboard-response","577","760813","0.0-1.0-805.0","0","0","25840","","null","","","null","89","","NaN","","","","","","","","","","","","","",""
"","response","","html-keyboard-response","578","761183","0.0-1.0-806.0-0.0","0","0","25840","","369","","","68","89","","","2","89","training","adjacent","FG","6","7","N.jpg","P.jpg","1","1","1","",""
