"success","ttype","start_time","trial_type","trial_index","time_elapsed","internal_node_id","warning","missed_checkup","PID","view_history","rt","responses","repeat_instructions","key_press","index","keypress_isi","keypress_S2","block","trial_num","phase","group_type","pair_type","S1_stim","S2_stim","S1_img","S2_img","S1_chosen","S1_higher","accuracy","keypress_iti","total_bonus_tally"
"true","full_screen","d08012022hr1941","fullscreen","0","10446","0.0-0.0","0","0","38972","","","","","","","","","","","","","","","","","","","","","",""
"","instructions","","instructions","1","48617","0.0-1.0-0.0-0.0","0","0","38972","[{""page_index"":0,""viewing_time"":12257},{""page_index"":1,""viewing_time"":12075},{""page_index"":2,""viewing_time"":11053},{""page_index"":3,""viewing_time"":2779}]","38166","","","","","","","","","","","","","","","","","","","",""
"","comprehension_check","","survey-multi-choice","2","70470","0.0-1.0-0.0-1.0","0","0","38972","","21836","{""Q0"":""True"",""Q1"":""D"",""Q2"":""While the images are shown"",""Q3"":""Green mark"",""Q4"":""either D or K""}","1","","","","","","","","","","","","","","","","","",""
"","missed_instruction_checkup","","html-keyboard-response","3","73862","0.0-1.0-0.0-2.0-0.0","0","1","38972","","3381","","","32","","","","","","","","","","","","","","","","",""
"","instructions","","instructions","4","92897","0.0-1.0-0.1-0.1","0","0","38972","[{""page_index"":0,""viewing_time"":3341},{""page_index"":1,""viewing_time"":9574},{""page_index"":2,""viewing_time"":3594},{""page_index"":3,""viewing_time"":2520}]","19029","","","","","","","","","","","","","","","","","","","",""
"","comprehension_check","","survey-multi-choice","5","113209","0.0-1.0-0.1-1.1","0","0","38972","","20298","{""Q0"":""True"",""Q1"":""D"",""Q2"":""When you see the prompt 'MAKE A CHOICE' after the second image was presented"",""Q3"":""Green mark"",""Q4"":""either D or K""}","0","","","","","","","","","","","","","","","","","",""
"","start_exp","","html-keyboard-response","6","115328","0.0-1.0-1.0","0","0","38972","","2113","","","32","","","","","","","","","","","","","","","","",""
"","S1","","html-keyboard-response","7","115585","0.0-1.0-2.0","0","0","38972","","null","","","null","0","","","","","","","","","","","","","","","",""
"","ISI","","html-keyboard-response","8","117591","0.0-1.0-3.0","0","0","38972","","null","","","null","0","NaN","","","","","","","","","","","","","","",""
"","S2","","html-keyboard-response","9","117852","0.0-1.0-4.0","0","0","38972","","null","","","null","0","","NaN","","","","","","","","","","","","","",""
"","response","","html-keyboard-response","10","119860","0.0-1.0-5.0","0","0","38972","","null","","","null","0","","","1","0","training","adjacent","DE","4","5","O.jpg","Q.jpg","NaN","1","0","",""
"","too_slow_prompt","","html-keyboard-response","11","120866","0.0-1.0-7.0-0.0","1","0","38972","","null","","","null","","","","","","","","","","","","","","","","",""
"","time_out","","html-keyboard-response","12","122872","0.0-1.0-8.0-0.0","0","0","38972","","null","","","null","0","","","","","","","","","","","","","","","",""
"","ITI","","html-keyboard-response","13","123879","0.0-1.0-9.0","0","0","38972","","null","","","null","0","","","","","","","","","","","","","","","NaN",""
"","S1","","html-keyboard-response","14","124135","0.0-1.0-11.0","0","0","38972","","null","","","null","1","","","","","","","","","","","","","","","",""
"","ISI","","html-keyboard-response","15","126139","0.0-1.0-12.0","0","0","38972","","69","","","68","1","d","","","","","","","","","","","","","","",""
"","S2","","html-keyboard-response","16","126400","0.0-1.0-13.0","0","0","38972","","null","","","null","1","","NaN","","","","","","","","","","","","","",""
"","response","","html-keyboard-response","17","126513","0.0-1.0-14.0","0","0","38972","","108","","","68","1","","","1","1","training","adjacent","DC","4","3","O.jpg","M.jpg","1","0","0","",""
"","feedback","","html-keyboard-response","18","127518","0.0-1.0-15.0-0.0","0","0","38972","","null","","","null","1","","","","","","","","","","","","","","","",""
"","time_out","","html-keyboard-response","19","129524","0.0-1.0-17.0-0.0","0","0","38972","","null","","","null","1","","","","","","","","","","","","","","","",""
"","ITI","","html-keyboard-response","20","130531","0.0-1.0-18.0","0","0","38972","","null","","","null","1","","","","","","","","","","","","","","","NaN",""
"","S1","","html-keyboard-response","21","130787","0.0-1.0-20.0","0","0","38972","","null","","","null","2","","","","","","","","","","","","","","","",""
"","ISI","","html-keyboard-response","22","132795","0.0-1.0-21.0","0","0","38972","","null","","","null","2","NaN","","","","","","","","","","","","","","",""
"","S2","","html-keyboard-response","23","133052","0.0-1.0-22.0","0","0","38972","","null","","","null","2","","NaN","","","","","","","","","","","","","",""
"","response","","html-keyboard-response","24","133448","0.0-1.0-23.0","0","0","38972","","390","","","68","2","","","1","2","training","adjacent","FE","6","5","L.jpg","Q.jpg","1","0","0","",""
"","feedback","","html-keyboard-response","25","134454","0.0-1.0-24.0-0.0","0","0","38972","","null","","","null","2","","","","","","","","","","","","","","","",""
"","time_out","","html-keyboard-response","26","136460","0.0-1.0-26.0-0.0","0","0","38972","","null","","","null","2","","","","","","","","","","","","","","","",""
"","ITI","","html-keyboard-response","27","137465","0.0-1.0-27.0","0","0","38972","","null","","","null","2","","","","","","","","","","","","","","","NaN",""
"","S1","","html-keyboard-response","28","137721","0.0-1.0-29.0","0","0","38972","","null","","","null","3","","","","","","","","","","","","","","","",""
"","ISI","","html-keyboard-response","29","139727","0.0-1.0-30.0","0","0","38972","","null","","","null","3","NaN","","","","","","","","","","","","","","",""
"","S2","","html-keyboard-response","30","139984","0.0-1.0-31.0","0","0","38972","","null","","","null","3","","NaN","","","","","","","","","","","","","",""
"","response","","html-keyboard-response","31","140418","0.0-1.0-32.0","0","0","38972","","428","","","75","3","","","1","3","training","adjacent","FG","6","7","L.jpg","P.jpg","0","1","0","",""
"","feedback","","html-keyboard-response","32","141423","0.0-1.0-33.0-0.0","0","0","38972","","null","","","null","3","","","","","","","","","","","","","","","",""
"","time_out","","html-keyboard-response","33","143428","0.0-1.0-35.0-0.0","0","0","38972","","null","","","null","3","","","","","","","","","","","","","","","",""
"","ITI","","html-keyboard-response","34","144433","0.0-1.0-36.0","0","0","38972","","null","","","null","3","","","","","","","","","","","","","","","NaN",""
"","S1","","html-keyboard-response","35","144688","0.0-1.0-38.0","0","0","38972","","null","","","null","4","","","","","","","","","","","","","","","",""
"","ISI","","html-keyboard-response","36","146694","0.0-1.0-39.0","0","0","38972","","null","","","null","4","NaN","","","","","","","","","","","","","","",""
"","S2","","html-keyboard-response","37","146951","0.0-1.0-40.0","0","0","38972","","null","","","null","4","","NaN","","","","","","","","","","","","","",""
"","response","","html-keyboard-response","38","146975","0.0-1.0-41.0","0","0","38972","","20","","","75","4","","","1","4","training","adjacent","DC","4","3","O.jpg","M.jpg","0","0","1","",""
"","feedback","","html-keyboard-response","39","147980","0.0-1.0-42.0-0.0","0","0","38972","","null","","","null","4","","","","","","","","","","","","","","","",""
"","ITI","","html-keyboard-response","40","148989","0.0-1.0-45.0","0","0","38972","","null","","","null","4","","","","","","","","","","","","","","","NaN",""
"","S1","","html-keyboard-response","41","149252","0.0-1.0-47.0","0","0","38972","","null","","","null","5","","","","","","","","","","","","","","","",""
"","ISI","","html-keyboard-response","42","151261","0.0-1.0-48.0","0","0","38972","","null","","","null","5","NaN","","","","","","","","","","","","","","",""
"","S2","","html-keyboard-response","43","151521","0.0-1.0-49.0","0","0","38972","","null","","","null","5","","NaN","","","","","","","","","","","","","",""
"","response","","html-keyboard-response","44","151713","0.0-1.0-50.0","0","0","38972","","187","","","68","5","","","1","5","training","adjacent","CB","3","2","M.jpg","R.jpg","1","0","0","",""
"","feedback","","html-keyboard-response","45","152719","0.0-1.0-51.0-0.0","0","0","38972","","null","","","null","5","","","","","","","","","","","","","","","",""
"","time_out","","html-keyboard-response","46","154724","0.0-1.0-53.0-0.0","0","0","38972","","null","","","null","5","","","","","","","","","","","","","","","",""
"","ITI","","html-keyboard-response","47","155733","0.0-1.0-54.0","0","0","38972","","null","","","null","5","","","","","","","","","","","","","","","NaN",""
"","S1","","html-keyboard-response","48","155993","0.0-1.0-56.0","0","0","38972","","null","","","null","6","","","","","","","","","","","","","","","",""
"","ISI","","html-keyboard-response","49","158002","0.0-1.0-57.0","0","0","38972","","null","","","null","6","NaN","","","","","","","","","","","","","","",""
"","S2","","html-keyboard-response","50","158264","0.0-1.0-58.0","0","0","38972","","null","","","null","6","","NaN","","","","","","","","","","","","","",""
"","response","","html-keyboard-response","51","158297","0.0-1.0-59.0","0","0","38972","","24","","","75","6","","","1","6","training","adjacent","DC","4","3","O.jpg","M.jpg","0","0","1","",""
"","feedback","","html-keyboard-response","52","159307","0.0-1.0-60.0-0.0","0","0","38972","","null","","","null","6","","","","","","","","","","","","","","","",""
"","ITI","","html-keyboard-response","53","160312","0.0-1.0-63.0","0","0","38972","","null","","","null","6","","","","","","","","","","","","","","","NaN",""
"","S1","","html-keyboard-response","54","160568","0.0-1.0-65.0","0","0","38972","","null","","","null","7","","","","","","","","","","","","","","","",""
"","ISI","","html-keyboard-response","55","162573","0.0-1.0-66.0","0","0","38972","","null","","","null","7","NaN","","","","","","","","","","","","","","",""
"","S2","","html-keyboard-response","56","162828","0.0-1.0-67.0","0","0","38972","","null","","","null","7","","NaN","","","","","","","","","","","","","",""
"","response","","html-keyboard-response","57","162957","0.0-1.0-68.0","0","0","38972","","122","","","75","7","","","1","7","training","adjacent","BA","2","1","R.jpg","N.jpg","0","0","1","",""
"","feedback","","html-keyboard-response","58","163964","0.0-1.0-69.0-0.0","0","0","38972","","null","","","null","7","","","","","","","","","","","","","","","",""
"","ITI","","html-keyboard-response","59","164970","0.0-1.0-72.0","0","0","38972","","null","","","null","7","","","","","","","","","","","","","","","NaN",""
"","S1","","html-keyboard-response","60","165228","0.0-1.0-74.0","0","0","38972","","null","","","null","8","","","","","","","","","","","","","","","",""
"","ISI","","html-keyboard-response","61","167235","0.0-1.0-75.0","0","0","38972","","null","","","null","8","NaN","","","","","","","","","","","","","","",""
"","S2","","html-keyboard-response","62","167493","0.0-1.0-76.0","0","0","38972","","221","","","68","8","","d","","","","","","","","","","","","","",""
"","response","","html-keyboard-response","63","168234","0.0-1.0-77.0","0","0","38972","","736","","","68","8","","","1","8","training","adjacent","CD","3","4","M.jpg","O.jpg","1","1","1","",""
"","feedback","","html-keyboard-response","64","169240","0.0-1.0-78.0-0.0","0","0","38972","","null","","","null","8","","","","","","","","","","","","","","","",""
"","ITI","","html-keyboard-response","65","170245","0.0-1.0-81.0","0","0","38972","","null","","","null","8","","","","","","","","","","","","","","","NaN",""
"","S1","","html-keyboard-response","66","170500","0.0-1.0-83.0","0","0","38972","","null","","","null","9","","","","","","","","","","","","","","","",""
"","ISI","","html-keyboard-response","67","172506","0.0-1.0-84.0","0","0","38972","","null","","","null","9","NaN","","","","","","","","","","","","","","",""
"","S2","","html-keyboard-response","68","172762","0.0-1.0-85.0","0","0","38972","","null","","","null","9","","NaN","","","","","","","","","","","","","",""
"","response","","html-keyboard-response","69","172936","0.0-1.0-86.0","0","0","38972","","168","","","75","9","","","1","9","training","adjacent","FG","6","7","L.jpg","P.jpg","0","1","0","",""
"","feedback","","html-keyboard-response","70","173941","0.0-1.0-87.0-0.0","0","0","38972","","null","","","null","9","","","","","","","","","","","","","","","",""
"","time_out","","html-keyboard-response","71","175946","0.0-1.0-89.0-0.0","0","0","38972","","null","","","null","9","","","","","","","","","","","","","","","",""
"","ITI","","html-keyboard-response","72","176954","0.0-1.0-90.0","0","0","38972","","null","","","null","9","","","","","","","","","","","","","","","NaN",""
"","S1","","html-keyboard-response","73","177214","0.0-1.0-92.0","0","0","38972","","null","","","null","10","","","","","","","","","","","","","","","",""
"","ISI","","html-keyboard-response","74","179220","0.0-1.0-93.0","0","0","38972","","null","","","null","10","NaN","","","","","","","","","","","","","","",""
"","S2","","html-keyboard-response","75","179477","0.0-1.0-94.0","0","0","38972","","206","","","75","10","","k","","","","","","","","","","","","","",""
"","response","","html-keyboard-response","76","180176","0.0-1.0-95.0","0","0","38972","","695","","","75","10","","","1","10","training","adjacent","FE","6","5","L.jpg","Q.jpg","0","0","1","",""
"","feedback","","html-keyboard-response","77","181181","0.0-1.0-96.0-0.0","0","0","38972","","null","","","null","10","","","","","","","","","","","","","","","",""
"","ITI","","html-keyboard-response","78","182187","0.0-1.0-99.0","0","0","38972","","null","","","null","10","","","","","","","","","","","","","","","NaN",""
"","S1","","html-keyboard-response","79","182447","0.0-1.0-101.0","0","0","38972","","null","","","null","11","","","","","","","","","","","","","","","",""
"","ISI","","html-keyboard-response","80","184454","0.0-1.0-102.0","0","0","38972","","null","","","null","11","NaN","","","","","","","","","","","","","","",""
"","S2","","html-keyboard-response","81","184714","0.0-1.0-103.0","0","0","38972","","null","","","null","11","","NaN","","","","","","","","","","","","","",""
"","response","","html-keyboard-response","82","184735","0.0-1.0-104.0","0","0","38972","","15","","","75","11","","","1","11","training","adjacent","FG","6","7","L.jpg","P.jpg","0","1","0","",""
"","feedback","","html-keyboard-response","83","185744","0.0-1.0-105.0-0.0","0","0","38972","","null","","","null","11","","","","","","","","","","","","","","","",""
"","time_out","","html-keyboard-response","84","187750","0.0-1.0-107.0-0.0","0","0","38972","","null","","","null","11","","","","","","","","","","","","","","","",""
"","ITI","","html-keyboard-response","85","188755","0.0-1.0-108.0","0","0","38972","","null","","","null","11","","","","","","","","","","","","","","","NaN",""
"","S1","","html-keyboard-response","86","189012","0.0-1.0-110.0","0","0","38972","","null","","","null","12","","","","","","","","","","","","","","","",""
"","ISI","","html-keyboard-response","87","191019","0.0-1.0-111.0","0","0","38972","","null","","","null","12","NaN","","","","","","","","","","","","","","",""
"","S2","","html-keyboard-response","88","191279","0.0-1.0-112.0","0","0","38972","","null","","","null","12","","NaN","","","","","","","","","","","","","",""
"","response","","html-keyboard-response","89","191397","0.0-1.0-113.0","0","0","38972","","111","","","75","12","","","1","12","training","adjacent","BC","2","3","R.jpg","M.jpg","0","1","0","",""
"","feedback","","html-keyboard-response","90","192407","0.0-1.0-114.0-0.0","0","0","38972","","null","","","null","12","","","","","","","","","","","","","","","",""
"","time_out","","html-keyboard-response","91","194414","0.0-1.0-116.0-0.0","0","0","38972","","null","","","null","12","","","","","","","","","","","","","","","",""
"","ITI","","html-keyboard-response","92","195419","0.0-1.0-117.0","0","0","38972","","null","","","null","12","","","","","","","","","","","","","","","NaN",""
"","S1","","html-keyboard-response","93","195675","0.0-1.0-119.0","0","0","38972","","null","","","null","13","","","","","","","","","","","","","","","",""
"","ISI","","html-keyboard-response","94","197680","0.0-1.0-120.0","0","0","38972","","null","","","null","13","NaN","","","","","","","","","","","","","","",""
"","S2","","html-keyboard-response","95","197936","0.0-1.0-121.0","0","0","38972","","null","","","null","13","","NaN","","","","","","","","","","","","","",""
"","response","","html-keyboard-response","96","198133","0.0-1.0-122.0","0","0","38972","","192","","","68","13","","","1","13","training","adjacent","EF","5","6","Q.jpg","L.jpg","1","1","1","",""
"","feedback","","html-keyboard-response","97","199143","0.0-1.0-123.0-0.0","0","0","38972","","null","","","null","13","","","","","","","","","","","","","","","",""
"","ITI","","html-keyboard-response","98","200149","0.0-1.0-126.0","0","0","38972","","null","","","null","13","","","","","","","","","","","","","","","NaN",""
"","S1","","html-keyboard-response","99","200404","0.0-1.0-128.0","0","0","38972","","null","","","null","14","","","","","","","","","","","","","","","",""
"","ISI","","html-keyboard-response","100","202409","0.0-1.0-129.0","0","0","38972","","null","","","null","14","NaN","","","","","","","","","","","","","","",""
"","S2","","html-keyboard-response","101","202666","0.0-1.0-130.0","0","0","38972","","null","","","null","14","","NaN","","","","","","","","","","","","","",""
"","response","","html-keyboard-response","102","202684","0.0-1.0-131.0","0","0","38972","","14","","","75","14","","","1","14","training","adjacent","ED","5","4","Q.jpg","O.jpg","0","0","1","",""
"","feedback","","html-keyboard-response","103","203689","0.0-1.0-132.0-0.0","0","0","38972","","null","","","null","14","","","","","","","","","","","","","","","",""
"","ITI","","html-keyboard-response","104","204696","0.0-1.0-135.0","0","0","38972","","null","","","null","14","","","","","","","","","","","","","","","NaN",""
"","S1","","html-keyboard-response","105","204954","0.0-1.0-137.0","0","0","38972","","null","","","null","15","","","","","","","","","","","","","","","",""
"","ISI","","html-keyboard-response","106","206961","0.0-1.0-138.0","0","0","38972","","null","","","null","15","NaN","","","","","","","","","","","","","","",""
"","S2","","html-keyboard-response","107","207217","0.0-1.0-139.0","0","0","38972","","198","","","75","15","","k","","","","","","","","","","","","","",""
"","response","","html-keyboard-response","108","207838","0.0-1.0-140.0","0","0","38972","","617","","","75","15","","","1","15","training","adjacent","AB","1","2","N.jpg","R.jpg","0","1","0","",""
"","feedback","","html-keyboard-response","109","208844","0.0-1.0-141.0-0.0","0","0","38972","","null","","","null","15","","","","","","","","","","","","","","","",""
"","time_out","","html-keyboard-response","110","210849","0.0-1.0-143.0-0.0","0","0","38972","","null","","","null","15","","","","","","","","","","","","","","","",""
"","ITI","","html-keyboard-response","111","211854","0.0-1.0-144.0","0","0","38972","","null","","","null","15","","","","","","","","","","","","","","","NaN",""
"","S1","","html-keyboard-response","112","212110","0.0-1.0-146.0","0","0","38972","","null","","","null","16","","","","","","","","","","","","","","","",""
"","ISI","","html-keyboard-response","113","214115","0.0-1.0-147.0","0","0","38972","","null","","","null","16","NaN","","","","","","","","","","","","","","",""
"","S2","","html-keyboard-response","114","214371","0.0-1.0-148.0","0","0","38972","","null","","","null","16","","NaN","","","","","","","","","","","","","",""
"","response","","html-keyboard-response","115","214390","0.0-1.0-149.0","0","0","38972","","12","","","75","16","","","1","16","training","adjacent","ED","5","4","Q.jpg","O.jpg","0","0","1","",""
"","feedback","","html-keyboard-response","116","215396","0.0-1.0-150.0-0.0","0","0","38972","","null","","","null","16","","","","","","","","","","","","","","","",""
"","ITI","","html-keyboard-response","117","216404","0.0-1.0-153.0","0","0","38972","","null","","","null","16","","","","","","","","","","","","","","","NaN",""
"","S1","","html-keyboard-response","118","216661","0.0-1.0-155.0","0","0","38972","","null","","","null","17","","","","","","","","","","","","","","","",""
"","ISI","","html-keyboard-response","119","218668","0.0-1.0-156.0","0","0","38972","","null","","","null","17","NaN","","","","","","","","","","","","","","",""
"","S2","","html-keyboard-response","120","218923","0.0-1.0-157.0","0","0","38972","","null","","","null","17","","NaN","","","","","","","","","","","","","",""
"","response","","html-keyboard-response","121","219116","0.0-1.0-158.0","0","0","38972","","188","","","68","17","","","1","17","training","adjacent","GF","7","6","P.jpg","L.jpg","1","0","0","",""
"","feedback","","html-keyboard-response","122","220125","0.0-1.0-159.0-0.0","0","0","38972","","null","","","null","17","","","","","","","","","","","","","","","",""
"","time_out","","html-keyboard-response","123","222132","0.0-1.0-161.0-0.0","0","0","38972","","null","","","null","17","","","","","","","","","","","","","","","",""
"","ITI","","html-keyboard-response","124","223142","0.0-1.0-162.0","0","0","38972","","null","","","null","17","","","","","","","","","","","","","","","NaN",""
"","S1","","html-keyboard-response","125","223402","0.0-1.0-164.0","0","0","38972","","null","","","null","18","","","","","","","","","","","","","","","",""
"","ISI","","html-keyboard-response","126","225408","0.0-1.0-165.0","0","0","38972","","null","","","null","18","NaN","","","","","","","","","","","","","","",""
"","S2","","html-keyboard-response","127","225664","0.0-1.0-166.0","0","0","38972","","null","","","null","18","","NaN","","","","","","","","","","","","","",""
"","response","","html-keyboard-response","128","225845","0.0-1.0-167.0","0","0","38972","","175","","","68","18","","","1","18","training","adjacent","DE","4","5","O.jpg","Q.jpg","1","1","1","",""
"","feedback","","html-keyboard-response","129","226850","0.0-1.0-168.0-0.0","0","0","38972","","null","","","null","18","","","","","","","","","","","","","","","",""
"","ITI","","html-keyboard-response","130","227855","0.0-1.0-171.0","0","0","38972","","null","","","null","18","","","","","","","","","","","","","","","NaN",""
"","S1","","html-keyboard-response","131","228110","0.0-1.0-173.0","0","0","38972","","null","","","null","19","","","","","","","","","","","","","","","",""
"","ISI","","html-keyboard-response","132","230115","0.0-1.0-174.0","0","0","38972","","null","","","null","19","NaN","","","","","","","","","","","","","","",""
"","S2","","html-keyboard-response","133","230370","0.0-1.0-175.0","0","0","38972","","null","","","null","19","","NaN","","","","","","","","","","","","","",""
"","response","","html-keyboard-response","134","230478","0.0-1.0-176.0","0","0","38972","","103","","","68","19","","","1","19","training","adjacent","CD","3","4","M.jpg","O.jpg","1","1","1","",""
"","feedback","","html-keyboard-response","135","231484","0.0-1.0-177.0-0.0","0","0","38972","","null","","","null","19","","","","","","","","","","","","","","","",""
"","ITI","","html-keyboard-response","136","232489","0.0-1.0-180.0","0","0","38972","","null","","","null","19","","","","","","","","","","","","","","","NaN",""
"","S1","","html-keyboard-response","137","232745","0.0-1.0-182.0","0","0","38972","","null","","","null","20","","","","","","","","","","","","","","","",""
"","ISI","","html-keyboard-response","138","234750","0.0-1.0-183.0","0","0","38972","","null","","","null","20","NaN","","","","","","","","","","","","","","",""
"","S2","","html-keyboard-response","139","235006","0.0-1.0-184.0","0","0","38972","","null","","","null","20","","NaN","","","","","","","","","","","","","",""
"","response","","html-keyboard-response","140","235060","0.0-1.0-185.0","0","0","38972","","48","","","75","20","","","1","20","training","adjacent","AB","1","2","N.jpg","R.jpg","0","1","0","",""
"","feedback","","html-keyboard-response","141","236067","0.0-1.0-186.0-0.0","0","0","38972","","null","","","null","20","","","","","","","","","","","","","","","",""
"","time_out","","html-keyboard-response","142","238072","0.0-1.0-188.0-0.0","0","0","38972","","null","","","null","20","","","","","","","","","","","","","","","",""
"","ITI","","html-keyboard-response","143","239077","0.0-1.0-189.0","0","0","38972","","null","","","null","20","","","","","","","","","","","","","","","NaN",""
"","S1","","html-keyboard-response","144","239335","0.0-1.0-191.0","0","0","38972","","null","","","null","21","","","","","","","","","","","","","","","",""
"","ISI","","html-keyboard-response","145","241344","0.0-1.0-192.0","0","0","38972","","null","","","null","21","NaN","","","","","","","","","","","","","","",""
"","S2","","html-keyboard-response","146","241601","0.0-1.0-193.0","0","0","38972","","198","","","68","21","","d","","","","","","","","","","","","","",""
"","response","","html-keyboard-response","147","242103","0.0-1.0-194.0","0","0","38972","","496","","","68","21","","","1","21","training","adjacent","CB","3","2","M.jpg","R.jpg","1","0","0","",""
"","feedback","","html-keyboard-response","148","243109","0.0-1.0-195.0-0.0","0","0","38972","","null","","","null","21","","","","","","","","","","","","","","","",""
"","time_out","","html-keyboard-response","149","245118","0.0-1.0-197.0-0.0","0","0","38972","","null","","","null","21","","","","","","","","","","","","","","","",""
"","ITI","","html-keyboard-response","150","246129","0.0-1.0-198.0","0","0","38972","","null","","","null","21","","","","","","","","","","","","","","","NaN",""
"","S1","","html-keyboard-response","151","246389","0.0-1.0-200.0","0","0","38972","","null","","","null","22","","","","","","","","","","","","","","","",""
"","ISI","","html-keyboard-response","152","248394","0.0-1.0-201.0","0","0","38972","","null","","","null","22","NaN","","","","","","","","","","","","","","",""
"","S2","","html-keyboard-response","153","248649","0.0-1.0-202.0","0","0","38972","","null","","","null","22","","NaN","","","","","","","","","","","","","",""
"","response","","html-keyboard-response","154","248687","0.0-1.0-203.0","0","0","38972","","32","","","75","22","","","1","22","training","adjacent","GF","7","6","P.jpg","L.jpg","0","0","1","",""
"","feedback","","html-keyboard-response","155","249693","0.0-1.0-204.0-0.0","0","0","38972","","null","","","null","22","","","","","","","","","","","","","","","",""
"","ITI","","html-keyboard-response","156","250698","0.0-1.0-207.0","0","0","38972","","null","","","null","22","","","","","","","","","","","","","","","NaN",""
"","S1","","html-keyboard-response","157","250954","0.0-1.0-209.0","0","0","38972","","null","","","null","23","","","","","","","","","","","","","","","",""
"","ISI","","html-keyboard-response","158","252959","0.0-1.0-210.0","0","0","38972","","null","","","null","23","NaN","","","","","","","","","","","","","","",""
"","S2","","html-keyboard-response","159","253214","0.0-1.0-211.0","0","0","38972","","196","","","68","23","","d","","","","","","","","","","","","","",""
"","response","","html-keyboard-response","160","253718","0.0-1.0-212.0","0","0","38972","","497","","","75","23","","","1","23","training","adjacent","GF","7","6","P.jpg","L.jpg","0","0","1","",""
"","feedback","","html-keyboard-response","161","254726","0.0-1.0-213.0-0.0","0","0","38972","","null","","","null","23","","","","","","","","","","","","","","","",""
"","ITI","","html-keyboard-response","162","255739","0.0-1.0-216.0","0","0","38972","","null","","","null","23","","","","","","","","","","","","","","","NaN",""
"","S1","","html-keyboard-response","163","255995","0.0-1.0-218.0","0","0","38972","","null","","","null","24","","","","","","","","","","","","","","","",""
"","ISI","","html-keyboard-response","164","258000","0.0-1.0-219.0","0","0","38972","","null","","","null","24","NaN","","","","","","","","","","","","","","",""
"","S2","","html-keyboard-response","165","258260","0.0-1.0-220.0","0","0","38972","","null","","","null","24","","NaN","","","","","","","","","","","","","",""
"","response","","html-keyboard-response","166","258308","0.0-1.0-221.0","0","0","38972","","41","","","75","24","","","1","24","training","adjacent","GF","7","6","P.jpg","L.jpg","0","0","1","",""
"","feedback","","html-keyboard-response","167","259316","0.0-1.0-222.0-0.0","0","0","38972","","null","","","null","24","","","","","","","","","","","","","","","",""
"","ITI","","html-keyboard-response","168","260321","0.0-1.0-225.0","0","0","38972","","null","","","null","24","","","","","","","","","","","","","","","NaN",""
"","S1","","html-keyboard-response","169","260580","0.0-1.0-227.0","0","0","38972","","null","","","null","25","","","","","","","","","","","","","","","",""
"","ISI","","html-keyboard-response","170","262586","0.0-1.0-228.0","0","0","38972","","null","","","null","25","NaN","","","","","","","","","","","","","","",""
"","S2","","html-keyboard-response","171","262841","0.0-1.0-229.0","0","0","38972","","null","","","null","25","","NaN","","","","","","","","","","","","","",""
"","response","","html-keyboard-response","172","262882","0.0-1.0-230.0","0","0","38972","","35","","","75","25","","","1","25","training","adjacent","AB","1","2","N.jpg","R.jpg","0","1","0","",""
"","feedback","","html-keyboard-response","173","263889","0.0-1.0-231.0-0.0","0","0","38972","","null","","","null","25","","","","","","","","","","","","","","","",""
"","time_out","","html-keyboard-response","174","265893","0.0-1.0-233.0-0.0","0","0","38972","","null","","","null","25","","","","","","","","","","","","","","","",""
"","ITI","","html-keyboard-response","175","266898","0.0-1.0-234.0","0","0","38972","","null","","","null","25","","","","","","","","","","","","","","","NaN",""
"","S1","","html-keyboard-response","176","267157","0.0-1.0-236.0","0","0","38972","","null","","","null","26","","","","","","","","","","","","","","","",""
"","ISI","","html-keyboard-response","177","269167","0.0-1.0-237.0","0","0","38972","","null","","","null","26","NaN","","","","","","","","","","","","","","",""
"","S2","","html-keyboard-response","178","269427","0.0-1.0-238.0","0","0","38972","","null","","","null","26","","NaN","","","","","","","","","","","","","",""
"","response","","html-keyboard-response","179","269619","0.0-1.0-239.0","0","0","38972","","183","","","68","26","","","1","26","training","adjacent","ED","5","4","Q.jpg","O.jpg","1","0","0","",""
"","feedback","","html-keyboard-response","180","270627","0.0-1.0-240.0-0.0","0","0","38972","","null","","","null","26","","","","","","","","","","","","","","","",""
"","time_out","","html-keyboard-response","181","272638","0.0-1.0-242.0-0.0","0","0","38972","","null","","","null","26","","","","","","","","","","","","","","","",""
"","ITI","","html-keyboard-response","182","273644","0.0-1.0-243.0","0","0","38972","","null","","","null","26","","","","","","","","","","","","","","","NaN",""
"","S1","","html-keyboard-response","183","273900","0.0-1.0-245.0","0","0","38972","","null","","","null","27","","","","","","","","","","","","","","","",""
"","ISI","","html-keyboard-response","184","275904","0.0-1.0-246.0","0","0","38972","","null","","","null","27","NaN","","","","","","","","","","","","","","",""
"","S2","","html-keyboard-response","185","276160","0.0-1.0-247.0","0","0","38972","","null","","","null","27","","NaN","","","","","","","","","","","","","",""
"","response","","html-keyboard-response","186","276207","0.0-1.0-248.0","0","0","38972","","40","","","75","27","","","1","27","training","adjacent","AB","1","2","N.jpg","R.jpg","0","1","0","",""
"","feedback","","html-keyboard-response","187","277214","0.0-1.0-249.0-0.0","0","0","38972","","null","","","null","27","","","","","","","","","","","","","","","",""
"","time_out","","html-keyboard-response","188","279219","0.0-1.0-251.0-0.0","0","0","38972","","null","","","null","27","","","","","","","","","","","","","","","",""
"","ITI","","html-keyboard-response","189","280228","0.0-1.0-252.0","0","0","38972","","null","","","null","27","","","","","","","","","","","","","","","NaN",""
"","S1","","html-keyboard-response","190","280486","0.0-1.0-254.0","0","0","38972","","null","","","null","28","","","","","","","","","","","","","","","",""
"","ISI","","html-keyboard-response","191","282494","0.0-1.0-255.0","0","0","38972","","null","","","null","28","NaN","","","","","","","","","","","","","","",""
"","S2","","html-keyboard-response","192","282751","0.0-1.0-256.0","0","0","38972","","226","","","68","28","","d","","","","","","","","","","","","","",""
"","response","","html-keyboard-response","193","283197","0.0-1.0-257.0","0","0","38972","","439","","","68","28","","","1","28","training","adjacent","EF","5","6","Q.jpg","L.jpg","1","1","1","",""
"","feedback","","html-keyboard-response","194","284204","0.0-1.0-258.0-0.0","0","0","38972","","null","","","null","28","","","","","","","","","","","","","","","",""
"","ITI","","html-keyboard-response","195","285209","0.0-1.0-261.0","0","0","38972","","null","","","null","28","","","","","","","","","","","","","","","NaN",""
"","S1","","html-keyboard-response","196","285464","0.0-1.0-263.0","0","0","38972","","null","","","null","29","","","","","","","","","","","","","","","",""
"","ISI","","html-keyboard-response","197","287469","0.0-1.0-264.0","0","0","38972","","null","","","null","29","NaN","","","","","","","","","","","","","","",""
"","S2","","html-keyboard-response","198","287729","0.0-1.0-265.0","0","0","38972","","224","","","68","29","","d","","","","","","","","","","","","","",""
"","response","","html-keyboard-response","199","288070","0.0-1.0-266.0","0","0","38972","","334","","","75","29","","","1","29","training","adjacent","ED","5","4","Q.jpg","O.jpg","0","0","1","",""
"","feedback","","html-keyboard-response","200","289076","0.0-1.0-267.0-0.0","0","0","38972","","null","","","null","29","","","","","","","","","","","","","","","",""
"","ITI","","html-keyboard-response","201","290081","0.0-1.0-270.0","0","0","38972","","null","","","null","29","","","","","","","","","","","","","","","NaN",""
"","S1","","html-keyboard-response","202","290337","0.0-1.0-272.0","0","0","38972","","null","","","null","30","","","","","","","","","","","","","","","",""
"","ISI","","html-keyboard-response","203","292344","0.0-1.0-273.0","0","0","38972","","null","","","null","30","NaN","","","","","","","","","","","","","","",""
"","S2","","html-keyboard-response","204","292600","0.0-1.0-274.0","0","0","38972","","null","","","null","30","","NaN","","","","","","","","","","","","","",""
"","response","","html-keyboard-response","205","292663","0.0-1.0-275.0","0","0","38972","","58","","","75","30","","","1","30","training","adjacent","CB","3","2","M.jpg","R.jpg","0","0","1","",""
"","feedback","","html-keyboard-response","206","293669","0.0-1.0-276.0-0.0","0","0","38972","","null","","","null","30","","","","","","","","","","","","","","","",""
"","ITI","","html-keyboard-response","207","294675","0.0-1.0-279.0","0","0","38972","","null","","","null","30","","","","","","","","","","","","","","","NaN",""
"","S1","","html-keyboard-response","208","294930","0.0-1.0-281.0","0","0","38972","","null","","","null","31","","","","","","","","","","","","","","","",""
"","ISI","","html-keyboard-response","209","296935","0.0-1.0-282.0","0","0","38972","","null","","","null","31","NaN","","","","","","","","","","","","","","",""
"","S2","","html-keyboard-response","210","297192","0.0-1.0-283.0","0","0","38972","","null","","","null","31","","NaN","","","","","","","","","","","","","",""
"","response","","html-keyboard-response","211","297251","0.0-1.0-284.0","0","0","38972","","53","","","68","31","","","1","31","training","adjacent","CD","3","4","M.jpg","O.jpg","1","1","1","",""
"","feedback","","html-keyboard-response","212","298258","0.0-1.0-285.0-0.0","0","0","38972","","null","","","null","31","","","","","","","","","","","","","","","",""
"","ITI","","html-keyboard-response","213","299264","0.0-1.0-288.0","0","0","38972","","null","","","null","31","","","","","","","","","","","","","","","NaN",""
"","S1","","html-keyboard-response","214","299520","0.0-1.0-290.0","0","0","38972","","null","","","null","32","","","","","","","","","","","","","","","",""
"","ISI","","html-keyboard-response","215","301529","0.0-1.0-291.0","0","0","38972","","null","","","null","32","NaN","","","","","","","","","","","","","","",""
"","S2","","html-keyboard-response","216","301786","0.0-1.0-292.0","0","0","38972","","null","","","null","32","","NaN","","","","","","","","","","","","","",""
"","response","","html-keyboard-response","217","301801","0.0-1.0-293.0","0","0","38972","","11","","","75","32","","","1","32","training","adjacent","BC","2","3","R.jpg","M.jpg","0","1","0","",""
"","feedback","","html-keyboard-response","218","302809","0.0-1.0-294.0-0.0","0","0","38972","","null","","","null","32","","","","","","","","","","","","","","","",""
"","time_out","","html-keyboard-response","219","304814","0.0-1.0-296.0-0.0","0","0","38972","","null","","","null","32","","","","","","","","","","","","","","","",""
"","ITI","","html-keyboard-response","220","305820","0.0-1.0-297.0","0","0","38972","","null","","","null","32","","","","","","","","","","","","","","","NaN",""
"","S1","","html-keyboard-response","221","306075","0.0-1.0-299.0","0","0","38972","","null","","","null","33","","","","","","","","","","","","","","","",""
"","ISI","","html-keyboard-response","222","308079","0.0-1.0-300.0","0","0","38972","","null","","","null","33","NaN","","","","","","","","","","","","","","",""
"","S2","","html-keyboard-response","223","308336","0.0-1.0-301.0","0","0","38972","","222","","","75","33","","k","","","","","","","","","","","","","",""
"","response","","html-keyboard-response","224","308825","0.0-1.0-302.0","0","0","38972","","479","","","68","33","","","1","33","training","adjacent","DE","4","5","O.jpg","Q.jpg","1","1","1","",""
"","feedback","","html-keyboard-response","225","309835","0.0-1.0-303.0-0.0","0","0","38972","","null","","","null","33","","","","","","","","","","","","","","","",""
"","ITI","","html-keyboard-response","226","310841","0.0-1.0-306.0","0","0","38972","","null","","","null","33","","","","","","","","","","","","","","","NaN",""
"","S1","","html-keyboard-response","227","311099","0.0-1.0-308.0","0","0","38972","","null","","","null","34","","","","","","","","","","","","","","","",""
"","ISI","","html-keyboard-response","228","313104","0.0-1.0-309.0","0","0","38972","","null","","","null","34","NaN","","","","","","","","","","","","","","",""
"","S2","","html-keyboard-response","229","313359","0.0-1.0-310.0","0","0","38972","","null","","","null","34","","NaN","","","","","","","","","","","","","",""
"","response","","html-keyboard-response","230","313366","0.0-1.0-311.0","0","0","38972","","1","","","75","34","","","1","34","training","adjacent","CD","3","4","M.jpg","O.jpg","0","1","0","",""
"","feedback","","html-keyboard-response","231","314371","0.0-1.0-312.0-0.0","0","0","38972","","null","","","null","34","","","","","","","","","","","","","","","",""
"","time_out","","html-keyboard-response","232","316376","0.0-1.0-314.0-0.0","0","0","38972","","null","","","null","34","","","","","","","","","","","","","","","",""
"","ITI","","html-keyboard-response","233","317381","0.0-1.0-315.0","0","0","38972","","null","","","null","34","","","","","","","","","","","","","","","NaN",""
"","S1","","html-keyboard-response","234","317636","0.0-1.0-317.0","0","0","38972","","null","","","null","35","","","","","","","","","","","","","","","",""
"","ISI","","html-keyboard-response","235","319641","0.0-1.0-318.0","0","0","38972","","null","","","null","35","NaN","","","","","","","","","","","","","","",""
"","S2","","html-keyboard-response","236","319897","0.0-1.0-319.0","0","0","38972","","null","","","null","35","","NaN","","","","","","","","","","","","","",""
"","response","","html-keyboard-response","237","319983","0.0-1.0-320.0","0","0","38972","","81","","","75","35","","","1","35","training","adjacent","DC","4","3","O.jpg","M.jpg","0","0","1","",""
"","feedback","","html-keyboard-response","238","320993","0.0-1.0-321.0-0.0","0","0","38972","","null","","","null","35","","","","","","","","","","","","","","","",""
"","ITI","","html-keyboard-response","239","321998","0.0-1.0-324.0","0","0","38972","","null","","","null","35","","","","","","","","","","","","","","","NaN",""
"","S1","","html-keyboard-response","240","322254","0.0-1.0-326.0","0","0","38972","","null","","","null","36","","","","","","","","","","","","","","","",""
"","ISI","","html-keyboard-response","241","324259","0.0-1.0-327.0","0","0","38972","","null","","","null","36","NaN","","","","","","","","","","","","","","",""
"","S2","","html-keyboard-response","242","324514","0.0-1.0-328.0","0","0","38972","","222","","","68","36","","d","","","","","","","","","","","","","",""
"","response","","html-keyboard-response","243","324969","0.0-1.0-329.0","0","0","38972","","449","","","68","36","","","1","36","training","adjacent","EF","5","6","Q.jpg","L.jpg","1","1","1","",""
"","feedback","","html-keyboard-response","244","325981","0.0-1.0-330.0-0.0","0","0","38972","","null","","","null","36","","","","","","","","","","","","","","","",""
"","ITI","","html-keyboard-response","245","326987","0.0-1.0-333.0","0","0","38972","","null","","","null","36","","","","","","","","","","","","","","","NaN",""
"","S1","","html-keyboard-response","246","327244","0.0-1.0-335.0","0","0","38972","","null","","","null","37","","","","","","","","","","","","","","","",""
"","ISI","","html-keyboard-response","247","329250","0.0-1.0-336.0","0","0","38972","","null","","","null","37","NaN","","","","","","","","","","","","","","",""
"","S2","","html-keyboard-response","248","329506","0.0-1.0-337.0","0","0","38972","","null","","","null","37","","NaN","","","","","","","","","","","","","",""
"","response","","html-keyboard-response","249","329573","0.0-1.0-338.0","0","0","38972","","61","","","68","37","","","1","37","training","adjacent","CB","3","2","M.jpg","R.jpg","1","0","0","",""
"","feedback","","html-keyboard-response","250","330578","0.0-1.0-339.0-0.0","0","0","38972","","null","","","null","37","","","","","","","","","","","","","","","",""
"","time_out","","html-keyboard-response","251","332584","0.0-1.0-341.0-0.0","0","0","38972","","null","","","null","37","","","","","","","","","","","","","","","",""
"","ITI","","html-keyboard-response","252","333588","0.0-1.0-342.0","0","0","38972","","null","","","null","37","","","","","","","","","","","","","","","NaN",""
"","S1","","html-keyboard-response","253","333844","0.0-1.0-344.0","0","0","38972","","null","","","null","38","","","","","","","","","","","","","","","",""
"","ISI","","html-keyboard-response","254","335849","0.0-1.0-345.0","0","0","38972","","null","","","null","38","NaN","","","","","","","","","","","","","","",""
"","S2","","html-keyboard-response","255","336104","0.0-1.0-346.0","0","0","38972","","211","","","68","38","","d","","","","","","","","","","","","","",""
"","response","","html-keyboard-response","256","336405","0.0-1.0-347.0","0","0","38972","","296","","","75","38","","","1","38","training","adjacent","DE","4","5","O.jpg","Q.jpg","0","1","0","",""
"","feedback","","html-keyboard-response","257","337412","0.0-1.0-348.0-0.0","0","0","38972","","null","","","null","38","","","","","","","","","","","","","","","",""
"","time_out","","html-keyboard-response","258","339417","0.0-1.0-350.0-0.0","0","0","38972","","null","","","null","38","","","","","","","","","","","","","","","",""
"","ITI","","html-keyboard-response","259","340422","0.0-1.0-351.0","0","0","38972","","null","","","null","38","","","","","","","","","","","","","","","NaN",""
"","S1","","html-keyboard-response","260","340678","0.0-1.0-353.0","0","0","38972","","null","","","null","39","","","","","","","","","","","","","","","",""
"","ISI","","html-keyboard-response","261","342684","0.0-1.0-354.0","0","0","38972","","null","","","null","39","NaN","","","","","","","","","","","","","","",""
"","S2","","html-keyboard-response","262","342940","0.0-1.0-355.0","0","0","38972","","217","","","75","39","","k","","","","","","","","","","","","","",""
"","response","","html-keyboard-response","263","343213","0.0-1.0-356.0","0","0","38972","","268","","","68","39","","","1","39","training","adjacent","FG","6","7","L.jpg","P.jpg","1","1","1","",""
"","feedback","","html-keyboard-response","264","344220","0.0-1.0-357.0-0.0","0","0","38972","","null","","","null","39","","","","","","","","","","","","","","","",""
"","ITI","","html-keyboard-response","265","345227","0.0-1.0-360.0","0","0","38972","","null","","","null","39","","","","","","","","","","","","","","","NaN",""
"","S1","","html-keyboard-response","266","345482","0.0-1.0-362.0","0","0","38972","","null","","","null","40","","","","","","","","","","","","","","","",""
"","ISI","","html-keyboard-response","267","347486","0.0-1.0-363.0","0","0","38972","","null","","","null","40","NaN","","","","","","","","","","","","","","",""
"","S2","","html-keyboard-response","268","347743","0.0-1.0-364.0","0","0","38972","","null","","","null","40","","NaN","","","","","","","","","","","","","",""
"","response","","html-keyboard-response","269","347778","0.0-1.0-365.0","0","0","38972","","29","","","68","40","","","1","40","training","adjacent","BC","2","3","R.jpg","M.jpg","1","1","1","",""
"","feedback","","html-keyboard-response","270","348786","0.0-1.0-366.0-0.0","0","0","38972","","null","","","null","40","","","","","","","","","","","","","","","",""
"","ITI","","html-keyboard-response","271","349795","0.0-1.0-369.0","0","0","38972","","null","","","null","40","","","","","","","","","","","","","","","NaN",""
"","S1","","html-keyboard-response","272","350055","0.0-1.0-371.0","0","0","38972","","null","","","null","41","","","","","","","","","","","","","","","",""
"","ISI","","html-keyboard-response","273","352060","0.0-1.0-372.0","0","0","38972","","null","","","null","41","NaN","","","","","","","","","","","","","","",""
"","S2","","html-keyboard-response","274","352317","0.0-1.0-373.0","0","0","38972","","198","","","68","41","","d","","","","","","","","","","","","","",""
"","response","","html-keyboard-response","275","352651","0.0-1.0-374.0","0","0","38972","","325","","","68","41","","","1","41","training","adjacent","EF","5","6","Q.jpg","L.jpg","1","1","1","",""
"","feedback","","html-keyboard-response","276","353662","0.0-1.0-375.0-0.0","0","0","38972","","null","","","null","41","","","","","","","","","","","","","","","",""
"","ITI","","html-keyboard-response","277","354673","0.0-1.0-378.0","0","0","38972","","null","","","null","41","","","","","","","","","","","","","","","NaN",""
"","S1","","html-keyboard-response","278","354932","0.0-1.0-380.0","0","0","38972","","null","","","null","42","","","","","","","","","","","","","","","",""
"","ISI","","html-keyboard-response","279","356940","0.0-1.0-381.0","0","0","38972","","null","","","null","42","NaN","","","","","","","","","","","","","","",""
"","S2","","html-keyboard-response","280","357196","0.0-1.0-382.0","0","0","38972","","null","","","null","42","","NaN","","","","","","","","","","","","","",""
"","response","","html-keyboard-response","281","357226","0.0-1.0-383.0","0","0","38972","","25","","","68","42","","","1","42","training","adjacent","FE","6","5","L.jpg","Q.jpg","1","0","0","",""
"","feedback","","html-keyboard-response","282","358232","0.0-1.0-384.0-0.0","0","0","38972","","null","","","null","42","","","","","","","","","","","","","","","",""
"","time_out","","html-keyboard-response","283","360242","0.0-1.0-386.0-0.0","0","0","38972","","null","","","null","42","","","","","","","","","","","","","","","",""
"","ITI","","html-keyboard-response","284","361254","0.0-1.0-387.0","0","0","38972","","null","","","null","42","","","","","","","","","","","","","","","NaN",""
"","S1","","html-keyboard-response","285","361513","0.0-1.0-389.0","0","0","38972","","null","","","null","43","","","","","","","","","","","","","","","",""
"","ISI","","html-keyboard-response","286","363521","0.0-1.0-390.0","0","0","38972","","null","","","null","43","NaN","","","","","","","","","","","","","","",""
"","S2","","html-keyboard-response","287","363777","0.0-1.0-391.0","0","0","38972","","null","","","null","43","","NaN","","","","","","","","","","","","","",""
"","response","","html-keyboard-response","288","363847","0.0-1.0-392.0","0","0","38972","","65","","","68","43","","","1","43","training","adjacent","BA","2","1","R.jpg","N.jpg","1","0","0","",""
"","feedback","","html-keyboard-response","289","364853","0.0-1.0-393.0-0.0","0","0","38972","","null","","","null","43","","","","","","","","","","","","","","","",""
"","time_out","","html-keyboard-response","290","366858","0.0-1.0-395.0-0.0","0","0","38972","","null","","","null","43","","","","","","","","","","","","","","","",""
"","ITI","","html-keyboard-response","291","367863","0.0-1.0-396.0","0","0","38972","","null","","","null","43","","","","","","","","","","","","","","","NaN",""
"","S1","","html-keyboard-response","292","368118","0.0-1.0-398.0","0","0","38972","","null","","","null","44","","","","","","","","","","","","","","","",""
"","ISI","","html-keyboard-response","293","370123","0.0-1.0-399.0","0","0","38972","","null","","","null","44","NaN","","","","","","","","","","","","","","",""
"","S2","","html-keyboard-response","294","370379","0.0-1.0-400.0","0","0","38972","","null","","","null","44","","NaN","","","","","","","","","","","","","",""
"","response","","html-keyboard-response","295","370440","0.0-1.0-401.0","0","0","38972","","56","","","68","44","","","1","44","training","adjacent","BA","2","1","R.jpg","N.jpg","1","0","0","",""
"","feedback","","html-keyboard-response","296","371449","0.0-1.0-402.0-0.0","0","0","38972","","null","","","null","44","","","","","","","","","","","","","","","",""
"","time_out","","html-keyboard-response","297","373454","0.0-1.0-404.0-0.0","0","0","38972","","null","","","null","44","","","","","","","","","","","","","","","",""
"","ITI","","html-keyboard-response","298","374459","0.0-1.0-405.0","0","0","38972","","null","","","null","44","","","","","","","","","","","","","","","NaN",""
"","S1","","html-keyboard-response","299","374715","0.0-1.0-407.0","0","0","38972","","null","","","null","45","","","","","","","","","","","","","","","",""
"","ISI","","html-keyboard-response","300","376721","0.0-1.0-408.0","0","0","38972","","null","","","null","45","NaN","","","","","","","","","","","","","","",""
"","S2","","html-keyboard-response","301","376976","0.0-1.0-409.0","0","0","38972","","245","","","75","45","","k","","","","","","","","","","","","","",""
"","response","","html-keyboard-response","302","377360","0.0-1.0-410.0","0","0","38972","","375","","","75","45","","","1","45","training","adjacent","BC","2","3","R.jpg","M.jpg","0","1","0","",""
"","feedback","","html-keyboard-response","303","378366","0.0-1.0-411.0-0.0","0","0","38972","","null","","","null","45","","","","","","","","","","","","","","","",""
"","time_out","","html-keyboard-response","304","380370","0.0-1.0-413.0-0.0","0","0","38972","","null","","","null","45","","","","","","","","","","","","","","","",""
"","ITI","","html-keyboard-response","305","381375","0.0-1.0-414.0","0","0","38972","","null","","","null","45","","","","","","","","","","","","","","","NaN",""
"","S1","","html-keyboard-response","306","381632","0.0-1.0-416.0","0","0","38972","","null","","","null","46","","","","","","","","","","","","","","","",""
"","ISI","","html-keyboard-response","307","383637","0.0-1.0-417.0","0","0","38972","","null","","","null","46","NaN","","","","","","","","","","","","","","",""
"","S2","","html-keyboard-response","308","383896","0.0-1.0-418.0","0","0","38972","","null","","","null","46","","NaN","","","","","","","","","","","","","",""
"","response","","html-keyboard-response","309","383926","0.0-1.0-419.0","0","0","38972","","25","","","68","46","","","1","46","training","adjacent","FE","6","5","L.jpg","Q.jpg","1","0","0","",""
"","feedback","","html-keyboard-response","310","384932","0.0-1.0-420.0-0.0","0","0","38972","","null","","","null","46","","","","","","","","","","","","","","","",""
"","time_out","","html-keyboard-response","311","386938","0.0-1.0-422.0-0.0","0","0","38972","","null","","","null","46","","","","","","","","","","","","","","","",""
"","ITI","","html-keyboard-response","312","387943","0.0-1.0-423.0","0","0","38972","","null","","","null","46","","","","","","","","","","","","","","","NaN",""
"","S1","","html-keyboard-response","313","388198","0.0-1.0-425.0","0","0","38972","","null","","","null","47","","","","","","","","","","","","","","","",""
"","ISI","","html-keyboard-response","314","390202","0.0-1.0-426.0","0","0","38972","","null","","","null","47","NaN","","","","","","","","","","","","","","",""
"","S2","","html-keyboard-response","315","390458","0.0-1.0-427.0","0","0","38972","","null","","","null","47","","NaN","","","","","","","","","","","","","",""
"","response","","html-keyboard-response","316","390500","0.0-1.0-428.0","0","0","38972","","36","","","68","47","","","1","47","training","adjacent","BA","2","1","R.jpg","N.jpg","1","0","0","",""
"","feedback","","html-keyboard-response","317","391509","0.0-1.0-429.0-0.0","0","0","38972","","null","","","null","47","","","","","","","","","","","","","","","",""
"","time_out","","html-keyboard-response","318","393517","0.0-1.0-431.0-0.0","0","0","38972","","null","","","null","47","","","","","","","","","","","","","","","",""
"","ITI","","html-keyboard-response","319","394524","0.0-1.0-432.0","0","0","38972","","null","","","null","47","","","","","","","","","","","","","","","NaN",""
"","block_over","","html-keyboard-response","320","399680","0.0-1.0-433.0-0.0","0","0","38972","","5150","","","32","47","","","","","","","","","","","","","","","",""
"","S1","","html-keyboard-response","321","399935","0.0-1.0-434.0","0","0","38972","","null","","","null","48","","","","","","","","","","","","","","","",""
"","ISI","","html-keyboard-response","322","401939","0.0-1.0-435.0","0","0","38972","","null","","","null","48","NaN","","","","","","","","","","","","","","",""
"","S2","","html-keyboard-response","323","402195","0.0-1.0-436.0","0","0","38972","","null","","","null","48","","NaN","","","","","","","","","","","","","",""
"","response","","html-keyboard-response","324","402201","0.0-1.0-437.0","0","0","38972","","0","","","75","48","","","2","48","training","adjacent","CD","3","4","M.jpg","O.jpg","0","1","0","",""
"","feedback","","html-keyboard-response","325","403207","0.0-1.0-438.0-0.0","0","0","38972","","null","","","null","48","","","","","","","","","","","","","","","",""
"","time_out","","html-keyboard-response","326","405213","0.0-1.0-440.0-0.0","0","0","38972","","null","","","null","48","","","","","","","","","","","","","","","",""
"","ITI","","html-keyboard-response","327","406218","0.0-1.0-441.0","0","0","38972","","null","","","null","48","","","","","","","","","","","","","","","NaN",""
"","S1","","html-keyboard-response","328","406473","0.0-1.0-443.0","0","0","38972","","null","","","null","49","","","","","","","","","","","","","","","",""
"","ISI","","html-keyboard-response","329","408478","0.0-1.0-444.0","0","0","38972","","null","","","null","49","NaN","","","","","","","","","","","","","","",""
"","S2","","html-keyboard-response","330","408735","0.0-1.0-445.0","0","0","38972","","null","","","null","49","","NaN","","","","","","","","","","","","","",""
"","response","","html-keyboard-response","331","408960","0.0-1.0-446.0","0","0","38972","","219","","","75","49","","","2","49","training","adjacent","BA","2","1","R.jpg","N.jpg","0","0","1","",""
"","feedback","","html-keyboard-response","332","409967","0.0-1.0-447.0-0.0","0","0","38972","","null","","","null","49","","","","","","","","","","","","","","","",""
"","ITI","","html-keyboard-response","333","410973","0.0-1.0-450.0","0","0","38972","","null","","","null","49","","","","","","","","","","","","","","","NaN",""
"","S1","","html-keyboard-response","334","411229","0.0-1.0-452.0","0","0","38972","","null","","","null","50","","","","","","","","","","","","","","","",""
"","ISI","","html-keyboard-response","335","413238","0.0-1.0-453.0","0","0","38972","","null","","","null","50","NaN","","","","","","","","","","","","","","",""
"","S2","","html-keyboard-response","336","413495","0.0-1.0-454.0","0","0","38972","","null","","","null","50","","NaN","","","","","","","","","","","","","",""
"","response","","html-keyboard-response","337","413930","0.0-1.0-455.0","0","0","38972","","424","","","68","50","","","2","50","training","adjacent","BA","2","1","R.jpg","N.jpg","1","0","0","",""
"","feedback","","html-keyboard-response","338","414937","0.0-1.0-456.0-0.0","0","0","38972","","null","","","null","50","","","","","","","","","","","","","","","",""
"","time_out","","html-keyboard-response","339","416941","0.0-1.0-458.0-0.0","0","0","38972","","null","","","null","50","","","","","","","","","","","","","","","",""
"","ITI","","html-keyboard-response","340","417946","0.0-1.0-459.0","0","0","38972","","null","","","null","50","","","","","","","","","","","","","","","NaN",""
"","S1","","html-keyboard-response","341","418204","0.0-1.0-461.0","0","0","38972","","null","","","null","51","","","","","","","","","","","","","","","",""
"","ISI","","html-keyboard-response","342","420213","0.0-1.0-462.0","0","0","38972","","null","","","null","51","NaN","","","","","","","","","","","","","","",""
"","S2","","html-keyboard-response","343","420469","0.0-1.0-463.0","0","0","38972","","null","","","null","51","","NaN","","","","","","","","","","","","","",""
"","response","","html-keyboard-response","344","420479","0.0-1.0-464.0","0","0","38972","","4","","","68","51","","","2","51","training","adjacent","GF","7","6","P.jpg","L.jpg","1","0","0","",""
"","feedback","","html-keyboard-response","345","421485","0.0-1.0-465.0-0.0","0","0","38972","","null","","","null","51","","","","","","","","","","","","","","","",""
"","time_out","","html-keyboard-response","346","423490","0.0-1.0-467.0-0.0","0","0","38972","","null","","","null","51","","","","","","","","","","","","","","","",""
"","ITI","","html-keyboard-response","347","424495","0.0-1.0-468.0","0","0","38972","","null","","","null","51","","","","","","","","","","","","","","","NaN",""
"","S1","","html-keyboard-response","348","424752","0.0-1.0-470.0","0","0","38972","","null","","","null","52","","","","","","","","","","","","","","","",""
"","ISI","","html-keyboard-response","349","426759","0.0-1.0-471.0","0","0","38972","","null","","","null","52","NaN","","","","","","","","","","","","","","",""
"","S2","","html-keyboard-response","350","427017","0.0-1.0-472.0","0","0","38972","","null","","","null","52","","NaN","","","","","","","","","","","","","",""
"","response","","html-keyboard-response","351","427058","0.0-1.0-473.0","0","0","38972","","36","","","75","52","","","2","52","training","adjacent","EF","5","6","Q.jpg","L.jpg","0","1","0","",""
"","feedback","","html-keyboard-response","352","428068","0.0-1.0-474.0-0.0","0","0","38972","","null","","","null","52","","","","","","","","","","","","","","","",""
"","time_out","","html-keyboard-response","353","430076","0.0-1.0-476.0-0.0","0","0","38972","","null","","","null","52","","","","","","","","","","","","","","","",""
"","ITI","","html-keyboard-response","354","431081","0.0-1.0-477.0","0","0","38972","","null","","","null","52","","","","","","","","","","","","","","","NaN",""
"","S1","","html-keyboard-response","355","431337","0.0-1.0-479.0","0","0","38972","","null","","","null","53","","","","","","","","","","","","","","","",""
"","ISI","","html-keyboard-response","356","433342","0.0-1.0-480.0","0","0","38972","","null","","","null","53","NaN","","","","","","","","","","","","","","",""
"","S2","","html-keyboard-response","357","433599","0.0-1.0-481.0","0","0","38972","","null","","","null","53","","NaN","","","","","","","","","","","","","",""
"","response","","html-keyboard-response","358","433617","0.0-1.0-482.0","0","0","38972","","14","","","75","53","","","2","53","training","adjacent","CB","3","2","M.jpg","R.jpg","0","0","1","",""
"","feedback","","html-keyboard-response","359","434622","0.0-1.0-483.0-0.0","0","0","38972","","null","","","null","53","","","","","","","","","","","","","","","",""
"","ITI","","html-keyboard-response","360","435631","0.0-1.0-486.0","0","0","38972","","null","","","null","53","","","","","","","","","","","","","","","NaN",""
"","S1","","html-keyboard-response","361","435890","0.0-1.0-488.0","0","0","38972","","null","","","null","54","","","","","","","","","","","","","","","",""
"","ISI","","html-keyboard-response","362","437897","0.0-1.0-489.0","0","0","38972","","null","","","null","54","NaN","","","","","","","","","","","","","","",""
"","S2","","html-keyboard-response","363","438153","0.0-1.0-490.0","0","0","38972","","null","","","null","54","","NaN","","","","","","","","","","","","","",""
"","response","","html-keyboard-response","364","438174","0.0-1.0-491.0","0","0","38972","","17","","","75","54","","","2","54","training","adjacent","ED","5","4","Q.jpg","O.jpg","0","0","1","",""
"","feedback","","html-keyboard-response","365","439180","0.0-1.0-492.0-0.0","0","0","38972","","null","","","null","54","","","","","","","","","","","","","","","",""
"","ITI","","html-keyboard-response","366","440185","0.0-1.0-495.0","0","0","38972","","null","","","null","54","","","","","","","","","","","","","","","NaN",""
"","S1","","html-keyboard-response","367","440444","0.0-1.0-497.0","0","0","38972","","null","","","null","55","","","","","","","","","","","","","","","",""
"","ISI","","html-keyboard-response","368","442452","0.0-1.0-498.0","0","0","38972","","null","","","null","55","NaN","","","","","","","","","","","","","","",""
"","S2","","html-keyboard-response","369","442711","0.0-1.0-499.0","0","0","38972","","null","","","null","55","","NaN","","","","","","","","","","","","","",""
"","response","","html-keyboard-response","370","442757","0.0-1.0-500.0","0","0","38972","","40","","","68","55","","","2","55","training","adjacent","FE","6","5","L.jpg","Q.jpg","1","0","0","",""
"","feedback","","html-keyboard-response","371","443762","0.0-1.0-501.0-0.0","0","0","38972","","null","","","null","55","","","","","","","","","","","","","","","",""
"","time_out","","html-keyboard-response","372","445769","0.0-1.0-503.0-0.0","0","0","38972","","null","","","null","55","","","","","","","","","","","","","","","",""
"","ITI","","html-keyboard-response","373","446776","0.0-1.0-504.0","0","0","38972","","null","","","null","55","","","","","","","","","","","","","","","NaN",""
"","S1","","html-keyboard-response","374","447041","0.0-1.0-506.0","0","0","38972","","null","","","null","56","","","","","","","","","","","","","","","",""
"","ISI","","html-keyboard-response","375","449047","0.0-1.0-507.0","0","0","38972","","null","","","null","56","NaN","","","","","","","","","","","","","","",""
"","S2","","html-keyboard-response","376","449303","0.0-1.0-508.0","0","0","38972","","228","","","75","56","","k","","","","","","","","","","","","","",""
"","response","","html-keyboard-response","377","449740","0.0-1.0-509.0","0","0","38972","","433","","","75","56","","","2","56","training","adjacent","DC","4","3","O.jpg","M.jpg","0","0","1","",""
"","feedback","","html-keyboard-response","378","450746","0.0-1.0-510.0-0.0","0","0","38972","","null","","","null","56","","","","","","","","","","","","","","","",""
"","ITI","","html-keyboard-response","379","451752","0.0-1.0-513.0","0","0","38972","","null","","","null","56","","","","","","","","","","","","","","","NaN",""
"","S1","","html-keyboard-response","380","452008","0.0-1.0-515.0","0","0","38972","","null","","","null","57","","","","","","","","","","","","","","","",""
"","ISI","","html-keyboard-response","381","454012","0.0-1.0-516.0","0","0","38972","","null","","","null","57","NaN","","","","","","","","","","","","","","",""
"","S2","","html-keyboard-response","382","454271","0.0-1.0-517.0","0","0","38972","","null","","","null","57","","NaN","","","","","","","","","","","","","",""
"","response","","html-keyboard-response","383","454280","0.0-1.0-518.0","0","0","38972","","3","","","75","57","","","2","57","training","adjacent","DE","4","5","O.jpg","Q.jpg","0","1","0","",""
"","feedback","","html-keyboard-response","384","455285","0.0-1.0-519.0-0.0","0","0","38972","","null","","","null","57","","","","","","","","","","","","","","","",""
"","time_out","","html-keyboard-response","385","457290","0.0-1.0-521.0-0.0","0","0","38972","","null","","","null","57","","","","","","","","","","","","","","","",""
"","ITI","","html-keyboard-response","386","458295","0.0-1.0-522.0","0","0","38972","","null","","","null","57","","","","","","","","","","","","","","","NaN",""
"","S1","","html-keyboard-response","387","458553","0.0-1.0-524.0","0","0","38972","","null","","","null","58","","","","","","","","","","","","","","","",""
"","ISI","","html-keyboard-response","388","460557","0.0-1.0-525.0","0","0","38972","","null","","","null","58","NaN","","","","","","","","","","","","","","",""
"","S2","","html-keyboard-response","389","460813","0.0-1.0-526.0","0","0","38972","","239","","","68","58","","d","","","","","","","","","","","","","",""
"","response","","html-keyboard-response","390","461167","0.0-1.0-527.0","0","0","38972","","349","","","68","58","","","2","58","training","adjacent","FG","6","7","L.jpg","P.jpg","1","1","1","",""
"","feedback","","html-keyboard-response","391","462172","0.0-1.0-528.0-0.0","0","0","38972","","null","","","null","58","","","","","","","","","","","","","","","",""
"","ITI","","html-keyboard-response","392","463178","0.0-1.0-531.0","0","0","38972","","null","","","null","58","","","","","","","","","","","","","","","NaN",""
"","S1","","html-keyboard-response","393","463434","0.0-1.0-533.0","0","0","38972","","null","","","null","59","","","","","","","","","","","","","","","",""
"","ISI","","html-keyboard-response","394","465439","0.0-1.0-534.0","0","0","38972","","null","","","null","59","NaN","","","","","","","","","","","","","","",""
"","S2","","html-keyboard-response","395","465694","0.0-1.0-535.0","0","0","38972","","null","","","null","59","","NaN","","","","","","","","","","","","","",""
"","response","","html-keyboard-response","396","465910","0.0-1.0-536.0","0","0","38972","","212","","","68","59","","","2","59","training","adjacent","BA","2","1","R.jpg","N.jpg","1","0","0","",""
"","feedback","","html-keyboard-response","397","466916","0.0-1.0-537.0-0.0","0","0","38972","","null","","","null","59","","","","","","","","","","","","","","","",""
"","time_out","","html-keyboard-response","398","468921","0.0-1.0-539.0-0.0","0","0","38972","","null","","","null","59","","","","","","","","","","","","","","","",""
"","ITI","","html-keyboard-response","399","469925","0.0-1.0-540.0","0","0","38972","","null","","","null","59","","","","","","","","","","","","","","","NaN",""
"","S1","","html-keyboard-response","400","470181","0.0-1.0-542.0","0","0","38972","","null","","","null","60","","","","","","","","","","","","","","","",""
"","ISI","","html-keyboard-response","401","472185","0.0-1.0-543.0","0","0","38972","","null","","","null","60","NaN","","","","","","","","","","","","","","",""
"","S2","","html-keyboard-response","402","472441","0.0-1.0-544.0","0","0","38972","","null","","","null","60","","NaN","","","","","","","","","","","","","",""
"","response","","html-keyboard-response","403","472704","0.0-1.0-545.0","0","0","38972","","259","","","75","60","","","2","60","training","adjacent","DC","4","3","O.jpg","M.jpg","0","0","1","",""
"","feedback","","html-keyboard-response","404","473711","0.0-1.0-546.0-0.0","0","0","38972","","null","","","null","60","","","","","","","","","","","","","","","",""
"","ITI","","html-keyboard-response","405","474721","0.0-1.0-549.0","0","0","38972","","null","","","null","60","","","","","","","","","","","","","","","NaN",""
"","S1","","html-keyboard-response","406","474977","0.0-1.0-551.0","0","0","38972","","null","","","null","61","","","","","","","","","","","","","","","",""
"","ISI","","html-keyboard-response","407","476981","0.0-1.0-552.0","0","0","38972","","null","","","null","61","NaN","","","","","","","","","","","","","","",""
"","S2","","html-keyboard-response","408","477236","0.0-1.0-553.0","0","0","38972","","null","","","null","61","","NaN","","","","","","","","","","","","","",""
"","response","","html-keyboard-response","409","477268","0.0-1.0-554.0","0","0","38972","","26","","","75","61","","","2","61","training","adjacent","EF","5","6","Q.jpg","L.jpg","0","1","0","",""
"","feedback","","html-keyboard-response","410","478277","0.0-1.0-555.0-0.0","0","0","38972","","null","","","null","61","","","","","","","","","","","","","","","",""
"","time_out","","html-keyboard-response","411","480284","0.0-1.0-557.0-0.0","0","0","38972","","null","","","null","61","","","","","","","","","","","","","","","",""
"","ITI","","html-keyboard-response","412","481289","0.0-1.0-558.0","0","0","38972","","null","","","null","61","","","","","","","","","","","","","","","NaN",""
"","S1","","html-keyboard-response","413","481545","0.0-1.0-560.0","0","0","38972","","null","","","null","62","","","","","","","","","","","","","","","",""
"","ISI","","html-keyboard-response","414","483551","0.0-1.0-561.0","0","0","38972","","null","","","null","62","NaN","","","","","","","","","","","","","","",""
"","S2","","html-keyboard-response","415","483812","0.0-1.0-562.0","0","0","38972","","null","","","null","62","","NaN","","","","","","","","","","","","","",""
"","response","","html-keyboard-response","416","484045","0.0-1.0-563.0","0","0","38972","","227","","","75","62","","","2","62","training","adjacent","AB","1","2","N.jpg","R.jpg","0","1","0","",""
"","feedback","","html-keyboard-response","417","485052","0.0-1.0-564.0-0.0","0","0","38972","","null","","","null","62","","","","","","","","","","","","","","","",""
"","time_out","","html-keyboard-response","418","487061","0.0-1.0-566.0-0.0","0","0","38972","","null","","","null","62","","","","","","","","","","","","","","","",""
"","ITI","","html-keyboard-response","419","488068","0.0-1.0-567.0","0","0","38972","","null","","","null","62","","","","","","","","","","","","","","","NaN",""
"","S1","","html-keyboard-response","420","488325","0.0-1.0-569.0","0","0","38972","","null","","","null","63","","","","","","","","","","","","","","","",""
"","ISI","","html-keyboard-response","421","490334","0.0-1.0-570.0","0","0","38972","","null","","","null","63","NaN","","","","","","","","","","","","","","",""
"","S2","","html-keyboard-response","422","490593","0.0-1.0-571.0","0","0","38972","","null","","","null","63","","NaN","","","","","","","","","","","","","",""
"","response","","html-keyboard-response","423","490833","0.0-1.0-572.0","0","0","38972","","233","","","68","63","","","2","63","training","adjacent","CD","3","4","M.jpg","O.jpg","1","1","1","",""
"","feedback","","html-keyboard-response","424","491842","0.0-1.0-573.0-0.0","0","0","38972","","null","","","null","63","","","","","","","","","","","","","","","",""
"","ITI","","html-keyboard-response","425","492853","0.0-1.0-576.0","0","0","38972","","null","","","null","63","","","","","","","","","","","","","","","NaN",""
"","S1","","html-keyboard-response","426","493116","0.0-1.0-578.0","0","0","38972","","null","","","null","64","","","","","","","","","","","","","","","",""
"","ISI","","html-keyboard-response","427","495122","0.0-1.0-579.0","0","0","38972","","null","","","null","64","NaN","","","","","","","","","","","","","","",""
"","S2","","html-keyboard-response","428","495377","0.0-1.0-580.0","0","0","38972","","null","","","null","64","","NaN","","","","","","","","","","","","","",""
"","response","","html-keyboard-response","429","495769","0.0-1.0-581.0","0","0","38972","","386","","","75","64","","","2","64","training","adjacent","AB","1","2","N.jpg","R.jpg","0","1","0","",""
"","feedback","","html-keyboard-response","430","496776","0.0-1.0-582.0-0.0","0","0","38972","","null","","","null","64","","","","","","","","","","","","","","","",""
"","time_out","","html-keyboard-response","431","498782","0.0-1.0-584.0-0.0","0","0","38972","","null","","","null","64","","","","","","","","","","","","","","","",""
"","ITI","","html-keyboard-response","432","499789","0.0-1.0-585.0","0","0","38972","","null","","","null","64","","","","","","","","","","","","","","","NaN",""
"","S1","","html-keyboard-response","433","500045","0.0-1.0-587.0","0","0","38972","","null","","","null","65","","","","","","","","","","","","","","","",""
"","ISI","","html-keyboard-response","434","502049","0.0-1.0-588.0","0","0","38972","","null","","","null","65","NaN","","","","","","","","","","","","","","",""
"","S2","","html-keyboard-response","435","502304","0.0-1.0-589.0","0","0","38972","","null","","","null","65","","NaN","","","","","","","","","","","","","",""
"","response","","html-keyboard-response","436","502499","0.0-1.0-590.0","0","0","38972","","189","","","68","65","","","2","65","training","adjacent","FE","6","5","L.jpg","Q.jpg","1","0","0","",""
"","feedback","","html-keyboard-response","437","503509","0.0-1.0-591.0-0.0","0","0","38972","","null","","","null","65","","","","","","","","","","","","","","","",""
"","time_out","","html-keyboard-response","438","505522","0.0-1.0-593.0-0.0","0","0","38972","","null","","","null","65","","","","","","","","","","","","","","","",""
"","ITI","","html-keyboard-response","439","506526","0.0-1.0-594.0","0","0","38972","","null","","","null","65","","","","","","","","","","","","","","","NaN",""
"","S1","","html-keyboard-response","440","506782","0.0-1.0-596.0","0","0","38972","","null","","","null","66","","","","","","","","","","","","","","","",""
"","ISI","","html-keyboard-response","441","508787","0.0-1.0-597.0","0","0","38972","","null","","","null","66","NaN","","","","","","","","","","","","","","",""
"","S2","","html-keyboard-response","442","509042","0.0-1.0-598.0","0","0","38972","","null","","","null","66","","NaN","","","","","","","","","","","","","",""
"","response","","html-keyboard-response","443","509160","0.0-1.0-599.0","0","0","38972","","108","","","75","66","","","2","66","training","adjacent","BC","2","3","R.jpg","M.jpg","0","1","0","",""
"","feedback","","html-keyboard-response","444","510168","0.0-1.0-600.0-0.0","0","0","38972","","null","","","null","66","","","","","","","","","","","","","","","",""
"","time_out","","html-keyboard-response","445","512174","0.0-1.0-602.0-0.0","0","0","38972","","null","","","null","66","","","","","","","","","","","","","","","",""
"","ITI","","html-keyboard-response","446","513179","0.0-1.0-603.0","0","0","38972","","null","","","null","66","","","","","","","","","","","","","","","NaN",""
"","S1","","html-keyboard-response","447","513436","0.0-1.0-605.0","0","0","38972","","null","","","null","67","","","","","","","","","","","","","","","",""
"","ISI","","html-keyboard-response","448","515444","0.0-1.0-606.0","0","0","38972","","null","","","null","67","NaN","","","","","","","","","","","","","","",""
"","S2","","html-keyboard-response","449","515704","0.0-1.0-607.0","0","0","38972","","null","","","null","67","","NaN","","","","","","","","","","","","","",""
"","response","","html-keyboard-response","450","515725","0.0-1.0-608.0","0","0","38972","","16","","","68","67","","","2","67","training","adjacent","GF","7","6","P.jpg","L.jpg","1","0","0","",""
"","feedback","","html-keyboard-response","451","516730","0.0-1.0-609.0-0.0","0","0","38972","","null","","","null","67","","","","","","","","","","","","","","","",""
"","time_out","","html-keyboard-response","452","518735","0.0-1.0-611.0-0.0","0","0","38972","","null","","","null","67","","","","","","","","","","","","","","","",""
"","ITI","","html-keyboard-response","453","519740","0.0-1.0-612.0","0","0","38972","","null","","","null","67","","","","","","","","","","","","","","","NaN",""
"","S1","","html-keyboard-response","454","519996","0.0-1.0-614.0","0","0","38972","","null","","","null","68","","","","","","","","","","","","","","","",""
"","ISI","","html-keyboard-response","455","522001","0.0-1.0-615.0","0","0","38972","","null","","","null","68","NaN","","","","","","","","","","","","","","",""
"","S2","","html-keyboard-response","456","522256","0.0-1.0-616.0","0","0","38972","","null","","","null","68","","NaN","","","","","","","","","","","","","",""
"","response","","html-keyboard-response","457","522351","0.0-1.0-617.0","0","0","38972","","91","","","75","68","","","2","68","training","adjacent","CB","3","2","M.jpg","R.jpg","0","0","1","",""
"","feedback","","html-keyboard-response","458","523357","0.0-1.0-618.0-0.0","0","0","38972","","null","","","null","68","","","","","","","","","","","","","","","",""
"","ITI","","html-keyboard-response","459","524362","0.0-1.0-621.0","0","0","38972","","null","","","null","68","","","","","","","","","","","","","","","NaN",""
"","S1","","html-keyboard-response","460","524617","0.0-1.0-623.0","0","0","38972","","null","","","null","69","","","","","","","","","","","","","","","",""
"","ISI","","html-keyboard-response","461","526622","0.0-1.0-624.0","0","0","38972","","null","","","null","69","NaN","","","","","","","","","","","","","","",""
"","S2","","html-keyboard-response","462","526878","0.0-1.0-625.0","0","0","38972","","null","","","null","69","","NaN","","","","","","","","","","","","","",""
"","response","","html-keyboard-response","463","527159","0.0-1.0-626.0","0","0","38972","","276","","","75","69","","","2","69","training","adjacent","DE","4","5","O.jpg","Q.jpg","0","1","0","",""
"","feedback","","html-keyboard-response","464","528164","0.0-1.0-627.0-0.0","0","0","38972","","null","","","null","69","","","","","","","","","","","","","","","",""
"","time_out","","html-keyboard-response","465","530169","0.0-1.0-629.0-0.0","0","0","38972","","null","","","null","69","","","","","","","","","","","","","","","",""
"","ITI","","html-keyboard-response","466","531173","0.0-1.0-630.0","0","0","38972","","null","","","null","69","","","","","","","","","","","","","","","NaN",""
"","S1","","html-keyboard-response","467","531429","0.0-1.0-632.0","0","0","38972","","null","","","null","70","","","","","","","","","","","","","","","",""
"","ISI","","html-keyboard-response","468","533434","0.0-1.0-633.0","0","0","38972","","null","","","null","70","NaN","","","","","","","","","","","","","","",""
"","S2","","html-keyboard-response","469","533689","0.0-1.0-634.0","0","0","38972","","null","","","null","70","","NaN","","","","","","","","","","","","","",""
"","response","","html-keyboard-response","470","533702","0.0-1.0-635.0","0","0","38972","","7","","","75","70","","","2","70","training","adjacent","GF","7","6","P.jpg","L.jpg","0","0","1","",""
"","feedback","","html-keyboard-response","471","534707","0.0-1.0-636.0-0.0","0","0","38972","","null","","","null","70","","","","","","","","","","","","","","","",""
"","ITI","","html-keyboard-response","472","535712","0.0-1.0-639.0","0","0","38972","","null","","","null","70","","","","","","","","","","","","","","","NaN",""
"","S1","","html-keyboard-response","473","535969","0.0-1.0-641.0","0","0","38972","","null","","","null","71","","","","","","","","","","","","","","","",""
"","ISI","","html-keyboard-response","474","537975","0.0-1.0-642.0","0","0","38972","","null","","","null","71","NaN","","","","","","","","","","","","","","",""
"","S2","","html-keyboard-response","475","538232","0.0-1.0-643.0","0","0","38972","","null","","","null","71","","NaN","","","","","","","","","","","","","",""
"","response","","html-keyboard-response","476","538238","0.0-1.0-644.0","0","0","38972","","1","","","68","71","","","2","71","training","adjacent","EF","5","6","Q.jpg","L.jpg","1","1","1","",""
"","feedback","","html-keyboard-response","477","539243","0.0-1.0-645.0-0.0","0","0","38972","","null","","","null","71","","","","","","","","","","","","","","","",""
"","ITI","","html-keyboard-response","478","540251","0.0-1.0-648.0","0","0","38972","","null","","","null","71","","","","","","","","","","","","","","","NaN",""
"","S1","","html-keyboard-response","479","540509","0.0-1.0-650.0","0","0","38972","","null","","","null","72","","","","","","","","","","","","","","","",""
"","ISI","","html-keyboard-response","480","542515","0.0-1.0-651.0","0","0","38972","","null","","","null","72","NaN","","","","","","","","","","","","","","",""
"","S2","","html-keyboard-response","481","542774","0.0-1.0-652.0","0","0","38972","","null","","","null","72","","NaN","","","","","","","","","","","","","",""
"","response","","html-keyboard-response","482","542944","0.0-1.0-653.0","0","0","38972","","162","","","75","72","","","2","72","training","adjacent","CB","3","2","M.jpg","R.jpg","0","0","1","",""
"","feedback","","html-keyboard-response","483","543954","0.0-1.0-654.0-0.0","0","0","38972","","null","","","null","72","","","","","","","","","","","","","","","",""
"","ITI","","html-keyboard-response","484","544962","0.0-1.0-657.0","0","0","38972","","null","","","null","72","","","","","","","","","","","","","","","NaN",""
"","S1","","html-keyboard-response","485","545218","0.0-1.0-659.0","0","0","38972","","null","","","null","73","","","","","","","","","","","","","","","",""
"","ISI","","html-keyboard-response","486","547223","0.0-1.0-660.0","0","0","38972","","null","","","null","73","NaN","","","","","","","","","","","","","","",""
"","S2","","html-keyboard-response","487","547479","0.0-1.0-661.0","0","0","38972","","null","","","null","73","","NaN","","","","","","","","","","","","","",""
"","response","","html-keyboard-response","488","547501","0.0-1.0-662.0","0","0","38972","","17","","","68","73","","","2","73","training","adjacent","BC","2","3","R.jpg","M.jpg","1","1","1","",""
"","feedback","","html-keyboard-response","489","548507","0.0-1.0-663.0-0.0","0","0","38972","","null","","","null","73","","","","","","","","","","","","","","","",""
"","ITI","","html-keyboard-response","490","549512","0.0-1.0-666.0","0","0","38972","","419","","","75","73","","","","","","","","","","","","","","","k",""
"","S1","","html-keyboard-response","491","549769","0.0-1.0-668.0","0","0","38972","","null","","","null","74","","","","","","","","","","","","","","","",""
"","ISI","","html-keyboard-response","492","551775","0.0-1.0-669.0","0","0","38972","","null","","","null","74","NaN","","","","","","","","","","","","","","",""
"","S2","","html-keyboard-response","493","552033","0.0-1.0-670.0","0","0","38972","","null","","","null","74","","NaN","","","","","","","","","","","","","",""
"","response","","html-keyboard-response","494","552256","0.0-1.0-671.0","0","0","38972","","215","","","68","74","","","2","74","training","adjacent","FG","6","7","L.jpg","P.jpg","1","1","1","",""
"","feedback","","html-keyboard-response","495","553265","0.0-1.0-672.0-0.0","0","0","38972","","null","","","null","74","","","","","","","","","","","","","","","",""
"","ITI","","html-keyboard-response","496","554275","0.0-1.0-675.0","0","0","38972","","null","","","null","74","","","","","","","","","","","","","","","NaN",""
"","S1","","html-keyboard-response","497","554531","0.0-1.0-677.0","0","0","38972","","null","","","null","75","","","","","","","","","","","","","","","",""
"","ISI","","html-keyboard-response","498","556536","0.0-1.0-678.0","0","0","38972","","null","","","null","75","NaN","","","","","","","","","","","","","","",""
"","S2","","html-keyboard-response","499","556792","0.0-1.0-679.0","0","0","38972","","null","","","null","75","","NaN","","","","","","","","","","","","","",""
"","response","","html-keyboard-response","500","556830","0.0-1.0-680.0","0","0","38972","","33","","","68","75","","","2","75","training","adjacent","FG","6","7","L.jpg","P.jpg","1","1","1","",""
"","feedback","","html-keyboard-response","501","557835","0.0-1.0-681.0-0.0","0","0","38972","","null","","","null","75","","","","","","","","","","","","","","","",""
"","ITI","","html-keyboard-response","502","558842","0.0-1.0-684.0","0","0","38972","","null","","","null","75","","","","","","","","","","","","","","","NaN",""
"","S1","","html-keyboard-response","503","559101","0.0-1.0-686.0","0","0","38972","","null","","","null","76","","","","","","","","","","","","","","","",""
"","ISI","","html-keyboard-response","504","561108","0.0-1.0-687.0","0","0","38972","","null","","","null","76","NaN","","","","","","","","","","","","","","",""
"","S2","","html-keyboard-response","505","561365","0.0-1.0-688.0","0","0","38972","","null","","","null","76","","NaN","","","","","","","","","","","","","",""
"","response","","html-keyboard-response","506","561457","0.0-1.0-689.0","0","0","38972","","84","","","68","76","","","2","76","training","adjacent","BC","2","3","R.jpg","M.jpg","1","1","1","",""
"","feedback","","html-keyboard-response","507","562463","0.0-1.0-690.0-0.0","0","0","38972","","null","","","null","76","","","","","","","","","","","","","","","",""
"","ITI","","html-keyboard-response","508","563472","0.0-1.0-693.0","0","0","38972","","null","","","null","76","","","","","","","","","","","","","","","NaN",""
"","S1","","html-keyboard-response","509","563735","0.0-1.0-695.0","0","0","38972","","null","","","null","77","","","","","","","","","","","","","","","",""
"","ISI","","html-keyboard-response","510","565745","0.0-1.0-696.0","0","0","38972","","null","","","null","77","NaN","","","","","","","","","","","","","","",""
"","S2","","html-keyboard-response","511","566006","0.0-1.0-697.0","0","0","38972","","null","","","null","77","","NaN","","","","","","","","","","","","","",""
"","response","","html-keyboard-response","512","566045","0.0-1.0-698.0","0","0","38972","","31","","","75","77","","","2","77","training","adjacent","GF","7","6","P.jpg","L.jpg","0","0","1","",""
"","feedback","","html-keyboard-response","513","567055","0.0-1.0-699.0-0.0","0","0","38972","","null","","","null","77","","","","","","","","","","","","","","","",""
"","ITI","","html-keyboard-response","514","568066","0.0-1.0-702.0","0","0","38972","","null","","","null","77","","","","","","","","","","","","","","","NaN",""
"","S1","","html-keyboard-response","515","568329","0.0-1.0-704.0","0","0","38972","","null","","","null","78","","","","","","","","","","","","","","","",""
"","ISI","","html-keyboard-response","516","570336","0.0-1.0-705.0","0","0","38972","","null","","","null","78","NaN","","","","","","","","","","","","","","",""
"","S2","","html-keyboard-response","517","570592","0.0-1.0-706.0","0","0","38972","","null","","","null","78","","NaN","","","","","","","","","","","","","",""
"","response","","html-keyboard-response","518","570700","0.0-1.0-707.0","0","0","38972","","102","","","68","78","","","2","78","training","adjacent","DE","4","5","O.jpg","Q.jpg","1","1","1","",""
"","feedback","","html-keyboard-response","519","571705","0.0-1.0-708.0-0.0","0","0","38972","","null","","","null","78","","","","","","","","","","","","","","","",""
"","ITI","","html-keyboard-response","520","572711","0.0-1.0-711.0","0","0","38972","","null","","","null","78","","","","","","","","","","","","","","","NaN",""
"","S1","","html-keyboard-response","521","572967","0.0-1.0-713.0","0","0","38972","","null","","","null","79","","","","","","","","","","","","","","","",""
"","ISI","","html-keyboard-response","522","574972","0.0-1.0-714.0","0","0","38972","","null","","","null","79","NaN","","","","","","","","","","","","","","",""
"","S2","","html-keyboard-response","523","575229","0.0-1.0-715.0","0","0","38972","","245","","","75","79","","k","","","","","","","","","","","","","",""
"","response","","html-keyboard-response","524","575423","0.0-1.0-716.0","0","0","38972","","188","","","75","79","","","2","79","training","adjacent","ED","5","4","Q.jpg","O.jpg","0","0","1","",""
"","feedback","","html-keyboard-response","525","576429","0.0-1.0-717.0-0.0","0","0","38972","","null","","","null","79","","","","","","","","","","","","","","","",""
"","ITI","","html-keyboard-response","526","577434","0.0-1.0-720.0","0","0","38972","","null","","","null","79","","","","","","","","","","","","","","","NaN",""
"","S1","","html-keyboard-response","527","577690","0.0-1.0-722.0","0","0","38972","","null","","","null","80","","","","","","","","","","","","","","","",""
"","ISI","","html-keyboard-response","528","579694","0.0-1.0-723.0","0","0","38972","","null","","","null","80","NaN","","","","","","","","","","","","","","",""
"","S2","","html-keyboard-response","529","579951","0.0-1.0-724.0","0","0","38972","","null","","","null","80","","NaN","","","","","","","","","","","","","",""
"","response","","html-keyboard-response","530","580028","0.0-1.0-725.0","0","0","38972","","72","","","75","80","","","2","80","training","adjacent","AB","1","2","N.jpg","R.jpg","0","1","0","",""
"","feedback","","html-keyboard-response","531","581033","0.0-1.0-726.0-0.0","0","0","38972","","null","","","null","80","","","","","","","","","","","","","","","",""
"","time_out","","html-keyboard-response","532","583044","0.0-1.0-728.0-0.0","0","0","38972","","null","","","null","80","","","","","","","","","","","","","","","",""
"","ITI","","html-keyboard-response","533","584051","0.0-1.0-729.0","0","0","38972","","null","","","null","80","","","","","","","","","","","","","","","NaN",""
"","S1","","html-keyboard-response","534","584308","0.0-1.0-731.0","0","0","38972","","null","","","null","81","","","","","","","","","","","","","","","",""
"","ISI","","html-keyboard-response","535","586314","0.0-1.0-732.0","0","0","38972","","null","","","null","81","NaN","","","","","","","","","","","","","","",""
"","S2","","html-keyboard-response","536","586569","0.0-1.0-733.0","0","0","38972","","null","","","null","81","","NaN","","","","","","","","","","","","","",""
"","response","","html-keyboard-response","537","586780","0.0-1.0-734.0","0","0","38972","","207","","","68","81","","","2","81","training","adjacent","ED","5","4","Q.jpg","O.jpg","1","0","0","",""
"","feedback","","html-keyboard-response","538","587785","0.0-1.0-735.0-0.0","0","0","38972","","null","","","null","81","","","","","","","","","","","","","","","",""
"","time_out","","html-keyboard-response","539","589790","0.0-1.0-737.0-0.0","0","0","38972","","null","","","null","81","","","","","","","","","","","","","","","",""
"","ITI","","html-keyboard-response","540","590796","0.0-1.0-738.0","0","0","38972","","null","","","null","81","","","","","","","","","","","","","","","NaN",""
"","S1","","html-keyboard-response","541","591056","0.0-1.0-740.0","0","0","38972","","null","","","null","82","","","","","","","","","","","","","","","",""
"","ISI","","html-keyboard-response","542","593061","0.0-1.0-741.0","0","0","38972","","null","","","null","82","NaN","","","","","","","","","","","","","","",""
"","S2","","html-keyboard-response","543","593317","0.0-1.0-742.0","0","0","38972","","null","","","null","82","","NaN","","","","","","","","","","","","","",""
"","response","","html-keyboard-response","544","593472","0.0-1.0-743.0","0","0","38972","","150","","","68","82","","","2","82","training","adjacent","CD","3","4","M.jpg","O.jpg","1","1","1","",""
"","feedback","","html-keyboard-response","545","594479","0.0-1.0-744.0-0.0","0","0","38972","","null","","","null","82","","","","","","","","","","","","","","","",""
"","ITI","","html-keyboard-response","546","595491","0.0-1.0-747.0","0","0","38972","","null","","","null","82","","","","","","","","","","","","","","","NaN",""
"","S1","","html-keyboard-response","547","595751","0.0-1.0-749.0","0","0","38972","","null","","","null","83","","","","","","","","","","","","","","","",""
"","ISI","","html-keyboard-response","548","597760","0.0-1.0-750.0","0","0","38972","","null","","","null","83","NaN","","","","","","","","","","","","","","",""
"","S2","","html-keyboard-response","549","598021","0.0-1.0-751.0","0","0","38972","","null","","","null","83","","NaN","","","","","","","","","","","","","",""
"","response","","html-keyboard-response","550","598102","0.0-1.0-752.0","0","0","38972","","73","","","68","83","","","2","83","training","adjacent","BC","2","3","R.jpg","M.jpg","1","1","1","",""
"","feedback","","html-keyboard-response","551","599111","0.0-1.0-753.0-0.0","0","0","38972","","null","","","null","83","","","","","","","","","","","","","","","",""
"","ITI","","html-keyboard-response","552","600121","0.0-1.0-756.0","0","0","38972","","null","","","null","83","","","","","","","","","","","","","","","NaN",""
"","S1","","html-keyboard-response","553","600383","0.0-1.0-758.0","0","0","38972","","null","","","null","84","","","","","","","","","","","","","","","",""
"","ISI","","html-keyboard-response","554","602389","0.0-1.0-759.0","0","0","38972","","null","","","null","84","NaN","","","","","","","","","","","","","","",""
"","S2","","html-keyboard-response","555","602644","0.0-1.0-760.0","0","0","38972","","null","","","null","84","","NaN","","","","","","","","","","","","","",""
"","response","","html-keyboard-response","556","602926","0.0-1.0-761.0","0","0","38972","","278","","","75","84","","","2","84","training","adjacent","DC","4","3","O.jpg","M.jpg","0","0","1","",""
"","feedback","","html-keyboard-response","557","603932","0.0-1.0-762.0-0.0","0","0","38972","","null","","","null","84","","","","","","","","","","","","","","","",""
"","ITI","","html-keyboard-response","558","604937","0.0-1.0-765.0","0","0","38972","","null","","","null","84","","","","","","","","","","","","","","","NaN",""
"","S1","","html-keyboard-response","559","605196","0.0-1.0-767.0","0","0","38972","","null","","","null","85","","","","","","","","","","","","","","","",""
"","ISI","","html-keyboard-response","560","607204","0.0-1.0-768.0","0","0","38972","","null","","","null","85","NaN","","","","","","","","","","","","","","",""
"","S2","","html-keyboard-response","561","607464","0.0-1.0-769.0","0","0","38972","","null","","","null","85","","NaN","","","","","","","","","","","","","",""
"","response","","html-keyboard-response","562","607887","0.0-1.0-770.0","0","0","38972","","411","","","75","85","","","2","85","training","adjacent","FG","6","7","L.jpg","P.jpg","0","1","0","",""
"","feedback","","html-keyboard-response","563","608897","0.0-1.0-771.0-0.0","0","0","38972","","null","","","null","85","","","","","","","","","","","","","","","",""
"","time_out","","html-keyboard-response","564","610906","0.0-1.0-773.0-0.0","0","0","38972","","null","","","null","85","","","","","","","","","","","","","","","",""
"","ITI","","html-keyboard-response","565","611912","0.0-1.0-774.0","0","0","38972","","null","","","null","85","","","","","","","","","","","","","","","NaN",""
"","S1","","html-keyboard-response","566","612171","0.0-1.0-776.0","0","0","38972","","null","","","null","86","","","","","","","","","","","","","","","",""
"","ISI","","html-keyboard-response","567","614176","0.0-1.0-777.0","0","0","38972","","null","","","null","86","NaN","","","","","","","","","","","","","","",""
"","S2","","html-keyboard-response","568","614432","0.0-1.0-778.0","0","0","38972","","null","","","null","86","","NaN","","","","","","","","","","","","","",""
"","response","","html-keyboard-response","569","614537","0.0-1.0-779.0","0","0","38972","","99","","","75","86","","","2","86","training","adjacent","DC","4","3","O.jpg","M.jpg","0","0","1","",""
"","feedback","","html-keyboard-response","570","615545","0.0-1.0-780.0-0.0","0","0","38972","","null","","","null","86","","","","","","","","","","","","","","","",""
"","ITI","","html-keyboard-response","571","616554","0.0-1.0-783.0","0","0","38972","","null","","","null","86","","","","","","","","","","","","","","","NaN",""
"","S1","","html-keyboard-response","572","616816","0.0-1.0-785.0","0","0","38972","","null","","","null","87","","","","","","","","","","","","","","","",""
"","ISI","","html-keyboard-response","573","618822","0.0-1.0-786.0","0","0","38972","","null","","","null","87","NaN","","","","","","","","","","","","","","",""
"","S2","","html-keyboard-response","574","619077","0.0-1.0-787.0","0","0","38972","","null","","","null","87","","NaN","","","","","","","","","","","","","",""
"","response","","html-keyboard-response","575","619295","0.0-1.0-788.0","0","0","38972","","212","","","68","87","","","2","87","training","adjacent","CD","3","4","M.jpg","O.jpg","1","1","1","",""
"","feedback","","html-keyboard-response","576","620304","0.0-1.0-789.0-0.0","0","0","38972","","null","","","null","87","","","","","","","","","","","","","","","",""
"","ITI","","html-keyboard-response","577","621316","0.0-1.0-792.0","0","0","38972","","null","","","null","87","","","","","","","","","","","","","","","NaN",""
"","S1","","html-keyboard-response","578","621579","0.0-1.0-794.0","0","0","38972","","null","","","null","88","","","","","","","","","","","","","","","",""
"","ISI","","html-keyboard-response","579","623590","0.0-1.0-795.0","0","0","38972","","null","","","null","88","NaN","","","","","","","","","","","","","","",""
"","S2","","html-keyboard-response","580","623853","0.0-1.0-796.0","0","0","38972","","null","","","null","88","","NaN","","","","","","","","","","","","","",""
"","response","","html-keyboard-response","581","623881","0.0-1.0-797.0","0","0","38972","","20","","","68","88","","","2","88","training","adjacent","FE","6","5","L.jpg","Q.jpg","1","0","0","",""
"","feedback","","html-keyboard-response","582","624890","0.0-1.0-798.0-0.0","0","0","38972","","null","","","null","88","","","","","","","","","","","","","","","",""
"","time_out","","html-keyboard-response","583","626895","0.0-1.0-800.0-0.0","0","0","38972","","null","","","null","88","","","","","","","","","","","","","","","",""
