"success","ttype","start_time","trial_type","trial_index","time_elapsed","internal_node_id","warning","missed_checkup","PID","view_history","rt","responses","repeat_instructions","key_press","index","keypress_isi","keypress_S2","block","trial_num","phase","group_type","pair_type","S1_stim","S2_stim","S1_img","S2_img","S1_chosen","S1_higher","accuracy","keypress_iti","total_bonus_tally"
"true","full_screen","d08052022hr1520","fullscreen","0","9606","0.0-0.0","0","0","24764","","","","","","","","","","","","","","","","","","","","","",""
"","instructions","","instructions","1","46977","0.0-1.0-0.0-0.0","0","0","24764","[{""page_index"":0,""viewing_time"":5694},{""page_index"":1,""viewing_time"":21883},{""page_index"":2,""viewing_time"":7594},{""page_index"":3,""viewing_time"":2196}]","37368","","","","","","","","","","","","","","","","","","","",""
"","comprehension_check","","survey-multi-choice","2","76081","0.0-1.0-0.0-1.0","0","0","24764","","29096","{""Q0"":""True"",""Q1"":""D"",""Q2"":""Once the second image appears and while the screen 'MAKE A CHOICE' is shown"",""Q3"":""Green mark"",""Q4"":""either D or K""}","0","","","","","","","","","","","","","","","","","",""
"","start_exp","","html-keyboard-response","3","77954","0.0-1.0-1.0","0","0","24764","","1869","","","32","","","","","","","","","","","","","","","","",""
"","S1","","html-keyboard-response","4","78209","0.0-1.0-2.0","0","0","24764","","null","","","null","0","","","","","","","","","","","","","","","",""
"","ISI","","html-keyboard-response","5","80213","0.0-1.0-3.0","0","0","24764","","null","","","null","0","NaN","","","","","","","","","","","","","","",""
"","S2","","html-keyboard-response","6","80470","0.0-1.0-4.0","0","0","24764","","null","","","null","0","","NaN","","","","","","","","","","","","","",""
"","response","","html-keyboard-response","7","82226","0.0-1.0-5.0-0.0","0","0","24764","","null","","","null","0","","","1","0","training","adjacent","EF","5","6","Q.jpg","O.jpg","NaN","1","0","",""
"","too_slow_prompt","","html-keyboard-response","8","83233","0.0-1.0-7.0-0.0","1","0","24764","","null","","","null","","","","","","","","","","","","","","","","",""
"","time_out","","html-keyboard-response","9","85238","0.0-1.0-8.0-0.0","0","0","24764","","null","","","null","0","","","","","","","","","","","","","","","",""
"","ITI","","html-keyboard-response","10","86244","0.0-1.0-9.0","0","0","24764","","null","","","null","0","","","","","","","","","","","","","","","NaN",""
"","S1","","html-keyboard-response","11","86501","0.0-1.0-11.0","0","0","24764","","null","","","null","1","","","","","","","","","","","","","","","",""
"","ISI","","html-keyboard-response","12","88507","0.0-1.0-12.0","0","0","24764","","null","","","null","1","NaN","","","","","","","","","","","","","","",""
"","S2","","html-keyboard-response","13","88763","0.0-1.0-13.0","0","0","24764","","null","","","null","1","","NaN","","","","","","","","","","","","","",""
"","response","","html-keyboard-response","14","88812","0.0-1.0-14.0-0.0","0","0","24764","","46","","","68","1","","","1","1","training","adjacent","CD","3","4","L.jpg","M.jpg","1","1","1","",""
"","feedback","","html-keyboard-response","15","89819","0.0-1.0-15.0-0.0","0","0","24764","","null","","","null","1","","","","","","","","","","","","","","","",""
"","ITI","","html-keyboard-response","16","90824","0.0-1.0-18.0","0","0","24764","","null","","","null","1","","","","","","","","","","","","","","","NaN",""
"","S1","","html-keyboard-response","17","91080","0.0-1.0-20.0","0","0","24764","","null","","","null","2","","","","","","","","","","","","","","","",""
"","ISI","","html-keyboard-response","18","93083","0.0-1.0-21.0","0","0","24764","","null","","","null","2","NaN","","","","","","","","","","","","","","",""
"","S2","","html-keyboard-response","19","93338","0.0-1.0-22.0","0","0","24764","","null","","","null","2","","NaN","","","","","","","","","","","","","",""
"","response","","html-keyboard-response","20","93386","0.0-1.0-23.0-0.0","0","0","24764","","45","","","68","2","","","1","2","training","adjacent","CD","3","4","L.jpg","M.jpg","1","1","1","",""
"","feedback","","html-keyboard-response","21","94389","0.0-1.0-24.0-0.0","0","0","24764","","null","","","null","2","","","","","","","","","","","","","","","",""
"","ITI","","html-keyboard-response","22","95391","0.0-1.0-27.0","0","0","24764","","null","","","null","2","","","","","","","","","","","","","","","NaN",""
"","S1","","html-keyboard-response","23","95647","0.0-1.0-29.0","0","0","24764","","null","","","null","3","","","","","","","","","","","","","","","",""
"","ISI","","html-keyboard-response","24","97653","0.0-1.0-30.0","0","0","24764","","null","","","null","3","NaN","","","","","","","","","","","","","","",""
"","S2","","html-keyboard-response","25","97909","0.0-1.0-31.0","0","0","24764","","null","","","null","3","","NaN","","","","","","","","","","","","","",""
"","response","","html-keyboard-response","26","97937","0.0-1.0-32.0-0.0","0","0","24764","","27","","","75","3","","","1","3","training","adjacent","FE","6","5","O.jpg","Q.jpg","0","0","1","",""
"","feedback","","html-keyboard-response","27","98943","0.0-1.0-33.0-0.0","0","0","24764","","null","","","null","3","","","","","","","","","","","","","","","",""
"","ITI","","html-keyboard-response","28","99950","0.0-1.0-36.0","0","0","24764","","null","","","null","3","","","","","","","","","","","","","","","NaN",""
"","S1","","html-keyboard-response","29","100205","0.0-1.0-38.0","0","0","24764","","null","","","null","4","","","","","","","","","","","","","","","",""
"","ISI","","html-keyboard-response","30","102211","0.0-1.0-39.0","0","0","24764","","null","","","null","4","NaN","","","","","","","","","","","","","","",""
"","S2","","html-keyboard-response","31","102465","0.0-1.0-40.0","0","0","24764","","null","","","null","4","","NaN","","","","","","","","","","","","","",""
"","response","","html-keyboard-response","32","102608","0.0-1.0-41.0-0.0","0","0","24764","","142","","","75","4","","","1","4","training","adjacent","BC","2","3","R.jpg","L.jpg","0","1","0","",""
"","feedback","","html-keyboard-response","33","103618","0.0-1.0-42.0-0.0","0","0","24764","","null","","","null","4","","","","","","","","","","","","","","","",""
"","time_out","","html-keyboard-response","34","105626","0.0-1.0-44.0-0.0","0","0","24764","","null","","","null","4","","","","","","","","","","","","","","","",""
"","ITI","","html-keyboard-response","35","106631","0.0-1.0-45.0","0","0","24764","","null","","","null","4","","","","","","","","","","","","","","","NaN",""
"","S1","","html-keyboard-response","36","106885","0.0-1.0-47.0","0","0","24764","","null","","","null","5","","","","","","","","","","","","","","","",""
"","ISI","","html-keyboard-response","37","108891","0.0-1.0-48.0","0","0","24764","","null","","","null","5","NaN","","","","","","","","","","","","","","",""
"","S2","","html-keyboard-response","38","109147","0.0-1.0-49.0","0","0","24764","","null","","","null","5","","NaN","","","","","","","","","","","","","",""
"","response","","html-keyboard-response","39","109523","0.0-1.0-50.0-0.0","0","0","24764","","373","","","75","5","","","1","5","training","adjacent","FE","6","5","O.jpg","Q.jpg","0","0","1","",""
"","feedback","","html-keyboard-response","40","110527","0.0-1.0-51.0-0.0","0","0","24764","","null","","","null","5","","","","","","","","","","","","","","","",""
"","ITI","","html-keyboard-response","41","111531","0.0-1.0-54.0","0","0","24764","","null","","","null","5","","","","","","","","","","","","","","","NaN",""
"","S1","","html-keyboard-response","42","111797","0.0-1.0-56.0","0","0","24764","","null","","","null","6","","","","","","","","","","","","","","","",""
"","ISI","","html-keyboard-response","43","113802","0.0-1.0-57.0","0","0","24764","","null","","","null","6","NaN","","","","","","","","","","","","","","",""
"","S2","","html-keyboard-response","44","114058","0.0-1.0-58.0","0","0","24764","","null","","","null","6","","NaN","","","","","","","","","","","","","",""
"","response","","html-keyboard-response","45","114295","0.0-1.0-59.0-0.0","0","0","24764","","233","","","68","6","","","1","6","training","adjacent","DE","4","5","M.jpg","Q.jpg","1","1","1","",""
"","feedback","","html-keyboard-response","46","115300","0.0-1.0-60.0-0.0","0","0","24764","","null","","","null","6","","","","","","","","","","","","","","","",""
"","ITI","","html-keyboard-response","47","116307","0.0-1.0-63.0","0","0","24764","","null","","","null","6","","","","","","","","","","","","","","","NaN",""
"","S1","","html-keyboard-response","48","116564","0.0-1.0-65.0","0","0","24764","","null","","","null","7","","","","","","","","","","","","","","","",""
"","ISI","","html-keyboard-response","49","118571","0.0-1.0-66.0","0","0","24764","","null","","","null","7","NaN","","","","","","","","","","","","","","",""
"","S2","","html-keyboard-response","50","118832","0.0-1.0-67.0","0","0","24764","","null","","","null","7","","NaN","","","","","","","","","","","","","",""
"","response","","html-keyboard-response","51","119021","0.0-1.0-68.0-0.0","0","0","24764","","186","","","75","7","","","1","7","training","adjacent","BA","2","1","R.jpg","P.jpg","0","0","1","",""
"","feedback","","html-keyboard-response","52","120026","0.0-1.0-69.0-0.0","0","0","24764","","null","","","null","7","","","","","","","","","","","","","","","",""
"","ITI","","html-keyboard-response","53","121029","0.0-1.0-72.0","0","0","24764","","null","","","null","7","","","","","","","","","","","","","","","NaN",""
"","S1","","html-keyboard-response","54","121285","0.0-1.0-74.0","0","0","24764","","null","","","null","8","","","","","","","","","","","","","","","",""
"","ISI","","html-keyboard-response","55","123291","0.0-1.0-75.0","0","0","24764","","null","","","null","8","NaN","","","","","","","","","","","","","","",""
"","S2","","html-keyboard-response","56","123546","0.0-1.0-76.0","0","0","24764","","null","","","null","8","","NaN","","","","","","","","","","","","","",""
"","response","","html-keyboard-response","57","123666","0.0-1.0-77.0-0.0","0","0","24764","","118","","","75","8","","","1","8","training","adjacent","BA","2","1","R.jpg","P.jpg","0","0","1","",""
"","feedback","","html-keyboard-response","58","124671","0.0-1.0-78.0-0.0","0","0","24764","","null","","","null","8","","","","","","","","","","","","","","","",""
"","ITI","","html-keyboard-response","59","125676","0.0-1.0-81.0","0","0","24764","","null","","","null","8","","","","","","","","","","","","","","","NaN",""
"","S1","","html-keyboard-response","60","125931","0.0-1.0-83.0","0","0","24764","","null","","","null","9","","","","","","","","","","","","","","","",""
"","ISI","","html-keyboard-response","61","127935","0.0-1.0-84.0","0","0","24764","","null","","","null","9","NaN","","","","","","","","","","","","","","",""
"","S2","","html-keyboard-response","62","128171","0.0-1.0-85.0","0","0","24764","","235","","","68","9","","d","1","9","training","adjacent","CD","3","4","L.jpg","M.jpg","1","1","1","",""
"","feedback","","html-keyboard-response","63","129178","0.0-1.0-87.0-0.0","0","0","24764","","null","","","null","9","","","","","","","","","","","","","","","",""
"","ITI","","html-keyboard-response","64","130184","0.0-1.0-90.0","0","0","24764","","null","","","null","9","","","","","","","","","","","","","","","NaN",""
"","S1","","html-keyboard-response","65","130438","0.0-1.0-92.0","0","0","24764","","null","","","null","10","","","","","","","","","","","","","","","",""
"","ISI","","html-keyboard-response","66","132442","0.0-1.0-93.0","0","0","24764","","342","","","68","10","d","","","","","","","","","","","","","","",""
"","S2","","html-keyboard-response","67","132697","0.0-1.0-94.0","0","0","24764","","null","","","null","10","","NaN","","","","","","","","","","","","","",""
"","response","","html-keyboard-response","68","132804","0.0-1.0-95.0-0.0","0","0","24764","","106","","","68","10","","","1","10","training","adjacent","CB","3","2","L.jpg","R.jpg","1","0","0","",""
"","feedback","","html-keyboard-response","69","133808","0.0-1.0-96.0-0.0","0","0","24764","","null","","","null","10","","","","","","","","","","","","","","","",""
"","time_out","","html-keyboard-response","70","135813","0.0-1.0-98.0-0.0","0","0","24764","","null","","","null","10","","","","","","","","","","","","","","","",""
"","ITI","","html-keyboard-response","71","136821","0.0-1.0-99.0","0","0","24764","","null","","","null","10","","","","","","","","","","","","","","","NaN",""
"","S1","","html-keyboard-response","72","137078","0.0-1.0-101.0","0","0","24764","","null","","","null","11","","","","","","","","","","","","","","","",""
"","ISI","","html-keyboard-response","73","139083","0.0-1.0-102.0","0","0","24764","","null","","","null","11","NaN","","","","","","","","","","","","","","",""
"","S2","","html-keyboard-response","74","139339","0.0-1.0-103.0","0","0","24764","","null","","","null","11","","NaN","","","","","","","","","","","","","",""
"","response","","html-keyboard-response","75","139485","0.0-1.0-104.0-0.0","0","0","24764","","145","","","68","11","","","1","11","training","adjacent","CB","3","2","L.jpg","R.jpg","1","0","0","",""
"","feedback","","html-keyboard-response","76","140490","0.0-1.0-105.0-0.0","0","0","24764","","null","","","null","11","","","","","","","","","","","","","","","",""
"","time_out","","html-keyboard-response","77","142496","0.0-1.0-107.0-0.0","0","0","24764","","null","","","null","11","","","","","","","","","","","","","","","",""
"","ITI","","html-keyboard-response","78","143503","0.0-1.0-108.0","0","0","24764","","null","","","null","11","","","","","","","","","","","","","","","NaN",""
"","S1","","html-keyboard-response","79","143759","0.0-1.0-110.0","0","0","24764","","null","","","null","12","","","","","","","","","","","","","","","",""
"","ISI","","html-keyboard-response","80","145765","0.0-1.0-111.0","0","0","24764","","null","","","null","12","NaN","","","","","","","","","","","","","","",""
"","S2","","html-keyboard-response","81","146020","0.0-1.0-112.0","0","0","24764","","null","","","null","12","","NaN","","","","","","","","","","","","","",""
"","response","","html-keyboard-response","82","146072","0.0-1.0-113.0-0.0","0","0","24764","","51","","","68","12","","","1","12","training","adjacent","BC","2","3","R.jpg","L.jpg","1","1","1","",""
"","feedback","","html-keyboard-response","83","147077","0.0-1.0-114.0-0.0","0","0","24764","","null","","","null","12","","","","","","","","","","","","","","","",""
"","ITI","","html-keyboard-response","84","148084","0.0-1.0-117.0","0","0","24764","","null","","","null","12","","","","","","","","","","","","","","","NaN",""
"","S1","","html-keyboard-response","85","148341","0.0-1.0-119.0","0","0","24764","","null","","","null","13","","","","","","","","","","","","","","","",""
"","ISI","","html-keyboard-response","86","150348","0.0-1.0-120.0","0","0","24764","","null","","","null","13","NaN","","","","","","","","","","","","","","",""
"","S2","","html-keyboard-response","87","150603","0.0-1.0-121.0","0","0","24764","","null","","","null","13","","NaN","","","","","","","","","","","","","",""
"","response","","html-keyboard-response","88","150636","0.0-1.0-122.0-0.0","0","0","24764","","31","","","75","13","","","1","13","training","adjacent","DC","4","3","M.jpg","L.jpg","0","0","1","",""
"","feedback","","html-keyboard-response","89","151653","0.0-1.0-123.0-0.0","0","0","24764","","null","","","null","13","","","","","","","","","","","","","","","",""
"","ITI","","html-keyboard-response","90","152660","0.0-1.0-126.0","0","0","24764","","null","","","null","13","","","","","","","","","","","","","","","NaN",""
"","S1","","html-keyboard-response","91","152920","0.0-1.0-128.0","0","0","24764","","null","","","null","14","","","","","","","","","","","","","","","",""
"","ISI","","html-keyboard-response","92","154926","0.0-1.0-129.0","0","0","24764","","346","","","68","14","d","","","","","","","","","","","","","","",""
"","S2","","html-keyboard-response","93","155184","0.0-1.0-130.0","0","0","24764","","null","","","null","14","","NaN","","","","","","","","","","","","","",""
"","response","","html-keyboard-response","94","155187","0.0-1.0-131.0-0.0","0","0","24764","","1","","","68","14","","","1","14","training","adjacent","CB","3","2","L.jpg","R.jpg","1","0","0","",""
"","feedback","","html-keyboard-response","95","156192","0.0-1.0-132.0-0.0","0","0","24764","","null","","","null","14","","","","","","","","","","","","","","","",""
"","time_out","","html-keyboard-response","96","158198","0.0-1.0-134.0-0.0","0","0","24764","","null","","","null","14","","","","","","","","","","","","","","","",""
"","ITI","","html-keyboard-response","97","159205","0.0-1.0-135.0","0","0","24764","","null","","","null","14","","","","","","","","","","","","","","","NaN",""
"","S1","","html-keyboard-response","98","159460","0.0-1.0-137.0","0","0","24764","","null","","","null","15","","","","","","","","","","","","","","","",""
"","ISI","","html-keyboard-response","99","161466","0.0-1.0-138.0","0","0","24764","","336","","","75","15","k","","","","","","","","","","","","","","",""
"","S2","","html-keyboard-response","100","161724","0.0-1.0-139.0","0","0","24764","","null","","","null","15","","NaN","","","","","","","","","","","","","",""
"","response","","html-keyboard-response","101","161921","0.0-1.0-140.0-0.0","0","0","24764","","195","","","68","15","","","1","15","training","adjacent","ED","5","4","Q.jpg","M.jpg","1","0","0","",""
"","feedback","","html-keyboard-response","102","162927","0.0-1.0-141.0-0.0","0","0","24764","","null","","","null","15","","","","","","","","","","","","","","","",""
"","time_out","","html-keyboard-response","103","164934","0.0-1.0-143.0-0.0","0","0","24764","","null","","","null","15","","","","","","","","","","","","","","","",""
"","ITI","","html-keyboard-response","104","165941","0.0-1.0-144.0","0","0","24764","","null","","","null","15","","","","","","","","","","","","","","","NaN",""
"","S1","","html-keyboard-response","105","166196","0.0-1.0-146.0","0","0","24764","","null","","","null","16","","","","","","","","","","","","","","","",""
"","ISI","","html-keyboard-response","106","168202","0.0-1.0-147.0","0","0","24764","","null","","","null","16","NaN","","","","","","","","","","","","","","",""
"","S2","","html-keyboard-response","107","168457","0.0-1.0-148.0","0","0","24764","","null","","","null","16","","NaN","","","","","","","","","","","","","",""
"","response","","html-keyboard-response","108","168577","0.0-1.0-149.0-0.0","0","0","24764","","117","","","75","16","","","1","16","training","adjacent","BA","2","1","R.jpg","P.jpg","0","0","1","",""
"","feedback","","html-keyboard-response","109","169583","0.0-1.0-150.0-0.0","0","0","24764","","null","","","null","16","","","","","","","","","","","","","","","",""
"","ITI","","html-keyboard-response","110","170589","0.0-1.0-153.0","0","0","24764","","null","","","null","16","","","","","","","","","","","","","","","NaN",""
"","S1","","html-keyboard-response","111","170843","0.0-1.0-155.0","0","0","24764","","null","","","null","17","","","","","","","","","","","","","","","",""
"","ISI","","html-keyboard-response","112","172848","0.0-1.0-156.0","0","0","24764","","null","","","null","17","NaN","","","","","","","","","","","","","","",""
"","S2","","html-keyboard-response","113","173105","0.0-1.0-157.0","0","0","24764","","null","","","null","17","","NaN","","","","","","","","","","","","","",""
"","response","","html-keyboard-response","114","173146","0.0-1.0-158.0-0.0","0","0","24764","","38","","","75","17","","","1","17","training","adjacent","BC","2","3","R.jpg","L.jpg","0","1","0","",""
"","feedback","","html-keyboard-response","115","174151","0.0-1.0-159.0-0.0","0","0","24764","","null","","","null","17","","","","","","","","","","","","","","","",""
"","time_out","","html-keyboard-response","116","176156","0.0-1.0-161.0-0.0","0","0","24764","","null","","","null","17","","","","","","","","","","","","","","","",""
"","ITI","","html-keyboard-response","117","177163","0.0-1.0-162.0","0","0","24764","","null","","","null","17","","","","","","","","","","","","","","","NaN",""
"","S1","","html-keyboard-response","118","177419","0.0-1.0-164.0","0","0","24764","","null","","","null","18","","","","","","","","","","","","","","","",""
"","ISI","","html-keyboard-response","119","179426","0.0-1.0-165.0","0","0","24764","","null","","","null","18","NaN","","","","","","","","","","","","","","",""
"","S2","","html-keyboard-response","120","179680","0.0-1.0-166.0","0","0","24764","","null","","","null","18","","NaN","","","","","","","","","","","","","",""
"","response","","html-keyboard-response","121","179815","0.0-1.0-167.0-0.0","0","0","24764","","132","","","75","18","","","1","18","training","adjacent","DC","4","3","M.jpg","L.jpg","0","0","1","",""
"","feedback","","html-keyboard-response","122","180822","0.0-1.0-168.0-0.0","0","0","24764","","null","","","null","18","","","","","","","","","","","","","","","",""
"","ITI","","html-keyboard-response","123","181829","0.0-1.0-171.0","0","0","24764","","null","","","null","18","","","","","","","","","","","","","","","NaN",""
"","S1","","html-keyboard-response","124","182085","0.0-1.0-173.0","0","0","24764","","null","","","null","19","","","","","","","","","","","","","","","",""
"","ISI","","html-keyboard-response","125","184090","0.0-1.0-174.0","0","0","24764","","null","","","null","19","NaN","","","","","","","","","","","","","","",""
"","S2","","html-keyboard-response","126","184346","0.0-1.0-175.0","0","0","24764","","null","","","null","19","","NaN","","","","","","","","","","","","","",""
"","response","","html-keyboard-response","127","184409","0.0-1.0-176.0-0.0","0","0","24764","","61","","","68","19","","","1","19","training","adjacent","FG","6","7","O.jpg","N.jpg","1","1","1","",""
"","feedback","","html-keyboard-response","128","185413","0.0-1.0-177.0-0.0","0","0","24764","","null","","","null","19","","","","","","","","","","","","","","","",""
"","ITI","","html-keyboard-response","129","186421","0.0-1.0-180.0","0","0","24764","","null","","","null","19","","","","","","","","","","","","","","","NaN",""
"","S1","","html-keyboard-response","130","186676","0.0-1.0-182.0","0","0","24764","","null","","","null","20","","","","","","","","","","","","","","","",""
"","ISI","","html-keyboard-response","131","188681","0.0-1.0-183.0","0","0","24764","","null","","","null","20","NaN","","","","","","","","","","","","","","",""
"","S2","","html-keyboard-response","132","188937","0.0-1.0-184.0","0","0","24764","","null","","","null","20","","NaN","","","","","","","","","","","","","",""
"","response","","html-keyboard-response","133","189056","0.0-1.0-185.0-0.0","0","0","24764","","116","","","68","20","","","1","20","training","adjacent","DE","4","5","M.jpg","Q.jpg","1","1","1","",""
"","feedback","","html-keyboard-response","134","190064","0.0-1.0-186.0-0.0","0","0","24764","","null","","","null","20","","","","","","","","","","","","","","","",""
"","ITI","","html-keyboard-response","135","191072","0.0-1.0-189.0","0","0","24764","","null","","","null","20","","","","","","","","","","","","","","","NaN",""
"","S1","","html-keyboard-response","136","191329","0.0-1.0-191.0","0","0","24764","","null","","","null","21","","","","","","","","","","","","","","","",""
"","ISI","","html-keyboard-response","137","193335","0.0-1.0-192.0","0","0","24764","","null","","","null","21","NaN","","","","","","","","","","","","","","",""
"","S2","","html-keyboard-response","138","193590","0.0-1.0-193.0","0","0","24764","","null","","","null","21","","NaN","","","","","","","","","","","","","",""
"","response","","html-keyboard-response","139","193889","0.0-1.0-194.0-0.0","0","0","24764","","296","","","75","21","","","1","21","training","adjacent","BA","2","1","R.jpg","P.jpg","0","0","1","",""
"","feedback","","html-keyboard-response","140","194895","0.0-1.0-195.0-0.0","0","0","24764","","null","","","null","21","","","","","","","","","","","","","","","",""
"","ITI","","html-keyboard-response","141","195904","0.0-1.0-198.0","0","0","24764","","null","","","null","21","","","","","","","","","","","","","","","NaN",""
"","S1","","html-keyboard-response","142","196160","0.0-1.0-200.0","0","0","24764","","null","","","null","22","","","","","","","","","","","","","","","",""
"","ISI","","html-keyboard-response","143","198164","0.0-1.0-201.0","0","0","24764","","null","","","null","22","NaN","","","","","","","","","","","","","","",""
"","S2","","html-keyboard-response","144","198421","0.0-1.0-202.0","0","0","24764","","null","","","null","22","","NaN","","","","","","","","","","","","","",""
"","response","","html-keyboard-response","145","198568","0.0-1.0-203.0-0.0","0","0","24764","","145","","","68","22","","","1","22","training","adjacent","EF","5","6","Q.jpg","O.jpg","1","1","1","",""
"","feedback","","html-keyboard-response","146","199572","0.0-1.0-204.0-0.0","0","0","24764","","null","","","null","22","","","","","","","","","","","","","","","",""
"","ITI","","html-keyboard-response","147","200579","0.0-1.0-207.0","0","0","24764","","null","","","null","22","","","","","","","","","","","","","","","NaN",""
"","S1","","html-keyboard-response","148","200856","0.0-1.0-209.0","0","0","24764","","null","","","null","23","","","","","","","","","","","","","","","",""
"","ISI","","html-keyboard-response","149","202859","0.0-1.0-210.0","0","0","24764","","251","","","75","23","k","","","","","","","","","","","","","","",""
"","S2","","html-keyboard-response","150","203114","0.0-1.0-211.0","0","0","24764","","null","","","null","23","","NaN","","","","","","","","","","","","","",""
"","response","","html-keyboard-response","151","203160","0.0-1.0-212.0-0.0","0","0","24764","","44","","","68","23","","","1","23","training","adjacent","ED","5","4","Q.jpg","M.jpg","1","0","0","",""
"","feedback","","html-keyboard-response","152","204165","0.0-1.0-213.0-0.0","0","0","24764","","null","","","null","23","","","","","","","","","","","","","","","",""
"","time_out","","html-keyboard-response","153","206170","0.0-1.0-215.0-0.0","0","0","24764","","null","","","null","23","","","","","","","","","","","","","","","",""
"","ITI","","html-keyboard-response","154","207175","0.0-1.0-216.0","0","0","24764","","null","","","null","23","","","","","","","","","","","","","","","NaN",""
"","S1","","html-keyboard-response","155","207439","0.0-1.0-218.0","0","0","24764","","null","","","null","24","","","","","","","","","","","","","","","",""
"","ISI","","html-keyboard-response","156","209445","0.0-1.0-219.0","0","0","24764","","null","","","null","24","NaN","","","","","","","","","","","","","","",""
"","S2","","html-keyboard-response","157","209701","0.0-1.0-220.0","0","0","24764","","null","","","null","24","","NaN","","","","","","","","","","","","","",""
"","response","","html-keyboard-response","158","209737","0.0-1.0-221.0-0.0","0","0","24764","","34","","","75","24","","","1","24","training","adjacent","FG","6","7","O.jpg","N.jpg","0","1","0","",""
"","feedback","","html-keyboard-response","159","210741","0.0-1.0-222.0-0.0","0","0","24764","","null","","","null","24","","","","","","","","","","","","","","","",""
"","time_out","","html-keyboard-response","160","212747","0.0-1.0-224.0-0.0","0","0","24764","","null","","","null","24","","","","","","","","","","","","","","","",""
"","ITI","","html-keyboard-response","161","213754","0.0-1.0-225.0","0","0","24764","","null","","","null","24","","","","","","","","","","","","","","","NaN",""
"","S1","","html-keyboard-response","162","214010","0.0-1.0-227.0","0","0","24764","","null","","","null","25","","","","","","","","","","","","","","","",""
"","ISI","","html-keyboard-response","163","216015","0.0-1.0-228.0","0","0","24764","","null","","","null","25","NaN","","","","","","","","","","","","","","",""
"","S2","","html-keyboard-response","164","216271","0.0-1.0-229.0","0","0","24764","","null","","","null","25","","NaN","","","","","","","","","","","","","",""
"","response","","html-keyboard-response","165","216362","0.0-1.0-230.0-0.0","0","0","24764","","88","","","75","25","","","1","25","training","adjacent","DE","4","5","M.jpg","Q.jpg","0","1","0","",""
"","feedback","","html-keyboard-response","166","217370","0.0-1.0-231.0-0.0","0","0","24764","","null","","","null","25","","","","","","","","","","","","","","","",""
"","time_out","","html-keyboard-response","167","219375","0.0-1.0-233.0-0.0","0","0","24764","","null","","","null","25","","","","","","","","","","","","","","","",""
"","ITI","","html-keyboard-response","168","220383","0.0-1.0-234.0","0","0","24764","","null","","","null","25","","","","","","","","","","","","","","","NaN",""
"","S1","","html-keyboard-response","169","220639","0.0-1.0-236.0","0","0","24764","","null","","","null","26","","","","","","","","","","","","","","","",""
"","ISI","","html-keyboard-response","170","222642","0.0-1.0-237.0","0","0","24764","","null","","","null","26","NaN","","","","","","","","","","","","","","",""
"","S2","","html-keyboard-response","171","222899","0.0-1.0-238.0","0","0","24764","","null","","","null","26","","NaN","","","","","","","","","","","","","",""
"","response","","html-keyboard-response","172","223105","0.0-1.0-239.0-0.0","0","0","24764","","203","","","68","26","","","1","26","training","adjacent","FE","6","5","O.jpg","Q.jpg","1","0","0","",""
"","feedback","","html-keyboard-response","173","224112","0.0-1.0-240.0-0.0","0","0","24764","","null","","","null","26","","","","","","","","","","","","","","","",""
"","time_out","","html-keyboard-response","174","226117","0.0-1.0-242.0-0.0","0","0","24764","","null","","","null","26","","","","","","","","","","","","","","","",""
"","ITI","","html-keyboard-response","175","227120","0.0-1.0-243.0","0","0","24764","","null","","","null","26","","","","","","","","","","","","","","","NaN",""
"","S1","","html-keyboard-response","176","227375","0.0-1.0-245.0","0","0","24764","","null","","","null","27","","","","","","","","","","","","","","","",""
"","ISI","","html-keyboard-response","177","229386","0.0-1.0-246.0","0","0","24764","","338","","","75","27","k","","","","","","","","","","","","","","",""
"","S2","","html-keyboard-response","178","229645","0.0-1.0-247.0","0","0","24764","","null","","","null","27","","NaN","","","","","","","","","","","","","",""
"","response","","html-keyboard-response","179","229740","0.0-1.0-248.0-0.0","0","0","24764","","93","","","68","27","","","1","27","training","adjacent","ED","5","4","Q.jpg","M.jpg","1","0","0","",""
"","feedback","","html-keyboard-response","180","230745","0.0-1.0-249.0-0.0","0","0","24764","","null","","","null","27","","","","","","","","","","","","","","","",""
"","time_out","","html-keyboard-response","181","232751","0.0-1.0-251.0-0.0","0","0","24764","","null","","","null","27","","","","","","","","","","","","","","","",""
"","ITI","","html-keyboard-response","182","233755","0.0-1.0-252.0","0","0","24764","","null","","","null","27","","","","","","","","","","","","","","","NaN",""
"","S1","","html-keyboard-response","183","234010","0.0-1.0-254.0","0","0","24764","","null","","","null","28","","","","","","","","","","","","","","","",""
"","ISI","","html-keyboard-response","184","236015","0.0-1.0-255.0","0","0","24764","","null","","","null","28","NaN","","","","","","","","","","","","","","",""
"","S2","","html-keyboard-response","185","236271","0.0-1.0-256.0","0","0","24764","","null","","","null","28","","NaN","","","","","","","","","","","","","",""
"","response","","html-keyboard-response","186","236506","0.0-1.0-257.0-0.0","0","0","24764","","232","","","75","28","","","1","28","training","adjacent","AB","1","2","P.jpg","R.jpg","0","1","0","",""
"","feedback","","html-keyboard-response","187","237510","0.0-1.0-258.0-0.0","0","0","24764","","null","","","null","28","","","","","","","","","","","","","","","",""
"","time_out","","html-keyboard-response","188","239516","0.0-1.0-260.0-0.0","0","0","24764","","null","","","null","28","","","","","","","","","","","","","","","",""
"","ITI","","html-keyboard-response","189","240522","0.0-1.0-261.0","0","0","24764","","null","","","null","28","","","","","","","","","","","","","","","NaN",""
"","S1","","html-keyboard-response","190","240779","0.0-1.0-263.0","0","0","24764","","null","","","null","29","","","","","","","","","","","","","","","",""
"","ISI","","html-keyboard-response","191","242785","0.0-1.0-264.0","0","0","24764","","null","","","null","29","NaN","","","","","","","","","","","","","","",""
"","S2","","html-keyboard-response","192","243039","0.0-1.0-265.0","0","0","24764","","null","","","null","29","","NaN","","","","","","","","","","","","","",""
"","response","","html-keyboard-response","193","243632","0.0-1.0-266.0-0.0","0","0","24764","","591","","","68","29","","","1","29","training","adjacent","CB","3","2","L.jpg","R.jpg","1","0","0","",""
"","feedback","","html-keyboard-response","194","244639","0.0-1.0-267.0-0.0","0","0","24764","","null","","","null","29","","","","","","","","","","","","","","","",""
"","time_out","","html-keyboard-response","195","246643","0.0-1.0-269.0-0.0","0","0","24764","","null","","","null","29","","","","","","","","","","","","","","","",""
"","ITI","","html-keyboard-response","196","247647","0.0-1.0-270.0","0","0","24764","","null","","","null","29","","","","","","","","","","","","","","","NaN",""
"","S1","","html-keyboard-response","197","247903","0.0-1.0-272.0","0","0","24764","","null","","","null","30","","","","","","","","","","","","","","","",""
"","ISI","","html-keyboard-response","198","249908","0.0-1.0-273.0","0","0","24764","","1037","","","75","30","k","","","","","","","","","","","","","","",""
"","S2","","html-keyboard-response","199","250164","0.0-1.0-274.0","0","0","24764","","null","","","null","30","","NaN","","","","","","","","","","","","","",""
"","response","","html-keyboard-response","200","250204","0.0-1.0-275.0-0.0","0","0","24764","","39","","","75","30","","","1","30","training","adjacent","FE","6","5","O.jpg","Q.jpg","0","0","1","",""
"","feedback","","html-keyboard-response","201","251210","0.0-1.0-276.0-0.0","0","0","24764","","null","","","null","30","","","","","","","","","","","","","","","",""
"","ITI","","html-keyboard-response","202","252215","0.0-1.0-279.0","0","0","24764","","null","","","null","30","","","","","","","","","","","","","","","NaN",""
"","S1","","html-keyboard-response","203","252470","0.0-1.0-281.0","0","0","24764","","null","","","null","31","","","","","","","","","","","","","","","",""
"","ISI","","html-keyboard-response","204","254475","0.0-1.0-282.0","0","0","24764","","null","","","null","31","NaN","","","","","","","","","","","","","","",""
"","S2","","html-keyboard-response","205","254730","0.0-1.0-283.0","0","0","24764","","null","","","null","31","","NaN","","","","","","","","","","","","","",""
"","response","","html-keyboard-response","206","255037","0.0-1.0-284.0-0.0","0","0","24764","","304","","","68","31","","","1","31","training","adjacent","FG","6","7","O.jpg","N.jpg","1","1","1","",""
"","feedback","","html-keyboard-response","207","256042","0.0-1.0-285.0-0.0","0","0","24764","","null","","","null","31","","","","","","","","","","","","","","","",""
"","ITI","","html-keyboard-response","208","257049","0.0-1.0-288.0","0","0","24764","","null","","","null","31","","","","","","","","","","","","","","","NaN",""
"","S1","","html-keyboard-response","209","257306","0.0-1.0-290.0","0","0","24764","","null","","","null","32","","","","","","","","","","","","","","","",""
"","ISI","","html-keyboard-response","210","259311","0.0-1.0-291.0","0","0","24764","","null","","","null","32","NaN","","","","","","","","","","","","","","",""
"","S2","","html-keyboard-response","211","259568","0.0-1.0-292.0","0","0","24764","","null","","","null","32","","NaN","","","","","","","","","","","","","",""
"","response","","html-keyboard-response","212","259611","0.0-1.0-293.0-0.0","0","0","24764","","40","","","75","32","","","1","32","training","adjacent","GF","7","6","N.jpg","O.jpg","0","0","1","",""
"","feedback","","html-keyboard-response","213","260621","0.0-1.0-294.0-0.0","0","0","24764","","null","","","null","32","","","","","","","","","","","","","","","",""
"","ITI","","html-keyboard-response","214","261627","0.0-1.0-297.0","0","0","24764","","null","","","null","32","","","","","","","","","","","","","","","NaN",""
"","S1","","html-keyboard-response","215","261884","0.0-1.0-299.0","0","0","24764","","null","","","null","33","","","","","","","","","","","","","","","",""
"","ISI","","html-keyboard-response","216","263887","0.0-1.0-300.0","0","0","24764","","null","","","null","33","NaN","","","","","","","","","","","","","","",""
"","S2","","html-keyboard-response","217","264144","0.0-1.0-301.0","0","0","24764","","null","","","null","33","","NaN","","","","","","","","","","","","","",""
"","response","","html-keyboard-response","218","264314","0.0-1.0-302.0-0.0","0","0","24764","","167","","","68","33","","","1","33","training","adjacent","ED","5","4","Q.jpg","M.jpg","1","0","0","",""
"","feedback","","html-keyboard-response","219","265320","0.0-1.0-303.0-0.0","0","0","24764","","null","","","null","33","","","","","","","","","","","","","","","",""
"","time_out","","html-keyboard-response","220","267327","0.0-1.0-305.0-0.0","0","0","24764","","null","","","null","33","","","","","","","","","","","","","","","",""
"","ITI","","html-keyboard-response","221","268333","0.0-1.0-306.0","0","0","24764","","null","","","null","33","","","","","","","","","","","","","","","NaN",""
"","S1","","html-keyboard-response","222","268591","0.0-1.0-308.0","0","0","24764","","null","","","null","34","","","","","","","","","","","","","","","",""
"","ISI","","html-keyboard-response","223","270596","0.0-1.0-309.0","0","0","24764","","90","","","75","34","k","","","","","","","","","","","","","","",""
"","S2","","html-keyboard-response","224","270852","0.0-1.0-310.0","0","0","24764","","null","","","null","34","","NaN","","","","","","","","","","","","","",""
"","response","","html-keyboard-response","225","270986","0.0-1.0-311.0-0.0","0","0","24764","","132","","","68","34","","","1","34","training","adjacent","AB","1","2","P.jpg","R.jpg","1","1","1","",""
"","feedback","","html-keyboard-response","226","271994","0.0-1.0-312.0-0.0","0","0","24764","","null","","","null","34","","","","","","","","","","","","","","","",""
"","ITI","","html-keyboard-response","227","272996","0.0-1.0-315.0","0","0","24764","","null","","","null","34","","","","","","","","","","","","","","","NaN",""
"","S1","","html-keyboard-response","228","273253","0.0-1.0-317.0","0","0","24764","","null","","","null","35","","","","","","","","","","","","","","","",""
"","ISI","","html-keyboard-response","229","275260","0.0-1.0-318.0","0","0","24764","","null","","","null","35","NaN","","","","","","","","","","","","","","",""
"","S2","","html-keyboard-response","230","275514","0.0-1.0-319.0","0","0","24764","","null","","","null","35","","NaN","","","","","","","","","","","","","",""
"","response","","html-keyboard-response","231","275553","0.0-1.0-320.0-0.0","0","0","24764","","36","","","75","35","","","1","35","training","adjacent","GF","7","6","N.jpg","O.jpg","0","0","1","",""
"","feedback","","html-keyboard-response","232","276560","0.0-1.0-321.0-0.0","0","0","24764","","null","","","null","35","","","","","","","","","","","","","","","",""
"","ITI","","html-keyboard-response","233","277567","0.0-1.0-324.0","0","0","24764","","null","","","null","35","","","","","","","","","","","","","","","NaN",""
"","S1","","html-keyboard-response","234","277823","0.0-1.0-326.0","0","0","24764","","null","","","null","36","","","","","","","","","","","","","","","",""
"","ISI","","html-keyboard-response","235","279827","0.0-1.0-327.0","0","0","24764","","null","","","null","36","NaN","","","","","","","","","","","","","","",""
"","S2","","html-keyboard-response","236","280084","0.0-1.0-328.0","0","0","24764","","null","","","null","36","","NaN","","","","","","","","","","","","","",""
"","response","","html-keyboard-response","237","280217","0.0-1.0-329.0-0.0","0","0","24764","","130","","","68","36","","","1","36","training","adjacent","GF","7","6","N.jpg","O.jpg","1","0","0","",""
"","feedback","","html-keyboard-response","238","281225","0.0-1.0-330.0-0.0","0","0","24764","","null","","","null","36","","","","","","","","","","","","","","","",""
"","time_out","","html-keyboard-response","239","283231","0.0-1.0-332.0-0.0","0","0","24764","","null","","","null","36","","","","","","","","","","","","","","","",""
"","ITI","","html-keyboard-response","240","284239","0.0-1.0-333.0","0","0","24764","","null","","","null","36","","","","","","","","","","","","","","","NaN",""
"","S1","","html-keyboard-response","241","284495","0.0-1.0-335.0","0","0","24764","","null","","","null","37","","","","","","","","","","","","","","","",""
"","ISI","","html-keyboard-response","242","286501","0.0-1.0-336.0","0","0","24764","","67","","","75","37","k","","","","","","","","","","","","","","",""
"","S2","","html-keyboard-response","243","286757","0.0-1.0-337.0","0","0","24764","","null","","","null","37","","NaN","","","","","","","","","","","","","",""
"","response","","html-keyboard-response","244","286787","0.0-1.0-338.0-0.0","0","0","24764","","28","","","75","37","","","1","37","training","adjacent","AB","1","2","P.jpg","R.jpg","0","1","0","",""
"","feedback","","html-keyboard-response","245","287791","0.0-1.0-339.0-0.0","0","0","24764","","null","","","null","37","","","","","","","","","","","","","","","",""
"","time_out","","html-keyboard-response","246","289796","0.0-1.0-341.0-0.0","0","0","24764","","null","","","null","37","","","","","","","","","","","","","","","",""
"","ITI","","html-keyboard-response","247","290800","0.0-1.0-342.0","0","0","24764","","null","","","null","37","","","","","","","","","","","","","","","NaN",""
"","S1","","html-keyboard-response","248","291057","0.0-1.0-344.0","0","0","24764","","null","","","null","38","","","","","","","","","","","","","","","",""
"","ISI","","html-keyboard-response","249","293065","0.0-1.0-345.0","0","0","24764","","877","","","68","38","d","","","","","","","","","","","","","","",""
"","S2","","html-keyboard-response","250","293322","0.0-1.0-346.0","0","0","24764","","null","","","null","38","","NaN","","","","","","","","","","","","","",""
"","response","","html-keyboard-response","251","293349","0.0-1.0-347.0-0.0","0","0","24764","","25","","","68","38","","","1","38","training","adjacent","EF","5","6","Q.jpg","O.jpg","1","1","1","",""
"","feedback","","html-keyboard-response","252","294356","0.0-1.0-348.0-0.0","0","0","24764","","null","","","null","38","","","","","","","","","","","","","","","",""
"","ITI","","html-keyboard-response","253","295360","0.0-1.0-351.0","0","0","24764","","null","","","null","38","","","","","","","","","","","","","","","NaN",""
"","S1","","html-keyboard-response","254","295617","0.0-1.0-353.0","0","0","24764","","null","","","null","39","","","","","","","","","","","","","","","",""
"","ISI","","html-keyboard-response","255","297625","0.0-1.0-354.0","0","0","24764","","null","","","null","39","NaN","","","","","","","","","","","","","","",""
"","S2","","html-keyboard-response","256","297882","0.0-1.0-355.0","0","0","24764","","null","","","null","39","","NaN","","","","","","","","","","","","","",""
"","response","","html-keyboard-response","257","297930","0.0-1.0-356.0-0.0","0","0","24764","","46","","","75","39","","","1","39","training","adjacent","CD","3","4","L.jpg","M.jpg","0","1","0","",""
"","feedback","","html-keyboard-response","258","298937","0.0-1.0-357.0-0.0","0","0","24764","","null","","","null","39","","","","","","","","","","","","","","","",""
"","time_out","","html-keyboard-response","259","300944","0.0-1.0-359.0-0.0","0","0","24764","","null","","","null","39","","","","","","","","","","","","","","","",""
"","ITI","","html-keyboard-response","260","301951","0.0-1.0-360.0","0","0","24764","","null","","","null","39","","","","","","","","","","","","","","","NaN",""
"","S1","","html-keyboard-response","261","302207","0.0-1.0-362.0","0","0","24764","","null","","","null","40","","","","","","","","","","","","","","","",""
"","ISI","","html-keyboard-response","262","304212","0.0-1.0-363.0","0","0","24764","","169","","","68","40","d","","","","","","","","","","","","","","",""
"","S2","","html-keyboard-response","263","304467","0.0-1.0-364.0","0","0","24764","","null","","","null","40","","NaN","","","","","","","","","","","","","",""
"","response","","html-keyboard-response","264","304468","0.0-1.0-365.0-0.0","0","0","24764","","0","","","75","40","","","1","40","training","adjacent","DE","4","5","M.jpg","Q.jpg","0","1","0","",""
"","feedback","","html-keyboard-response","265","305473","0.0-1.0-366.0-0.0","0","0","24764","","null","","","null","40","","","","","","","","","","","","","","","",""
"","time_out","","html-keyboard-response","266","307479","0.0-1.0-368.0-0.0","0","0","24764","","null","","","null","40","","","","","","","","","","","","","","","",""
"","ITI","","html-keyboard-response","267","308484","0.0-1.0-369.0","0","0","24764","","null","","","null","40","","","","","","","","","","","","","","","NaN",""
"","S1","","html-keyboard-response","268","308738","0.0-1.0-371.0","0","0","24764","","null","","","null","41","","","","","","","","","","","","","","","",""
"","ISI","","html-keyboard-response","269","310744","0.0-1.0-372.0","0","0","24764","","140","","","68","41","d","","","","","","","","","","","","","","",""
"","S2","","html-keyboard-response","270","311005","0.0-1.0-373.0","0","0","24764","","null","","","null","41","","NaN","","","","","","","","","","","","","",""
"","response","","html-keyboard-response","271","311145","0.0-1.0-374.0-0.0","0","0","24764","","137","","","68","41","","","1","41","training","adjacent","AB","1","2","P.jpg","R.jpg","1","1","1","",""
"","feedback","","html-keyboard-response","272","312150","0.0-1.0-375.0-0.0","0","0","24764","","null","","","null","41","","","","","","","","","","","","","","","",""
"","ITI","","html-keyboard-response","273","313162","0.0-1.0-378.0","0","0","24764","","null","","","null","41","","","","","","","","","","","","","","","NaN",""
"","S1","","html-keyboard-response","274","313417","0.0-1.0-380.0","0","0","24764","","null","","","null","42","","","","","","","","","","","","","","","",""
"","ISI","","html-keyboard-response","275","315422","0.0-1.0-381.0","0","0","24764","","null","","","null","42","NaN","","","","","","","","","","","","","","",""
"","S2","","html-keyboard-response","276","315679","0.0-1.0-382.0","0","0","24764","","null","","","null","42","","NaN","","","","","","","","","","","","","",""
"","response","","html-keyboard-response","277","315791","0.0-1.0-383.0-0.0","0","0","24764","","109","","","75","42","","","1","42","training","adjacent","EF","5","6","Q.jpg","O.jpg","0","1","0","",""
"","feedback","","html-keyboard-response","278","316799","0.0-1.0-384.0-0.0","0","0","24764","","null","","","null","42","","","","","","","","","","","","","","","",""
"","time_out","","html-keyboard-response","279","318804","0.0-1.0-386.0-0.0","0","0","24764","","null","","","null","42","","","","","","","","","","","","","","","",""
"","ITI","","html-keyboard-response","280","319807","0.0-1.0-387.0","0","0","24764","","null","","","null","42","","","","","","","","","","","","","","","NaN",""
"","S1","","html-keyboard-response","281","320063","0.0-1.0-389.0","0","0","24764","","null","","","null","43","","","","","","","","","","","","","","","",""
"","ISI","","html-keyboard-response","282","322069","0.0-1.0-390.0","0","0","24764","","291","","","68","43","d","","","","","","","","","","","","","","",""
"","S2","","html-keyboard-response","283","322324","0.0-1.0-391.0","0","0","24764","","null","","","null","43","","NaN","","","","","","","","","","","","","",""
"","response","","html-keyboard-response","284","322450","0.0-1.0-392.0-0.0","0","0","24764","","123","","","75","43","","","1","43","training","adjacent","DC","4","3","M.jpg","L.jpg","0","0","1","",""
"","feedback","","html-keyboard-response","285","323456","0.0-1.0-393.0-0.0","0","0","24764","","null","","","null","43","","","","","","","","","","","","","","","",""
"","ITI","","html-keyboard-response","286","324464","0.0-1.0-396.0","0","0","24764","","null","","","null","43","","","","","","","","","","","","","","","NaN",""
"","S1","","html-keyboard-response","287","324721","0.0-1.0-398.0","0","0","24764","","null","","","null","44","","","","","","","","","","","","","","","",""
"","ISI","","html-keyboard-response","288","326731","0.0-1.0-399.0","0","0","24764","","null","","","null","44","NaN","","","","","","","","","","","","","","",""
"","S2","","html-keyboard-response","289","326987","0.0-1.0-400.0","0","0","24764","","null","","","null","44","","NaN","","","","","","","","","","","","","",""
"","response","","html-keyboard-response","290","327006","0.0-1.0-401.0-0.0","0","0","24764","","17","","","68","44","","","1","44","training","adjacent","GF","7","6","N.jpg","O.jpg","1","0","0","",""
"","feedback","","html-keyboard-response","291","328010","0.0-1.0-402.0-0.0","0","0","24764","","null","","","null","44","","","","","","","","","","","","","","","",""
"","time_out","","html-keyboard-response","292","330015","0.0-1.0-404.0-0.0","0","0","24764","","null","","","null","44","","","","","","","","","","","","","","","",""
"","ITI","","html-keyboard-response","293","331020","0.0-1.0-405.0","0","0","24764","","null","","","null","44","","","","","","","","","","","","","","","NaN",""
"","S1","","html-keyboard-response","294","331278","0.0-1.0-407.0","0","0","24764","","null","","","null","45","","","","","","","","","","","","","","","",""
"","ISI","","html-keyboard-response","295","333284","0.0-1.0-408.0","0","0","24764","","125","","","75","45","k","","","","","","","","","","","","","","",""
"","S2","","html-keyboard-response","296","333540","0.0-1.0-409.0","0","0","24764","","null","","","null","45","","NaN","","","","","","","","","","","","","",""
"","response","","html-keyboard-response","297","334024","0.0-1.0-410.0-0.0","0","0","24764","","482","","","75","45","","","1","45","training","adjacent","FG","6","7","O.jpg","N.jpg","0","1","0","",""
"","feedback","","html-keyboard-response","298","335030","0.0-1.0-411.0-0.0","0","0","24764","","null","","","null","45","","","","","","","","","","","","","","","",""
"","time_out","","html-keyboard-response","299","337033","0.0-1.0-413.0-0.0","0","0","24764","","null","","","null","45","","","","","","","","","","","","","","","",""
"","ITI","","html-keyboard-response","300","338039","0.0-1.0-414.0","0","0","24764","","null","","","null","45","","","","","","","","","","","","","","","NaN",""
"","S1","","html-keyboard-response","301","338296","0.0-1.0-416.0","0","0","24764","","null","","","null","46","","","","","","","","","","","","","","","",""
"","ISI","","html-keyboard-response","302","340302","0.0-1.0-417.0","0","0","24764","","220","","","68","46","d","","","","","","","","","","","","","","",""
"","S2","","html-keyboard-response","303","340559","0.0-1.0-418.0","0","0","24764","","null","","","null","46","","NaN","","","","","","","","","","","","","",""
"","response","","html-keyboard-response","304","340967","0.0-1.0-419.0-0.0","0","0","24764","","406","","","68","46","","","1","46","training","adjacent","BC","2","3","R.jpg","L.jpg","1","1","1","",""
"","feedback","","html-keyboard-response","305","341972","0.0-1.0-420.0-0.0","0","0","24764","","null","","","null","46","","","","","","","","","","","","","","","",""
"","ITI","","html-keyboard-response","306","342976","0.0-1.0-423.0","0","0","24764","","null","","","null","46","","","","","","","","","","","","","","","NaN",""
"","S1","","html-keyboard-response","307","343231","0.0-1.0-425.0","0","0","24764","","null","","","null","47","","","","","","","","","","","","","","","",""
"","ISI","","html-keyboard-response","308","345237","0.0-1.0-426.0","0","0","24764","","null","","","null","47","NaN","","","","","","","","","","","","","","",""
"","S2","","html-keyboard-response","309","345492","0.0-1.0-427.0","0","0","24764","","null","","","null","47","","NaN","","","","","","","","","","","","","",""
"","response","","html-keyboard-response","310","345655","0.0-1.0-428.0-0.0","0","0","24764","","160","","","68","47","","","1","47","training","adjacent","DC","4","3","M.jpg","L.jpg","1","0","0","",""
"","feedback","","html-keyboard-response","311","346662","0.0-1.0-429.0-0.0","0","0","24764","","null","","","null","47","","","","","","","","","","","","","","","",""
"","time_out","","html-keyboard-response","312","348666","0.0-1.0-431.0-0.0","0","0","24764","","null","","","null","47","","","","","","","","","","","","","","","",""
"","ITI","","html-keyboard-response","313","349672","0.0-1.0-432.0","0","0","24764","","null","","","null","47","","","","","","","","","","","","","","","NaN",""
"","block_over","","html-keyboard-response","314","354537","0.0-1.0-433.0-0.0","0","0","24764","","4861","","","32","47","","","","","","","","","","","","","","","",""
"","S1","","html-keyboard-response","315","354793","0.0-1.0-434.0","0","0","24764","","null","","","null","48","","","","","","","","","","","","","","","",""
"","ISI","","html-keyboard-response","316","356798","0.0-1.0-435.0","0","0","24764","","null","","","null","48","NaN","","","","","","","","","","","","","","",""
"","S2","","html-keyboard-response","317","357055","0.0-1.0-436.0","0","0","24764","","null","","","null","48","","NaN","","","","","","","","","","","","","",""
"","response","","html-keyboard-response","318","357142","0.0-1.0-437.0-0.0","0","0","24764","","84","","","75","48","","","2","48","training","adjacent","CD","3","4","L.jpg","M.jpg","0","1","0","",""
"","feedback","","html-keyboard-response","319","358149","0.0-1.0-438.0-0.0","0","0","24764","","null","","","null","48","","","","","","","","","","","","","","","",""
"","time_out","","html-keyboard-response","320","360154","0.0-1.0-440.0-0.0","0","0","24764","","null","","","null","48","","","","","","","","","","","","","","","",""
"","ITI","","html-keyboard-response","321","361158","0.0-1.0-441.0","0","0","24764","","null","","","null","48","","","","","","","","","","","","","","","NaN",""
"","S1","","html-keyboard-response","322","361415","0.0-1.0-443.0","0","0","24764","","null","","","null","49","","","","","","","","","","","","","","","",""
"","ISI","","html-keyboard-response","323","363420","0.0-1.0-444.0","0","0","24764","","245","","","75","49","k","","","","","","","","","","","","","","",""
"","S2","","html-keyboard-response","324","363674","0.0-1.0-445.0","0","0","24764","","null","","","null","49","","NaN","","","","","","","","","","","","","",""
"","response","","html-keyboard-response","325","363747","0.0-1.0-446.0-0.0","0","0","24764","","71","","","75","49","","","2","49","training","adjacent","BC","2","3","R.jpg","L.jpg","0","1","0","",""
"","feedback","","html-keyboard-response","326","364755","0.0-1.0-447.0-0.0","0","0","24764","","null","","","null","49","","","","","","","","","","","","","","","",""
"","time_out","","html-keyboard-response","327","366764","0.0-1.0-449.0-0.0","0","0","24764","","null","","","null","49","","","","","","","","","","","","","","","",""
"","ITI","","html-keyboard-response","328","367769","0.0-1.0-450.0","0","0","24764","","null","","","null","49","","","","","","","","","","","","","","","NaN",""
"","S1","","html-keyboard-response","329","368025","0.0-1.0-452.0","0","0","24764","","null","","","null","50","","","","","","","","","","","","","","","",""
"","ISI","","html-keyboard-response","330","370030","0.0-1.0-453.0","0","0","24764","","null","","","null","50","NaN","","","","","","","","","","","","","","",""
"","S2","","html-keyboard-response","331","370286","0.0-1.0-454.0","0","0","24764","","null","","","null","50","","NaN","","","","","","","","","","","","","",""
"","response","","html-keyboard-response","332","370384","0.0-1.0-455.0-0.0","0","0","24764","","95","","","75","50","","","2","50","training","adjacent","AB","1","2","P.jpg","R.jpg","0","1","0","",""
"","feedback","","html-keyboard-response","333","371390","0.0-1.0-456.0-0.0","0","0","24764","","null","","","null","50","","","","","","","","","","","","","","","",""
"","time_out","","html-keyboard-response","334","373396","0.0-1.0-458.0-0.0","0","0","24764","","null","","","null","50","","","","","","","","","","","","","","","",""
"","ITI","","html-keyboard-response","335","374402","0.0-1.0-459.0","0","0","24764","","null","","","null","50","","","","","","","","","","","","","","","NaN",""
"","S1","","html-keyboard-response","336","374660","0.0-1.0-461.0","0","0","24764","","null","","","null","51","","","","","","","","","","","","","","","",""
"","ISI","","html-keyboard-response","337","376665","0.0-1.0-462.0","0","0","24764","","127","","","68","51","d","","","","","","","","","","","","","","",""
"","S2","","html-keyboard-response","338","376921","0.0-1.0-463.0","0","0","24764","","null","","","null","51","","NaN","","","","","","","","","","","","","",""
"","response","","html-keyboard-response","339","376986","0.0-1.0-464.0-0.0","0","0","24764","","63","","","68","51","","","2","51","training","adjacent","BC","2","3","R.jpg","L.jpg","1","1","1","",""
"","feedback","","html-keyboard-response","340","377994","0.0-1.0-465.0-0.0","0","0","24764","","null","","","null","51","","","","","","","","","","","","","","","",""
"","ITI","","html-keyboard-response","341","379001","0.0-1.0-468.0","0","0","24764","","null","","","null","51","","","","","","","","","","","","","","","NaN",""
"","S1","","html-keyboard-response","342","379259","0.0-1.0-470.0","0","0","24764","","null","","","null","52","","","","","","","","","","","","","","","",""
"","ISI","","html-keyboard-response","343","381266","0.0-1.0-471.0","0","0","24764","","null","","","null","52","NaN","","","","","","","","","","","","","","",""
"","S2","","html-keyboard-response","344","381524","0.0-1.0-472.0","0","0","24764","","null","","","null","52","","NaN","","","","","","","","","","","","","",""
"","response","","html-keyboard-response","345","381679","0.0-1.0-473.0-0.0","0","0","24764","","149","","","68","52","","","2","52","training","adjacent","CD","3","4","L.jpg","M.jpg","1","1","1","",""
"","feedback","","html-keyboard-response","346","382686","0.0-1.0-474.0-0.0","0","0","24764","","null","","","null","52","","","","","","","","","","","","","","","",""
"","ITI","","html-keyboard-response","347","383693","0.0-1.0-477.0","0","0","24764","","null","","","null","52","","","","","","","","","","","","","","","NaN",""
"","S1","","html-keyboard-response","348","383950","0.0-1.0-479.0","0","0","24764","","null","","","null","53","","","","","","","","","","","","","","","",""
"","ISI","","html-keyboard-response","349","385956","0.0-1.0-480.0","0","0","24764","","null","","","null","53","NaN","","","","","","","","","","","","","","",""
"","S2","","html-keyboard-response","350","386213","0.0-1.0-481.0","0","0","24764","","null","","","null","53","","NaN","","","","","","","","","","","","","",""
"","response","","html-keyboard-response","351","386444","0.0-1.0-482.0-0.0","0","0","24764","","228","","","68","53","","","2","53","training","adjacent","FE","6","5","O.jpg","Q.jpg","1","0","0","",""
"","feedback","","html-keyboard-response","352","387449","0.0-1.0-483.0-0.0","0","0","24764","","null","","","null","53","","","","","","","","","","","","","","","",""
"","time_out","","html-keyboard-response","353","389457","0.0-1.0-485.0-0.0","0","0","24764","","null","","","null","53","","","","","","","","","","","","","","","",""
"","ITI","","html-keyboard-response","354","390462","0.0-1.0-486.0","0","0","24764","","null","","","null","53","","","","","","","","","","","","","","","NaN",""
"","S1","","html-keyboard-response","355","390719","0.0-1.0-488.0","0","0","24764","","null","","","null","54","","","","","","","","","","","","","","","",""
"","ISI","","html-keyboard-response","356","392724","0.0-1.0-489.0","0","0","24764","","411","","","68","54","d","","","","","","","","","","","","","","",""
"","S2","","html-keyboard-response","357","392980","0.0-1.0-490.0","0","0","24764","","null","","","null","54","","NaN","","","","","","","","","","","","","",""
"","response","","html-keyboard-response","358","393291","0.0-1.0-491.0-0.0","0","0","24764","","308","","","68","54","","","2","54","training","adjacent","FE","6","5","O.jpg","Q.jpg","1","0","0","",""
"","feedback","","html-keyboard-response","359","394297","0.0-1.0-492.0-0.0","0","0","24764","","null","","","null","54","","","","","","","","","","","","","","","",""
"","time_out","","html-keyboard-response","360","396303","0.0-1.0-494.0-0.0","0","0","24764","","null","","","null","54","","","","","","","","","","","","","","","",""
"","ITI","","html-keyboard-response","361","397310","0.0-1.0-495.0","0","0","24764","","null","","","null","54","","","","","","","","","","","","","","","NaN",""
"","S1","","html-keyboard-response","362","397567","0.0-1.0-497.0","0","0","24764","","null","","","null","55","","","","","","","","","","","","","","","",""
"","ISI","","html-keyboard-response","363","399573","0.0-1.0-498.0","0","0","24764","","84","","","68","55","d","","","","","","","","","","","","","","",""
"","S2","","html-keyboard-response","364","399828","0.0-1.0-499.0","0","0","24764","","null","","","null","55","","NaN","","","","","","","","","","","","","",""
"","response","","html-keyboard-response","365","399928","0.0-1.0-500.0-0.0","0","0","24764","","96","","","68","55","","","2","55","training","adjacent","DC","4","3","M.jpg","L.jpg","1","0","0","",""
"","feedback","","html-keyboard-response","366","400932","0.0-1.0-501.0-0.0","0","0","24764","","null","","","null","55","","","","","","","","","","","","","","","",""
"","time_out","","html-keyboard-response","367","402937","0.0-1.0-503.0-0.0","0","0","24764","","null","","","null","55","","","","","","","","","","","","","","","",""
"","ITI","","html-keyboard-response","368","403944","0.0-1.0-504.0","0","0","24764","","null","","","null","55","","","","","","","","","","","","","","","NaN",""
"","S1","","html-keyboard-response","369","404201","0.0-1.0-506.0","0","0","24764","","null","","","null","56","","","","","","","","","","","","","","","",""
"","ISI","","html-keyboard-response","370","406207","0.0-1.0-507.0","0","0","24764","","118","","","75","56","k","","","","","","","","","","","","","","",""
"","S2","","html-keyboard-response","371","406464","0.0-1.0-508.0","0","0","24764","","null","","","null","56","","NaN","","","","","","","","","","","","","",""
"","response","","html-keyboard-response","372","406647","0.0-1.0-509.0-0.0","0","0","24764","","182","","","75","56","","","2","56","training","adjacent","CB","3","2","L.jpg","R.jpg","0","0","1","",""
"","feedback","","html-keyboard-response","373","407659","0.0-1.0-510.0-0.0","0","0","24764","","null","","","null","56","","","","","","","","","","","","","","","",""
"","ITI","","html-keyboard-response","374","408665","0.0-1.0-513.0","0","0","24764","","null","","","null","56","","","","","","","","","","","","","","","NaN",""
"","S1","","html-keyboard-response","375","408921","0.0-1.0-515.0","0","0","24764","","null","","","null","57","","","","","","","","","","","","","","","",""
"","ISI","","html-keyboard-response","376","410927","0.0-1.0-516.0","0","0","24764","","null","","","null","57","NaN","","","","","","","","","","","","","","",""
"","S2","","html-keyboard-response","377","411184","0.0-1.0-517.0","0","0","24764","","null","","","null","57","","NaN","","","","","","","","","","","","","",""
"","response","","html-keyboard-response","378","411261","0.0-1.0-518.0-0.0","0","0","24764","","75","","","75","57","","","2","57","training","adjacent","AB","1","2","P.jpg","R.jpg","0","1","0","",""
"","feedback","","html-keyboard-response","379","412269","0.0-1.0-519.0-0.0","0","0","24764","","null","","","null","57","","","","","","","","","","","","","","","",""
"","time_out","","html-keyboard-response","380","414273","0.0-1.0-521.0-0.0","0","0","24764","","null","","","null","57","","","","","","","","","","","","","","","",""
"","ITI","","html-keyboard-response","381","415279","0.0-1.0-522.0","0","0","24764","","null","","","null","57","","","","","","","","","","","","","","","NaN",""
"","S1","","html-keyboard-response","382","415536","0.0-1.0-524.0","0","0","24764","","null","","","null","58","","","","","","","","","","","","","","","",""
"","ISI","","html-keyboard-response","383","417542","0.0-1.0-525.0","0","0","24764","","75","","","75","58","k","","","","","","","","","","","","","","",""
"","S2","","html-keyboard-response","384","417796","0.0-1.0-526.0","0","0","24764","","null","","","null","58","","NaN","","","","","","","","","","","","","",""
"","response","","html-keyboard-response","385","417997","0.0-1.0-527.0-0.0","0","0","24764","","199","","","68","58","","","2","58","training","adjacent","BC","2","3","R.jpg","L.jpg","1","1","1","",""
"","feedback","","html-keyboard-response","386","419006","0.0-1.0-528.0-0.0","0","0","24764","","null","","","null","58","","","","","","","","","","","","","","","",""
"","ITI","","html-keyboard-response","387","420010","0.0-1.0-531.0","0","0","24764","","null","","","null","58","","","","","","","","","","","","","","","NaN",""
"","S1","","html-keyboard-response","388","420267","0.0-1.0-533.0","0","0","24764","","null","","","null","59","","","","","","","","","","","","","","","",""
"","ISI","","html-keyboard-response","389","422273","0.0-1.0-534.0","0","0","24764","","null","","","null","59","NaN","","","","","","","","","","","","","","",""
"","S2","","html-keyboard-response","390","422527","0.0-1.0-535.0","0","0","24764","","null","","","null","59","","NaN","","","","","","","","","","","","","",""
"","response","","html-keyboard-response","391","422783","0.0-1.0-536.0-0.0","0","0","24764","","255","","","68","59","","","2","59","training","adjacent","GF","7","6","N.jpg","O.jpg","1","0","0","",""
"","feedback","","html-keyboard-response","392","423790","0.0-1.0-537.0-0.0","0","0","24764","","null","","","null","59","","","","","","","","","","","","","","","",""
"","time_out","","html-keyboard-response","393","425796","0.0-1.0-539.0-0.0","0","0","24764","","null","","","null","59","","","","","","","","","","","","","","","",""
"","ITI","","html-keyboard-response","394","426800","0.0-1.0-540.0","0","0","24764","","null","","","null","59","","","","","","","","","","","","","","","NaN",""
"","S1","","html-keyboard-response","395","427061","0.0-1.0-542.0","0","0","24764","","null","","","null","60","","","","","","","","","","","","","","","",""
"","ISI","","html-keyboard-response","396","429069","0.0-1.0-543.0","0","0","24764","","null","","","null","60","NaN","","","","","","","","","","","","","","",""
"","S2","","html-keyboard-response","397","429326","0.0-1.0-544.0","0","0","24764","","null","","","null","60","","NaN","","","","","","","","","","","","","",""
"","response","","html-keyboard-response","398","429415","0.0-1.0-545.0-0.0","0","0","24764","","86","","","68","60","","","2","60","training","adjacent","ED","5","4","Q.jpg","M.jpg","1","0","0","",""
"","feedback","","html-keyboard-response","399","430420","0.0-1.0-546.0-0.0","0","0","24764","","null","","","null","60","","","","","","","","","","","","","","","",""
"","time_out","","html-keyboard-response","400","432424","0.0-1.0-548.0-0.0","0","0","24764","","null","","","null","60","","","","","","","","","","","","","","","",""
"","ITI","","html-keyboard-response","401","433430","0.0-1.0-549.0","0","0","24764","","null","","","null","60","","","","","","","","","","","","","","","NaN",""
"","S1","","html-keyboard-response","402","433683","0.0-1.0-551.0","0","0","24764","","null","","","null","61","","","","","","","","","","","","","","","",""
"","ISI","","html-keyboard-response","403","435689","0.0-1.0-552.0","0","0","24764","","null","","","null","61","NaN","","","","","","","","","","","","","","",""
"","S2","","html-keyboard-response","404","435945","0.0-1.0-553.0","0","0","24764","","null","","","null","61","","NaN","","","","","","","","","","","","","",""
"","response","","html-keyboard-response","405","436066","0.0-1.0-554.0-0.0","0","0","24764","","119","","","75","61","","","2","61","training","adjacent","EF","5","6","Q.jpg","O.jpg","0","1","0","",""
"","feedback","","html-keyboard-response","406","437070","0.0-1.0-555.0-0.0","0","0","24764","","null","","","null","61","","","","","","","","","","","","","","","",""
"","time_out","","html-keyboard-response","407","439076","0.0-1.0-557.0-0.0","0","0","24764","","null","","","null","61","","","","","","","","","","","","","","","",""
"","ITI","","html-keyboard-response","408","440084","0.0-1.0-558.0","0","0","24764","","null","","","null","61","","","","","","","","","","","","","","","NaN",""
"","S1","","html-keyboard-response","409","440340","0.0-1.0-560.0","0","0","24764","","null","","","null","62","","","","","","","","","","","","","","","",""
"","ISI","","html-keyboard-response","410","442346","0.0-1.0-561.0","0","0","24764","","null","","","null","62","NaN","","","","","","","","","","","","","","",""
"","S2","","html-keyboard-response","411","442603","0.0-1.0-562.0","0","0","24764","","null","","","null","62","","NaN","","","","","","","","","","","","","",""
"","response","","html-keyboard-response","412","443027","0.0-1.0-563.0-0.0","0","0","24764","","422","","","68","62","","","2","62","training","adjacent","FE","6","5","O.jpg","Q.jpg","1","0","0","",""
"","feedback","","html-keyboard-response","413","444036","0.0-1.0-564.0-0.0","0","0","24764","","null","","","null","62","","","","","","","","","","","","","","","",""
"","time_out","","html-keyboard-response","414","446041","0.0-1.0-566.0-0.0","0","0","24764","","null","","","null","62","","","","","","","","","","","","","","","",""
"","ITI","","html-keyboard-response","415","447045","0.0-1.0-567.0","0","0","24764","","null","","","null","62","","","","","","","","","","","","","","","NaN",""
"","S1","","html-keyboard-response","416","447306","0.0-1.0-569.0","0","0","24764","","null","","","null","63","","","","","","","","","","","","","","","",""
"","ISI","","html-keyboard-response","417","449309","0.0-1.0-570.0","0","0","24764","","259","","","68","63","d","","","","","","","","","","","","","","",""
"","S2","","html-keyboard-response","418","449566","0.0-1.0-571.0","0","0","24764","","null","","","null","63","","NaN","","","","","","","","","","","","","",""
"","response","","html-keyboard-response","419","449676","0.0-1.0-572.0-0.0","0","0","24764","","107","","","68","63","","","2","63","training","adjacent","FG","6","7","O.jpg","N.jpg","1","1","1","",""
"","feedback","","html-keyboard-response","420","450682","0.0-1.0-573.0-0.0","0","0","24764","","null","","","null","63","","","","","","","","","","","","","","","",""
"","ITI","","html-keyboard-response","421","451690","0.0-1.0-576.0","0","0","24764","","null","","","null","63","","","","","","","","","","","","","","","NaN",""
"","S1","","html-keyboard-response","422","451951","0.0-1.0-578.0","0","0","24764","","null","","","null","64","","","","","","","","","","","","","","","",""
"","ISI","","html-keyboard-response","423","453953","0.0-1.0-579.0","0","0","24764","","null","","","null","64","NaN","","","","","","","","","","","","","","",""
"","S2","","html-keyboard-response","424","454208","0.0-1.0-580.0","0","0","24764","","null","","","null","64","","NaN","","","","","","","","","","","","","",""
"","response","","html-keyboard-response","425","454691","0.0-1.0-581.0-0.0","0","0","24764","","480","","","75","64","","","2","64","training","adjacent","BA","2","1","R.jpg","P.jpg","0","0","1","",""
"","feedback","","html-keyboard-response","426","455699","0.0-1.0-582.0-0.0","0","0","24764","","null","","","null","64","","","","","","","","","","","","","","","",""
"","ITI","","html-keyboard-response","427","456706","0.0-1.0-585.0","0","0","24764","","null","","","null","64","","","","","","","","","","","","","","","NaN",""
"","S1","","html-keyboard-response","428","456964","0.0-1.0-587.0","0","0","24764","","null","","","null","65","","","","","","","","","","","","","","","",""
"","ISI","","html-keyboard-response","429","458971","0.0-1.0-588.0","0","0","24764","","null","","","null","65","NaN","","","","","","","","","","","","","","",""
"","S2","","html-keyboard-response","430","459227","0.0-1.0-589.0","0","0","24764","","null","","","null","65","","NaN","","","","","","","","","","","","","",""
"","response","","html-keyboard-response","431","459647","0.0-1.0-590.0-0.0","0","0","24764","","417","","","68","65","","","2","65","training","adjacent","FG","6","7","O.jpg","N.jpg","1","1","1","",""
"","feedback","","html-keyboard-response","432","460654","0.0-1.0-591.0-0.0","0","0","24764","","null","","","null","65","","","","","","","","","","","","","","","",""
"","ITI","","html-keyboard-response","433","461660","0.0-1.0-594.0","0","0","24764","","null","","","null","65","","","","","","","","","","","","","","","NaN",""
"","S1","","html-keyboard-response","434","461917","0.0-1.0-596.0","0","0","24764","","null","","","null","66","","","","","","","","","","","","","","","",""
"","ISI","","html-keyboard-response","435","463923","0.0-1.0-597.0","0","0","24764","","null","","","null","66","NaN","","","","","","","","","","","","","","",""
"","S2","","html-keyboard-response","436","464179","0.0-1.0-598.0","0","0","24764","","null","","","null","66","","NaN","","","","","","","","","","","","","",""
"","response","","html-keyboard-response","437","464564","0.0-1.0-599.0-0.0","0","0","24764","","383","","","68","66","","","2","66","training","adjacent","FE","6","5","O.jpg","Q.jpg","1","0","0","",""
"","feedback","","html-keyboard-response","438","465571","0.0-1.0-600.0-0.0","0","0","24764","","null","","","null","66","","","","","","","","","","","","","","","",""
"","time_out","","html-keyboard-response","439","467579","0.0-1.0-602.0-0.0","0","0","24764","","null","","","null","66","","","","","","","","","","","","","","","",""
"","ITI","","html-keyboard-response","440","468586","0.0-1.0-603.0","0","0","24764","","null","","","null","66","","","","","","","","","","","","","","","NaN",""
"","S1","","html-keyboard-response","441","468842","0.0-1.0-605.0","0","0","24764","","null","","","null","67","","","","","","","","","","","","","","","",""
"","ISI","","html-keyboard-response","442","470846","0.0-1.0-606.0","0","0","24764","","416","","","75","67","k","","","","","","","","","","","","","","",""
"","S2","","html-keyboard-response","443","471104","0.0-1.0-607.0","0","0","24764","","null","","","null","67","","NaN","","","","","","","","","","","","","",""
"","response","","html-keyboard-response","444","471196","0.0-1.0-608.0-0.0","0","0","24764","","91","","","75","67","","","2","67","training","adjacent","CB","3","2","L.jpg","R.jpg","0","0","1","",""
"","feedback","","html-keyboard-response","445","472201","0.0-1.0-609.0-0.0","0","0","24764","","null","","","null","67","","","","","","","","","","","","","","","",""
"","ITI","","html-keyboard-response","446","473210","0.0-1.0-612.0","0","0","24764","","null","","","null","67","","","","","","","","","","","","","","","NaN",""
"","S1","","html-keyboard-response","447","473466","0.0-1.0-614.0","0","0","24764","","null","","","null","68","","","","","","","","","","","","","","","",""
"","ISI","","html-keyboard-response","448","475471","0.0-1.0-615.0","0","0","24764","","null","","","null","68","NaN","","","","","","","","","","","","","","",""
"","S2","","html-keyboard-response","449","475727","0.0-1.0-616.0","0","0","24764","","null","","","null","68","","NaN","","","","","","","","","","","","","",""
"","response","","html-keyboard-response","450","476142","0.0-1.0-617.0-0.0","0","0","24764","","413","","","75","68","","","2","68","training","adjacent","DC","4","3","M.jpg","L.jpg","0","0","1","",""
"","feedback","","html-keyboard-response","451","477150","0.0-1.0-618.0-0.0","0","0","24764","","null","","","null","68","","","","","","","","","","","","","","","",""
"","ITI","","html-keyboard-response","452","478156","0.0-1.0-621.0","0","0","24764","","null","","","null","68","","","","","","","","","","","","","","","NaN",""
"","S1","","html-keyboard-response","453","478414","0.0-1.0-623.0","0","0","24764","","null","","","null","69","","","","","","","","","","","","","","","",""
"","ISI","","html-keyboard-response","454","480420","0.0-1.0-624.0","0","0","24764","","null","","","null","69","NaN","","","","","","","","","","","","","","",""
"","S2","","html-keyboard-response","455","480678","0.0-1.0-625.0","0","0","24764","","null","","","null","69","","NaN","","","","","","","","","","","","","",""
"","response","","html-keyboard-response","456","480698","0.0-1.0-626.0-0.0","0","0","24764","","17","","","68","69","","","2","69","training","adjacent","GF","7","6","N.jpg","O.jpg","1","0","0","",""
"","feedback","","html-keyboard-response","457","481702","0.0-1.0-627.0-0.0","0","0","24764","","null","","","null","69","","","","","","","","","","","","","","","",""
"","time_out","","html-keyboard-response","458","483709","0.0-1.0-629.0-0.0","0","0","24764","","null","","","null","69","","","","","","","","","","","","","","","",""
"","ITI","","html-keyboard-response","459","484716","0.0-1.0-630.0","0","0","24764","","null","","","null","69","","","","","","","","","","","","","","","NaN",""
"","S1","","html-keyboard-response","460","484971","0.0-1.0-632.0","0","0","24764","","null","","","null","70","","","","","","","","","","","","","","","",""
"","ISI","","html-keyboard-response","461","486980","0.0-1.0-633.0","0","0","24764","","49","","","75","70","k","","","","","","","","","","","","","","",""
"","S2","","html-keyboard-response","462","487235","0.0-1.0-634.0","0","0","24764","","null","","","null","70","","NaN","","","","","","","","","","","","","",""
"","response","","html-keyboard-response","463","487304","0.0-1.0-635.0-0.0","0","0","24764","","66","","","75","70","","","2","70","training","adjacent","AB","1","2","P.jpg","R.jpg","0","1","0","",""
"","feedback","","html-keyboard-response","464","488309","0.0-1.0-636.0-0.0","0","0","24764","","null","","","null","70","","","","","","","","","","","","","","","",""
"","time_out","","html-keyboard-response","465","490315","0.0-1.0-638.0-0.0","0","0","24764","","null","","","null","70","","","","","","","","","","","","","","","",""
"","ITI","","html-keyboard-response","466","491322","0.0-1.0-639.0","0","0","24764","","null","","","null","70","","","","","","","","","","","","","","","NaN",""
"","S1","","html-keyboard-response","467","491577","0.0-1.0-641.0","0","0","24764","","null","","","null","71","","","","","","","","","","","","","","","",""
"","ISI","","html-keyboard-response","468","493585","0.0-1.0-642.0","0","0","24764","","null","","","null","71","NaN","","","","","","","","","","","","","","",""
"","S2","","html-keyboard-response","469","493839","0.0-1.0-643.0","0","0","24764","","null","","","null","71","","NaN","","","","","","","","","","","","","",""
"","response","","html-keyboard-response","470","493871","0.0-1.0-644.0-0.0","0","0","24764","","29","","","68","71","","","2","71","training","adjacent","BA","2","1","R.jpg","P.jpg","1","0","0","",""
"","feedback","","html-keyboard-response","471","494879","0.0-1.0-645.0-0.0","0","0","24764","","null","","","null","71","","","","","","","","","","","","","","","",""
"","time_out","","html-keyboard-response","472","496885","0.0-1.0-647.0-0.0","0","0","24764","","null","","","null","71","","","","","","","","","","","","","","","",""
"","ITI","","html-keyboard-response","473","497891","0.0-1.0-648.0","0","0","24764","","null","","","null","71","","","","","","","","","","","","","","","NaN",""
"","S1","","html-keyboard-response","474","498147","0.0-1.0-650.0","0","0","24764","","null","","","null","72","","","","","","","","","","","","","","","",""
"","ISI","","html-keyboard-response","475","500152","0.0-1.0-651.0","0","0","24764","","89","","","75","72","k","","","","","","","","","","","","","","",""
"","S2","","html-keyboard-response","476","500408","0.0-1.0-652.0","0","0","24764","","null","","","null","72","","NaN","","","","","","","","","","","","","",""
"","response","","html-keyboard-response","477","500477","0.0-1.0-653.0-0.0","0","0","24764","","67","","","68","72","","","2","72","training","adjacent","ED","5","4","Q.jpg","M.jpg","1","0","0","",""
"","feedback","","html-keyboard-response","478","501488","0.0-1.0-654.0-0.0","0","0","24764","","null","","","null","72","","","","","","","","","","","","","","","",""
"","time_out","","html-keyboard-response","479","503499","0.0-1.0-656.0-0.0","0","0","24764","","null","","","null","72","","","","","","","","","","","","","","","",""
"","ITI","","html-keyboard-response","480","504505","0.0-1.0-657.0","0","0","24764","","null","","","null","72","","","","","","","","","","","","","","","NaN",""
"","S1","","html-keyboard-response","481","504758","0.0-1.0-659.0","0","0","24764","","null","","","null","73","","","","","","","","","","","","","","","",""
"","ISI","","html-keyboard-response","482","506765","0.0-1.0-660.0","0","0","24764","","218","","","75","73","k","","","","","","","","","","","","","","",""
"","S2","","html-keyboard-response","483","507022","0.0-1.0-661.0","0","0","24764","","null","","","null","73","","NaN","","","","","","","","","","","","","",""
"","response","","html-keyboard-response","484","507072","0.0-1.0-662.0-0.0","0","0","24764","","47","","","75","73","","","2","73","training","adjacent","DC","4","3","M.jpg","L.jpg","0","0","1","",""
"","feedback","","html-keyboard-response","485","508079","0.0-1.0-663.0-0.0","0","0","24764","","null","","","null","73","","","","","","","","","","","","","","","",""
"","ITI","","html-keyboard-response","486","509086","0.0-1.0-666.0","0","0","24764","","null","","","null","73","","","","","","","","","","","","","","","NaN",""
"","S1","","html-keyboard-response","487","509343","0.0-1.0-668.0","0","0","24764","","null","","","null","74","","","","","","","","","","","","","","","",""
"","ISI","","html-keyboard-response","488","511348","0.0-1.0-669.0","0","0","24764","","null","","","null","74","NaN","","","","","","","","","","","","","","",""
"","S2","","html-keyboard-response","489","511604","0.0-1.0-670.0","0","0","24764","","null","","","null","74","","NaN","","","","","","","","","","","","","",""
"","response","","html-keyboard-response","490","512184","0.0-1.0-671.0-0.0","0","0","24764","","577","","","75","74","","","2","74","training","adjacent","EF","5","6","Q.jpg","O.jpg","0","1","0","",""
"","feedback","","html-keyboard-response","491","513189","0.0-1.0-672.0-0.0","0","0","24764","","null","","","null","74","","","","","","","","","","","","","","","",""
"","time_out","","html-keyboard-response","492","515194","0.0-1.0-674.0-0.0","0","0","24764","","null","","","null","74","","","","","","","","","","","","","","","",""
"","ITI","","html-keyboard-response","493","516201","0.0-1.0-675.0","0","0","24764","","null","","","null","74","","","","","","","","","","","","","","","NaN",""
"","S1","","html-keyboard-response","494","516457","0.0-1.0-677.0","0","0","24764","","null","","","null","75","","","","","","","","","","","","","","","",""
"","ISI","","html-keyboard-response","495","518464","0.0-1.0-678.0","0","0","24764","","null","","","null","75","NaN","","","","","","","","","","","","","","",""
"","S2","","html-keyboard-response","496","518718","0.0-1.0-679.0","0","0","24764","","null","","","null","75","","NaN","","","","","","","","","","","","","",""
"","response","","html-keyboard-response","497","519472","0.0-1.0-680.0-0.0","0","0","24764","","751","","","68","75","","","2","75","training","adjacent","CD","3","4","L.jpg","M.jpg","1","1","1","",""
"","feedback","","html-keyboard-response","498","520475","0.0-1.0-681.0-0.0","0","0","24764","","null","","","null","75","","","","","","","","","","","","","","","",""
"","ITI","","html-keyboard-response","499","521479","0.0-1.0-684.0","0","0","24764","","null","","","null","75","","","","","","","","","","","","","","","NaN",""
"","S1","","html-keyboard-response","500","521737","0.0-1.0-686.0","0","0","24764","","null","","","null","76","","","","","","","","","","","","","","","",""
"","ISI","","html-keyboard-response","501","523743","0.0-1.0-687.0","0","0","24764","","null","","","null","76","NaN","","","","","","","","","","","","","","",""
"","S2","","html-keyboard-response","502","524000","0.0-1.0-688.0","0","0","24764","","null","","","null","76","","NaN","","","","","","","","","","","","","",""
"","response","","html-keyboard-response","503","524460","0.0-1.0-689.0-0.0","0","0","24764","","457","","","68","76","","","2","76","training","adjacent","FG","6","7","O.jpg","N.jpg","1","1","1","",""
"","feedback","","html-keyboard-response","504","525466","0.0-1.0-690.0-0.0","0","0","24764","","null","","","null","76","","","","","","","","","","","","","","","",""
"","ITI","","html-keyboard-response","505","526473","0.0-1.0-693.0","0","0","24764","","null","","","null","76","","","","","","","","","","","","","","","NaN",""
"","S1","","html-keyboard-response","506","526729","0.0-1.0-695.0","0","0","24764","","null","","","null","77","","","","","","","","","","","","","","","",""
"","ISI","","html-keyboard-response","507","528734","0.0-1.0-696.0","0","0","24764","","null","","","null","77","NaN","","","","","","","","","","","","","","",""
"","S2","","html-keyboard-response","508","528990","0.0-1.0-697.0","0","0","24764","","null","","","null","77","","NaN","","","","","","","","","","","","","",""
"","response","","html-keyboard-response","509","529557","0.0-1.0-698.0-0.0","0","0","24764","","564","","","68","77","","","2","77","training","adjacent","GF","7","6","N.jpg","O.jpg","1","0","0","",""
"","feedback","","html-keyboard-response","510","530563","0.0-1.0-699.0-0.0","0","0","24764","","null","","","null","77","","","","","","","","","","","","","","","",""
"","time_out","","html-keyboard-response","511","532569","0.0-1.0-701.0-0.0","0","0","24764","","null","","","null","77","","","","","","","","","","","","","","","",""
"","ITI","","html-keyboard-response","512","533576","0.0-1.0-702.0","0","0","24764","","null","","","null","77","","","","","","","","","","","","","","","NaN",""
"","S1","","html-keyboard-response","513","533833","0.0-1.0-704.0","0","0","24764","","null","","","null","78","","","","","","","","","","","","","","","",""
"","ISI","","html-keyboard-response","514","535837","0.0-1.0-705.0","0","0","24764","","null","","","null","78","NaN","","","","","","","","","","","","","","",""
"","S2","","html-keyboard-response","515","536094","0.0-1.0-706.0","0","0","24764","","null","","","null","78","","NaN","","","","","","","","","","","","","",""
"","response","","html-keyboard-response","516","536626","0.0-1.0-707.0-0.0","0","0","24764","","530","","","68","78","","","2","78","training","adjacent","BA","2","1","R.jpg","P.jpg","1","0","0","",""
"","feedback","","html-keyboard-response","517","537633","0.0-1.0-708.0-0.0","0","0","24764","","null","","","null","78","","","","","","","","","","","","","","","",""
"","time_out","","html-keyboard-response","518","539640","0.0-1.0-710.0-0.0","0","0","24764","","null","","","null","78","","","","","","","","","","","","","","","",""
"","ITI","","html-keyboard-response","519","540646","0.0-1.0-711.0","0","0","24764","","null","","","null","78","","","","","","","","","","","","","","","NaN",""
"","S1","","html-keyboard-response","520","540903","0.0-1.0-713.0","0","0","24764","","null","","","null","79","","","","","","","","","","","","","","","",""
"","ISI","","html-keyboard-response","521","542910","0.0-1.0-714.0","0","0","24764","","null","","","null","79","NaN","","","","","","","","","","","","","","",""
"","S2","","html-keyboard-response","522","543165","0.0-1.0-715.0","0","0","24764","","null","","","null","79","","NaN","","","","","","","","","","","","","",""
"","response","","html-keyboard-response","523","543952","0.0-1.0-716.0-0.0","0","0","24764","","784","","","75","79","","","2","79","training","adjacent","DE","4","5","M.jpg","Q.jpg","0","1","0","",""
"","feedback","","html-keyboard-response","524","544961","0.0-1.0-717.0-0.0","0","0","24764","","null","","","null","79","","","","","","","","","","","","","","","",""
"","time_out","","html-keyboard-response","525","546969","0.0-1.0-719.0-0.0","0","0","24764","","null","","","null","79","","","","","","","","","","","","","","","",""
"","ITI","","html-keyboard-response","526","547977","0.0-1.0-720.0","0","0","24764","","null","","","null","79","","","","","","","","","","","","","","","NaN",""
"","S1","","html-keyboard-response","527","548234","0.0-1.0-722.0","0","0","24764","","null","","","null","80","","","","","","","","","","","","","","","",""
"","ISI","","html-keyboard-response","528","550238","0.0-1.0-723.0","0","0","24764","","null","","","null","80","NaN","","","","","","","","","","","","","","",""
"","S2","","html-keyboard-response","529","550494","0.0-1.0-724.0","0","0","24764","","null","","","null","80","","NaN","","","","","","","","","","","","","",""
"","response","","html-keyboard-response","530","551270","0.0-1.0-725.0-0.0","0","0","24764","","774","","","75","80","","","2","80","training","adjacent","ED","5","4","Q.jpg","M.jpg","0","0","1","",""
"","feedback","","html-keyboard-response","531","552276","0.0-1.0-726.0-0.0","0","0","24764","","null","","","null","80","","","","","","","","","","","","","","","",""
"","ITI","","html-keyboard-response","532","553283","0.0-1.0-729.0","0","0","24764","","null","","","null","80","","","","","","","","","","","","","","","NaN",""
"","S1","","html-keyboard-response","533","553540","0.0-1.0-731.0","0","0","24764","","null","","","null","81","","","","","","","","","","","","","","","",""
"","ISI","","html-keyboard-response","534","555544","0.0-1.0-732.0","0","0","24764","","null","","","null","81","NaN","","","","","","","","","","","","","","",""
"","S2","","html-keyboard-response","535","555800","0.0-1.0-733.0","0","0","24764","","null","","","null","81","","NaN","","","","","","","","","","","","","",""
"","response","","html-keyboard-response","536","556543","0.0-1.0-734.0-0.0","0","0","24764","","741","","","75","81","","","2","81","training","adjacent","DC","4","3","M.jpg","L.jpg","0","0","1","",""
"","feedback","","html-keyboard-response","537","557550","0.0-1.0-735.0-0.0","0","0","24764","","null","","","null","81","","","","","","","","","","","","","","","",""
"","ITI","","html-keyboard-response","538","558555","0.0-1.0-738.0","0","0","24764","","null","","","null","81","","","","","","","","","","","","","","","NaN",""
"","S1","","html-keyboard-response","539","558810","0.0-1.0-740.0","0","0","24764","","null","","","null","82","","","","","","","","","","","","","","","",""
"","ISI","","html-keyboard-response","540","560814","0.0-1.0-741.0","0","0","24764","","null","","","null","82","NaN","","","","","","","","","","","","","","",""
"","S2","","html-keyboard-response","541","561070","0.0-1.0-742.0","0","0","24764","","null","","","null","82","","NaN","","","","","","","","","","","","","",""
"","response","","html-keyboard-response","542","561632","0.0-1.0-743.0-0.0","0","0","24764","","559","","","68","82","","","2","82","training","adjacent","EF","5","6","Q.jpg","O.jpg","1","1","1","",""
"","feedback","","html-keyboard-response","543","562638","0.0-1.0-744.0-0.0","0","0","24764","","null","","","null","82","","","","","","","","","","","","","","","",""
"","ITI","","html-keyboard-response","544","563645","0.0-1.0-747.0","0","0","24764","","null","","","null","82","","","","","","","","","","","","","","","NaN",""
"","S1","","html-keyboard-response","545","563901","0.0-1.0-749.0","0","0","24764","","null","","","null","83","","","","","","","","","","","","","","","",""
"","ISI","","html-keyboard-response","546","565908","0.0-1.0-750.0","0","0","24764","","null","","","null","83","NaN","","","","","","","","","","","","","","",""
"","S2","","html-keyboard-response","547","566162","0.0-1.0-751.0","0","0","24764","","null","","","null","83","","NaN","","","","","","","","","","","","","",""
"","response","","html-keyboard-response","548","566827","0.0-1.0-752.0-0.0","0","0","24764","","663","","","75","83","","","2","83","training","adjacent","ED","5","4","Q.jpg","M.jpg","0","0","1","",""
"","feedback","","html-keyboard-response","549","567835","0.0-1.0-753.0-0.0","0","0","24764","","null","","","null","83","","","","","","","","","","","","","","","",""
"","ITI","","html-keyboard-response","550","568840","0.0-1.0-756.0","0","0","24764","","null","","","null","83","","","","","","","","","","","","","","","NaN",""
"","S1","","html-keyboard-response","551","569098","0.0-1.0-758.0","0","0","24764","","null","","","null","84","","","","","","","","","","","","","","","",""
"","ISI","","html-keyboard-response","552","571102","0.0-1.0-759.0","0","0","24764","","null","","","null","84","NaN","","","","","","","","","","","","","","",""
"","S2","","html-keyboard-response","553","571358","0.0-1.0-760.0","0","0","24764","","null","","","null","84","","NaN","","","","","","","","","","","","","",""
"","response","","html-keyboard-response","554","572091","0.0-1.0-761.0-0.0","0","0","24764","","730","","","68","84","","","2","84","training","adjacent","DE","4","5","M.jpg","Q.jpg","1","1","1","",""
"","feedback","","html-keyboard-response","555","573097","0.0-1.0-762.0-0.0","0","0","24764","","null","","","null","84","","","","","","","","","","","","","","","",""
"","ITI","","html-keyboard-response","556","574105","0.0-1.0-765.0","0","0","24764","","null","","","null","84","","","","","","","","","","","","","","","NaN",""
"","S1","","html-keyboard-response","557","574361","0.0-1.0-767.0","0","0","24764","","null","","","null","85","","","","","","","","","","","","","","","",""
"","ISI","","html-keyboard-response","558","576366","0.0-1.0-768.0","0","0","24764","","null","","","null","85","NaN","","","","","","","","","","","","","","",""
"","S2","","html-keyboard-response","559","576621","0.0-1.0-769.0","0","0","24764","","null","","","null","85","","NaN","","","","","","","","","","","","","",""
"","response","","html-keyboard-response","560","577375","0.0-1.0-770.0-0.0","0","0","24764","","751","","","68","85","","","2","85","training","adjacent","BA","2","1","R.jpg","P.jpg","1","0","0","",""
"","feedback","","html-keyboard-response","561","578378","0.0-1.0-771.0-0.0","0","0","24764","","null","","","null","85","","","","","","","","","","","","","","","",""
"","time_out","","html-keyboard-response","562","580383","0.0-1.0-773.0-0.0","0","0","24764","","null","","","null","85","","","","","","","","","","","","","","","",""
"","ITI","","html-keyboard-response","563","581390","0.0-1.0-774.0","0","0","24764","","null","","","null","85","","","","","","","","","","","","","","","NaN",""
"","S1","","html-keyboard-response","564","581648","0.0-1.0-776.0","0","0","24764","","null","","","null","86","","","","","","","","","","","","","","","",""
"","ISI","","html-keyboard-response","565","583655","0.0-1.0-777.0","0","0","24764","","null","","","null","86","NaN","","","","","","","","","","","","","","",""
"","S2","","html-keyboard-response","566","583913","0.0-1.0-778.0","0","0","24764","","null","","","null","86","","NaN","","","","","","","","","","","","","",""
"","response","","html-keyboard-response","567","584463","0.0-1.0-779.0-0.0","0","0","24764","","547","","","75","86","","","2","86","training","adjacent","AB","1","2","P.jpg","R.jpg","0","1","0","",""
"","feedback","","html-keyboard-response","568","585469","0.0-1.0-780.0-0.0","0","0","24764","","null","","","null","86","","","","","","","","","","","","","","","",""
"","time_out","","html-keyboard-response","569","587475","0.0-1.0-782.0-0.0","0","0","24764","","null","","","null","86","","","","","","","","","","","","","","","",""
"","ITI","","html-keyboard-response","570","588483","0.0-1.0-783.0","0","0","24764","","null","","","null","86","","","","","","","","","","","","","","","NaN",""
"","S1","","html-keyboard-response","571","588741","0.0-1.0-785.0","0","0","24764","","null","","","null","87","","","","","","","","","","","","","","","",""
"","ISI","","html-keyboard-response","572","590744","0.0-1.0-786.0","0","0","24764","","null","","","null","87","NaN","","","","","","","","","","","","","","",""
"","S2","","html-keyboard-response","573","591000","0.0-1.0-787.0","0","0","24764","","null","","","null","87","","NaN","","","","","","","","","","","","","",""
"","response","","html-keyboard-response","574","591029","0.0-1.0-788.0-0.0","0","0","24764","","26","","","68","87","","","2","87","training","adjacent","CD","3","4","L.jpg","M.jpg","1","1","1","",""
"","feedback","","html-keyboard-response","575","592035","0.0-1.0-789.0-0.0","0","0","24764","","null","","","null","87","","","","","","","","","","","","","","","",""
"","ITI","","html-keyboard-response","576","593043","0.0-1.0-792.0","0","0","24764","","null","","","null","87","","","","","","","","","","","","","","","NaN",""
"","S1","","html-keyboard-response","577","593300","0.0-1.0-794.0","0","0","24764","","null","","","null","88","","","","","","","","","","","","","","","",""
"","ISI","","html-keyboard-response","578","595303","0.0-1.0-795.0","0","0","24764","","null","","","null","88","NaN","","","","","","","","","","","","","","",""
"","S2","","html-keyboard-response","579","595561","0.0-1.0-796.0","0","0","24764","","null","","","null","88","","NaN","","","","","","","","","","","","","",""
"","response","","html-keyboard-response","580","596236","0.0-1.0-797.0-0.0","0","0","24764","","673","","","75","88","","","2","88","training","adjacent","CB","3","2","L.jpg","R.jpg","0","0","1","",""
"","feedback","","html-keyboard-response","581","597242","0.0-1.0-798.0-0.0","0","0","24764","","null","","","null","88","","","","","","","","","","","","","","","",""
"","ITI","","html-keyboard-response","582","598249","0.0-1.0-801.0","0","0","24764","","null","","","null","88","","","","","","","","","","","","","","","NaN",""
"","S1","","html-keyboard-response","583","598507","0.0-1.0-803.0","0","0","24764","","null","","","null","89","","","","","","","","","","","","","","","",""
