"success","ttype","start_time","trial_type","trial_index","time_elapsed","internal_node_id","warning","missed_checkup","PID","view_history","rt","responses","repeat_instructions","key_press","index","keypress_isi","keypress_S2","block","trial_num","phase","group_type","pair_type","S1_stim","S2_stim","S1_img","S2_img","S1_chosen","S1_higher","accuracy","keypress_iti","total_bonus_tally"
"true","full_screen","d04142023hr1807","fullscreen","0","17914","0.0-0.0","0","0","67210","","","","","","","","","","","","","","","","","","","","","",""
"","instructions","","instructions","1","86561","0.0-1.0-0.0-0.0","0","0","67210","[{""page_index"":0,""viewing_time"":7541},{""page_index"":1,""viewing_time"":21888},{""page_index"":2,""viewing_time"":37360},{""page_index"":3,""viewing_time"":1855}]","68645","","","","","","","","","","","","","","","","","","","",""
"","comprehension_check","","survey-multi-choice","2","140938","0.0-1.0-0.0-1.0","0","0","67210","","54372","{""Q0"":""True"",""Q1"":""D"",""Q2"":""Once the second image appears and while the screen 'MAKE A CHOICE' is shown"",""Q3"":""Green mark"",""Q4"":""either D or K""}","0","","","","","","","","","","","","","","","","","",""
"","start_exp","","html-keyboard-response","3","143562","0.0-1.0-1.0","0","0","67210","","2619","","","32","","","","","","","","","","","","","","","","",""
"","S1","","html-keyboard-response","4","143815","0.0-1.0-2.0","0","0","67210","","null","","","null","0","","","","","","","","","","","","","","","",""
"","ISI","","html-keyboard-response","5","144817","0.0-1.0-3.0","0","0","67210","","null","","","null","0","NaN","","","","","","","","","","","","","","",""
"","S2","","html-keyboard-response","6","145073","0.0-1.0-4.0","0","0","67210","","null","","","null","0","","NaN","","","","","","","","","","","","","",""
"","response","","html-keyboard-response","7","146825","0.0-1.0-5.0-0.0","0","0","67210","","null","","","null","0","","","1","0","training","adjacent","BA","2","1","P.jpg","Q.jpg","NaN","0","0","",""
"","too_slow_prompt","","html-keyboard-response","8","147828","0.0-1.0-7.0-0.0","1","0","67210","","null","","","null","","","","","","","","","","","","","","","","",""
"","time_out","","html-keyboard-response","9","149830","0.0-1.0-8.0-0.0","0","0","67210","","null","","","null","0","","","","","","","","","","","","","","","",""
"","ITI","","html-keyboard-response","10","150832","0.0-1.0-9.0","0","0","67210","","null","","","null","0","","","","","","","","","","","","","","","NaN",""
"","S1","","html-keyboard-response","11","151084","0.0-1.0-11.0","0","0","67210","","null","","","null","1","","","","","","","","","","","","","","","",""
"","ISI","","html-keyboard-response","12","152088","0.0-1.0-12.0","0","0","67210","","null","","","null","1","NaN","","","","","","","","","","","","","","",""
"","S2","","html-keyboard-response","13","152341","0.0-1.0-13.0","0","0","67210","","null","","","null","1","","NaN","","","","","","","","","","","","","",""
"","response","","html-keyboard-response","14","152522","0.0-1.0-14.0-0.0","0","0","67210","","179","","","75","1","","","1","1","training","adjacent","CB","3","2","O.jpg","P.jpg","0","0","1","",""
"","feedback","","html-keyboard-response","15","153524","0.0-1.0-15.0-0.0","0","0","67210","","null","","","null","1","","","","","","","","","","","","","","","",""
"","ITI","","html-keyboard-response","16","154527","0.0-1.0-18.0","0","0","67210","","null","","","null","1","","","","","","","","","","","","","","","NaN",""
"","S1","","html-keyboard-response","17","154779","0.0-1.0-20.0","0","0","67210","","null","","","null","2","","","","","","","","","","","","","","","",""
"","ISI","","html-keyboard-response","18","155782","0.0-1.0-21.0","0","0","67210","","null","","","null","2","NaN","","","","","","","","","","","","","","",""
"","S2","","html-keyboard-response","19","156035","0.0-1.0-22.0","0","0","67210","","null","","","null","2","","NaN","","","","","","","","","","","","","",""
"","response","","html-keyboard-response","20","156241","0.0-1.0-23.0-0.0","0","0","67210","","204","","","68","2","","","1","2","training","adjacent","GF","7","6","R.jpg","L.jpg","1","0","0","",""
"","feedback","","html-keyboard-response","21","157244","0.0-1.0-24.0-0.0","0","0","67210","","null","","","null","2","","","","","","","","","","","","","","","",""
"","time_out","","html-keyboard-response","22","159247","0.0-1.0-26.0-0.0","0","0","67210","","null","","","null","2","","","","","","","","","","","","","","","",""
"","ITI","","html-keyboard-response","23","160250","0.0-1.0-27.0","0","0","67210","","null","","","null","2","","","","","","","","","","","","","","","NaN",""
"","S1","","html-keyboard-response","24","160503","0.0-1.0-29.0","0","0","67210","","null","","","null","3","","","","","","","","","","","","","","","",""
"","ISI","","html-keyboard-response","25","161505","0.0-1.0-30.0","0","0","67210","","null","","","null","3","NaN","","","","","","","","","","","","","","",""
"","S2","","html-keyboard-response","26","161757","0.0-1.0-31.0","0","0","67210","","null","","","null","3","","NaN","","","","","","","","","","","","","",""
"","response","","html-keyboard-response","27","161993","0.0-1.0-32.0-0.0","0","0","67210","","235","","","75","3","","","1","3","training","adjacent","DE","4","5","M.jpg","N.jpg","0","1","0","",""
"","feedback","","html-keyboard-response","28","162996","0.0-1.0-33.0-0.0","0","0","67210","","null","","","null","3","","","","","","","","","","","","","","","",""
"","time_out","","html-keyboard-response","29","164997","0.0-1.0-35.0-0.0","0","0","67210","","null","","","null","3","","","","","","","","","","","","","","","",""
"","ITI","","html-keyboard-response","30","166002","0.0-1.0-36.0","0","0","67210","","null","","","null","3","","","","","","","","","","","","","","","NaN",""
"","S1","","html-keyboard-response","31","166255","0.0-1.0-38.0","0","0","67210","","null","","","null","4","","","","","","","","","","","","","","","",""
"","ISI","","html-keyboard-response","32","167257","0.0-1.0-39.0","0","0","67210","","null","","","null","4","NaN","","","","","","","","","","","","","","",""
"","S2","","html-keyboard-response","33","167509","0.0-1.0-40.0","0","0","67210","","null","","","null","4","","NaN","","","","","","","","","","","","","",""
"","response","","html-keyboard-response","34","168089","0.0-1.0-41.0-0.0","0","0","67210","","578","","","68","4","","","1","4","training","adjacent","CB","3","2","O.jpg","P.jpg","1","0","0","",""
"","feedback","","html-keyboard-response","35","169091","0.0-1.0-42.0-0.0","0","0","67210","","null","","","null","4","","","","","","","","","","","","","","","",""
"","time_out","","html-keyboard-response","36","171094","0.0-1.0-44.0-0.0","0","0","67210","","null","","","null","4","","","","","","","","","","","","","","","",""
"","ITI","","html-keyboard-response","37","172096","0.0-1.0-45.0","0","0","67210","","null","","","null","4","","","","","","","","","","","","","","","NaN",""
"","S1","","html-keyboard-response","38","172348","0.0-1.0-47.0","0","0","67210","","null","","","null","5","","","","","","","","","","","","","","","",""
"","ISI","","html-keyboard-response","39","173350","0.0-1.0-48.0","0","0","67210","","null","","","null","5","NaN","","","","","","","","","","","","","","",""
"","S2","","html-keyboard-response","40","173604","0.0-1.0-49.0","0","0","67210","","null","","","null","5","","NaN","","","","","","","","","","","","","",""
"","response","","html-keyboard-response","41","174265","0.0-1.0-50.0-0.0","0","0","67210","","660","","","75","5","","","1","5","training","adjacent","BC","2","3","P.jpg","O.jpg","0","1","0","",""
"","feedback","","html-keyboard-response","42","175266","0.0-1.0-51.0-0.0","0","0","67210","","null","","","null","5","","","","","","","","","","","","","","","",""
"","time_out","","html-keyboard-response","43","177268","0.0-1.0-53.0-0.0","0","0","67210","","null","","","null","5","","","","","","","","","","","","","","","",""
"","ITI","","html-keyboard-response","44","178270","0.0-1.0-54.0","0","0","67210","","null","","","null","5","","","","","","","","","","","","","","","NaN",""
"","S1","","html-keyboard-response","45","178522","0.0-1.0-56.0","0","0","67210","","null","","","null","6","","","","","","","","","","","","","","","",""
"","ISI","","html-keyboard-response","46","179524","0.0-1.0-57.0","0","0","67210","","null","","","null","6","NaN","","","","","","","","","","","","","","",""
"","S2","","html-keyboard-response","47","179777","0.0-1.0-58.0","0","0","67210","","null","","","null","6","","NaN","","","","","","","","","","","","","",""
"","response","","html-keyboard-response","48","180241","0.0-1.0-59.0-0.0","0","0","67210","","463","","","68","6","","","1","6","training","adjacent","EF","5","6","N.jpg","L.jpg","1","1","1","",""
"","feedback","","html-keyboard-response","49","181243","0.0-1.0-60.0-0.0","0","0","67210","","null","","","null","6","","","","","","","","","","","","","","","",""
"","ITI","","html-keyboard-response","50","182245","0.0-1.0-63.0","0","0","67210","","null","","","null","6","","","","","","","","","","","","","","","NaN",""
"","S1","","html-keyboard-response","51","182497","0.0-1.0-65.0","0","0","67210","","null","","","null","7","","","","","","","","","","","","","","","",""
"","ISI","","html-keyboard-response","52","183499","0.0-1.0-66.0","0","0","67210","","null","","","null","7","NaN","","","","","","","","","","","","","","",""
"","S2","","html-keyboard-response","53","183753","0.0-1.0-67.0","0","0","67210","","null","","","null","7","","NaN","","","","","","","","","","","","","",""
"","response","","html-keyboard-response","54","183760","0.0-1.0-68.0-0.0","0","0","67210","","7","","","75","7","","","1","7","training","adjacent","BC","2","3","P.jpg","O.jpg","0","1","0","",""
"","feedback","","html-keyboard-response","55","184763","0.0-1.0-69.0-0.0","0","0","67210","","null","","","null","7","","","","","","","","","","","","","","","",""
"","time_out","","html-keyboard-response","56","186765","0.0-1.0-71.0-0.0","0","0","67210","","null","","","null","7","","","","","","","","","","","","","","","",""
"","ITI","","html-keyboard-response","57","187767","0.0-1.0-72.0","0","0","67210","","null","","","null","7","","","","","","","","","","","","","","","NaN",""
"","S1","","html-keyboard-response","58","188020","0.0-1.0-74.0","0","0","67210","","null","","","null","8","","","","","","","","","","","","","","","",""
"","ISI","","html-keyboard-response","59","189022","0.0-1.0-75.0","0","0","67210","","null","","","null","8","NaN","","","","","","","","","","","","","","",""
"","S2","","html-keyboard-response","60","189275","0.0-1.0-76.0","0","0","67210","","null","","","null","8","","NaN","","","","","","","","","","","","","",""
"","response","","html-keyboard-response","61","189553","0.0-1.0-77.0-0.0","0","0","67210","","276","","","68","8","","","1","8","training","adjacent","FG","6","7","L.jpg","R.jpg","1","1","1","",""
"","feedback","","html-keyboard-response","62","190556","0.0-1.0-78.0-0.0","0","0","67210","","null","","","null","8","","","","","","","","","","","","","","","",""
"","ITI","","html-keyboard-response","63","191558","0.0-1.0-81.0","0","0","67210","","null","","","null","8","","","","","","","","","","","","","","","NaN",""
"","S1","","html-keyboard-response","64","191811","0.0-1.0-83.0","0","0","67210","","null","","","null","9","","","","","","","","","","","","","","","",""
"","ISI","","html-keyboard-response","65","192813","0.0-1.0-84.0","0","0","67210","","null","","","null","9","NaN","","","","","","","","","","","","","","",""
"","S2","","html-keyboard-response","66","193066","0.0-1.0-85.0","0","0","67210","","null","","","null","9","","NaN","","","","","","","","","","","","","",""
"","response","","html-keyboard-response","67","193346","0.0-1.0-86.0-0.0","0","0","67210","","277","","","68","9","","","1","9","training","adjacent","FG","6","7","L.jpg","R.jpg","1","1","1","",""
"","feedback","","html-keyboard-response","68","194349","0.0-1.0-87.0-0.0","0","0","67210","","null","","","null","9","","","","","","","","","","","","","","","",""
"","ITI","","html-keyboard-response","69","195351","0.0-1.0-90.0","0","0","67210","","null","","","null","9","","","","","","","","","","","","","","","NaN",""
"","S1","","html-keyboard-response","70","195604","0.0-1.0-92.0","0","0","67210","","null","","","null","10","","","","","","","","","","","","","","","",""
"","ISI","","html-keyboard-response","71","196606","0.0-1.0-93.0","0","0","67210","","null","","","null","10","NaN","","","","","","","","","","","","","","",""
"","S2","","html-keyboard-response","72","196859","0.0-1.0-94.0","0","0","67210","","null","","","null","10","","NaN","","","","","","","","","","","","","",""
"","response","","html-keyboard-response","73","197290","0.0-1.0-95.0-0.0","0","0","67210","","429","","","68","10","","","1","10","training","adjacent","EF","5","6","N.jpg","L.jpg","1","1","1","",""
"","feedback","","html-keyboard-response","74","198303","0.0-1.0-96.0-0.0","0","0","67210","","null","","","null","10","","","","","","","","","","","","","","","",""
"","ITI","","html-keyboard-response","75","199306","0.0-1.0-99.0","0","0","67210","","null","","","null","10","","","","","","","","","","","","","","","NaN",""
"","S1","","html-keyboard-response","76","199558","0.0-1.0-101.0","0","0","67210","","null","","","null","11","","","","","","","","","","","","","","","",""
"","ISI","","html-keyboard-response","77","200561","0.0-1.0-102.0","0","0","67210","","null","","","null","11","NaN","","","","","","","","","","","","","","",""
"","S2","","html-keyboard-response","78","200814","0.0-1.0-103.0","0","0","67210","","null","","","null","11","","NaN","","","","","","","","","","","","","",""
"","response","","html-keyboard-response","79","201194","0.0-1.0-104.0-0.0","0","0","67210","","378","","","68","11","","","1","11","training","adjacent","CD","3","4","O.jpg","M.jpg","1","1","1","",""
"","feedback","","html-keyboard-response","80","202197","0.0-1.0-105.0-0.0","0","0","67210","","null","","","null","11","","","","","","","","","","","","","","","",""
"","ITI","","html-keyboard-response","81","203200","0.0-1.0-108.0","0","0","67210","","null","","","null","11","","","","","","","","","","","","","","","NaN",""
"","S1","","html-keyboard-response","82","203452","0.0-1.0-110.0","0","0","67210","","null","","","null","12","","","","","","","","","","","","","","","",""
"","ISI","","html-keyboard-response","83","204454","0.0-1.0-111.0","0","0","67210","","null","","","null","12","NaN","","","","","","","","","","","","","","",""
"","S2","","html-keyboard-response","84","204708","0.0-1.0-112.0","0","0","67210","","null","","","null","12","","NaN","","","","","","","","","","","","","",""
"","response","","html-keyboard-response","85","205074","0.0-1.0-113.0-0.0","0","0","67210","","364","","","68","12","","","1","12","training","adjacent","DE","4","5","M.jpg","N.jpg","1","1","1","",""
"","feedback","","html-keyboard-response","86","206077","0.0-1.0-114.0-0.0","0","0","67210","","null","","","null","12","","","","","","","","","","","","","","","",""
"","ITI","","html-keyboard-response","87","207086","0.0-1.0-117.0","0","0","67210","","null","","","null","12","","","","","","","","","","","","","","","NaN",""
"","S1","","html-keyboard-response","88","207338","0.0-1.0-119.0","0","0","67210","","null","","","null","13","","","","","","","","","","","","","","","",""
"","ISI","","html-keyboard-response","89","208341","0.0-1.0-120.0","0","0","67210","","null","","","null","13","NaN","","","","","","","","","","","","","","",""
"","S2","","html-keyboard-response","90","208594","0.0-1.0-121.0","0","0","67210","","null","","","null","13","","NaN","","","","","","","","","","","","","",""
"","response","","html-keyboard-response","91","208897","0.0-1.0-122.0-0.0","0","0","67210","","302","","","75","13","","","1","13","training","adjacent","AB","1","2","Q.jpg","P.jpg","0","1","0","",""
"","feedback","","html-keyboard-response","92","209900","0.0-1.0-123.0-0.0","0","0","67210","","null","","","null","13","","","","","","","","","","","","","","","",""
"","time_out","","html-keyboard-response","93","211902","0.0-1.0-125.0-0.0","0","0","67210","","null","","","null","13","","","","","","","","","","","","","","","",""
"","ITI","","html-keyboard-response","94","212904","0.0-1.0-126.0","0","0","67210","","null","","","null","13","","","","","","","","","","","","","","","NaN",""
"","S1","","html-keyboard-response","95","213157","0.0-1.0-128.0","0","0","67210","","null","","","null","14","","","","","","","","","","","","","","","",""
"","ISI","","html-keyboard-response","96","214159","0.0-1.0-129.0","0","0","67210","","null","","","null","14","NaN","","","","","","","","","","","","","","",""
"","S2","","html-keyboard-response","97","214413","0.0-1.0-130.0","0","0","67210","","null","","","null","14","","NaN","","","","","","","","","","","","","",""
"","response","","html-keyboard-response","98","214673","0.0-1.0-131.0-0.0","0","0","67210","","259","","","68","14","","","1","14","training","adjacent","FG","6","7","L.jpg","R.jpg","1","1","1","",""
"","feedback","","html-keyboard-response","99","215675","0.0-1.0-132.0-0.0","0","0","67210","","null","","","null","14","","","","","","","","","","","","","","","",""
"","ITI","","html-keyboard-response","100","216678","0.0-1.0-135.0","0","0","67210","","null","","","null","14","","","","","","","","","","","","","","","NaN",""
"","S1","","html-keyboard-response","101","216937","0.0-1.0-137.0","0","0","67210","","null","","","null","15","","","","","","","","","","","","","","","",""
"","ISI","","html-keyboard-response","102","217939","0.0-1.0-138.0","0","0","67210","","null","","","null","15","NaN","","","","","","","","","","","","","","",""
"","S2","","html-keyboard-response","103","218192","0.0-1.0-139.0","0","0","67210","","null","","","null","15","","NaN","","","","","","","","","","","","","",""
"","response","","html-keyboard-response","104","218522","0.0-1.0-140.0-0.0","0","0","67210","","328","","","68","15","","","1","15","training","adjacent","AB","1","2","Q.jpg","P.jpg","1","1","1","",""
"","feedback","","html-keyboard-response","105","219524","0.0-1.0-141.0-0.0","0","0","67210","","null","","","null","15","","","","","","","","","","","","","","","",""
"","ITI","","html-keyboard-response","106","220528","0.0-1.0-144.0","0","0","67210","","null","","","null","15","","","","","","","","","","","","","","","NaN",""
"","S1","","html-keyboard-response","107","220780","0.0-1.0-146.0","0","0","67210","","null","","","null","16","","","","","","","","","","","","","","","",""
"","ISI","","html-keyboard-response","108","221783","0.0-1.0-147.0","0","0","67210","","null","","","null","16","NaN","","","","","","","","","","","","","","",""
"","S2","","html-keyboard-response","109","222038","0.0-1.0-148.0","0","0","67210","","null","","","null","16","","NaN","","","","","","","","","","","","","",""
"","response","","html-keyboard-response","110","222513","0.0-1.0-149.0-0.0","0","0","67210","","474","","","68","16","","","1","16","training","adjacent","ED","5","4","N.jpg","M.jpg","1","0","0","",""
"","feedback","","html-keyboard-response","111","223516","0.0-1.0-150.0-0.0","0","0","67210","","null","","","null","16","","","","","","","","","","","","","","","",""
"","time_out","","html-keyboard-response","112","225518","0.0-1.0-152.0-0.0","0","0","67210","","null","","","null","16","","","","","","","","","","","","","","","",""
"","ITI","","html-keyboard-response","113","226520","0.0-1.0-153.0","0","0","67210","","null","","","null","16","","","","","","","","","","","","","","","NaN",""
"","S1","","html-keyboard-response","114","226772","0.0-1.0-155.0","0","0","67210","","null","","","null","17","","","","","","","","","","","","","","","",""
"","ISI","","html-keyboard-response","115","227775","0.0-1.0-156.0","0","0","67210","","null","","","null","17","NaN","","","","","","","","","","","","","","",""
"","S2","","html-keyboard-response","116","228028","0.0-1.0-157.0","0","0","67210","","null","","","null","17","","NaN","","","","","","","","","","","","","",""
"","response","","html-keyboard-response","117","228217","0.0-1.0-158.0-0.0","0","0","67210","","188","","","75","17","","","1","17","training","adjacent","DC","4","3","M.jpg","O.jpg","0","0","1","",""
"","feedback","","html-keyboard-response","118","229219","0.0-1.0-159.0-0.0","0","0","67210","","null","","","null","17","","","","","","","","","","","","","","","",""
"","ITI","","html-keyboard-response","119","230222","0.0-1.0-162.0","0","0","67210","","null","","","null","17","","","","","","","","","","","","","","","NaN",""
"","S1","","html-keyboard-response","120","230475","0.0-1.0-164.0","0","0","67210","","null","","","null","18","","","","","","","","","","","","","","","",""
"","ISI","","html-keyboard-response","121","231477","0.0-1.0-165.0","0","0","67210","","null","","","null","18","NaN","","","","","","","","","","","","","","",""
"","S2","","html-keyboard-response","122","231729","0.0-1.0-166.0","0","0","67210","","null","","","null","18","","NaN","","","","","","","","","","","","","",""
"","response","","html-keyboard-response","123","231978","0.0-1.0-167.0-0.0","0","0","67210","","247","","","75","18","","","1","18","training","adjacent","DE","4","5","M.jpg","N.jpg","0","1","0","",""
"","feedback","","html-keyboard-response","124","232981","0.0-1.0-168.0-0.0","0","0","67210","","null","","","null","18","","","","","","","","","","","","","","","",""
"","time_out","","html-keyboard-response","125","234983","0.0-1.0-170.0-0.0","0","0","67210","","null","","","null","18","","","","","","","","","","","","","","","",""
"","ITI","","html-keyboard-response","126","235984","0.0-1.0-171.0","0","0","67210","","null","","","null","18","","","","","","","","","","","","","","","NaN",""
"","S1","","html-keyboard-response","127","236237","0.0-1.0-173.0","0","0","67210","","null","","","null","19","","","","","","","","","","","","","","","",""
"","ISI","","html-keyboard-response","128","237241","0.0-1.0-174.0","0","0","67210","","null","","","null","19","NaN","","","","","","","","","","","","","","",""
"","S2","","html-keyboard-response","129","237494","0.0-1.0-175.0","0","0","67210","","null","","","null","19","","NaN","","","","","","","","","","","","","",""
"","response","","html-keyboard-response","130","237553","0.0-1.0-176.0-0.0","0","0","67210","","58","","","68","19","","","1","19","training","adjacent","FE","6","5","L.jpg","N.jpg","1","0","0","",""
"","feedback","","html-keyboard-response","131","238556","0.0-1.0-177.0-0.0","0","0","67210","","null","","","null","19","","","","","","","","","","","","","","","",""
"","time_out","","html-keyboard-response","132","240558","0.0-1.0-179.0-0.0","0","0","67210","","null","","","null","19","","","","","","","","","","","","","","","",""
"","ITI","","html-keyboard-response","133","241561","0.0-1.0-180.0","0","0","67210","","null","","","null","19","","","","","","","","","","","","","","","NaN",""
"","S1","","html-keyboard-response","134","241813","0.0-1.0-182.0","0","0","67210","","null","","","null","20","","","","","","","","","","","","","","","",""
"","ISI","","html-keyboard-response","135","242816","0.0-1.0-183.0","0","0","67210","","null","","","null","20","NaN","","","","","","","","","","","","","","",""
"","S2","","html-keyboard-response","136","243069","0.0-1.0-184.0","0","0","67210","","null","","","null","20","","NaN","","","","","","","","","","","","","",""
"","response","","html-keyboard-response","137","243081","0.0-1.0-185.0-0.0","0","0","67210","","11","","","75","20","","","1","20","training","adjacent","ED","5","4","N.jpg","M.jpg","0","0","1","",""
"","feedback","","html-keyboard-response","138","244084","0.0-1.0-186.0-0.0","0","0","67210","","null","","","null","20","","","","","","","","","","","","","","","",""
"","ITI","","html-keyboard-response","139","245086","0.0-1.0-189.0","0","0","67210","","null","","","null","20","","","","","","","","","","","","","","","NaN",""
"","S1","","html-keyboard-response","140","245351","0.0-1.0-191.0","0","0","67210","","null","","","null","21","","","","","","","","","","","","","","","",""
"","ISI","","html-keyboard-response","141","246354","0.0-1.0-192.0","0","0","67210","","null","","","null","21","NaN","","","","","","","","","","","","","","",""
"","S2","","html-keyboard-response","142","246607","0.0-1.0-193.0","0","0","67210","","null","","","null","21","","NaN","","","","","","","","","","","","","",""
"","response","","html-keyboard-response","143","246834","0.0-1.0-194.0-0.0","0","0","67210","","225","","","75","21","","","1","21","training","adjacent","BA","2","1","P.jpg","Q.jpg","0","0","1","",""
"","feedback","","html-keyboard-response","144","247846","0.0-1.0-195.0-0.0","0","0","67210","","null","","","null","21","","","","","","","","","","","","","","","",""
"","ITI","","html-keyboard-response","145","248850","0.0-1.0-198.0","0","0","67210","","null","","","null","21","","","","","","","","","","","","","","","NaN",""
"","S1","","html-keyboard-response","146","249103","0.0-1.0-200.0","0","0","67210","","null","","","null","22","","","","","","","","","","","","","","","",""
"","ISI","","html-keyboard-response","147","250105","0.0-1.0-201.0","0","0","67210","","null","","","null","22","NaN","","","","","","","","","","","","","","",""
"","S2","","html-keyboard-response","148","250357","0.0-1.0-202.0","0","0","67210","","null","","","null","22","","NaN","","","","","","","","","","","","","",""
"","response","","html-keyboard-response","149","250634","0.0-1.0-203.0-0.0","0","0","67210","","275","","","68","22","","","1","22","training","adjacent","FE","6","5","L.jpg","N.jpg","1","0","0","",""
"","feedback","","html-keyboard-response","150","251638","0.0-1.0-204.0-0.0","0","0","67210","","null","","","null","22","","","","","","","","","","","","","","","",""
"","time_out","","html-keyboard-response","151","253641","0.0-1.0-206.0-0.0","0","0","67210","","null","","","null","22","","","","","","","","","","","","","","","",""
"","ITI","","html-keyboard-response","152","254645","0.0-1.0-207.0","0","0","67210","","null","","","null","22","","","","","","","","","","","","","","","NaN",""
"","S1","","html-keyboard-response","153","254897","0.0-1.0-209.0","0","0","67210","","null","","","null","23","","","","","","","","","","","","","","","",""
"","ISI","","html-keyboard-response","154","255908","0.0-1.0-210.0","0","0","67210","","null","","","null","23","NaN","","","","","","","","","","","","","","",""
"","S2","","html-keyboard-response","155","256160","0.0-1.0-211.0","0","0","67210","","null","","","null","23","","NaN","","","","","","","","","","","","","",""
"","response","","html-keyboard-response","156","256201","0.0-1.0-212.0-0.0","0","0","67210","","39","","","68","23","","","1","23","training","adjacent","FE","6","5","L.jpg","N.jpg","1","0","0","",""
"","feedback","","html-keyboard-response","157","257203","0.0-1.0-213.0-0.0","0","0","67210","","null","","","null","23","","","","","","","","","","","","","","","",""
"","time_out","","html-keyboard-response","158","259205","0.0-1.0-215.0-0.0","0","0","67210","","null","","","null","23","","","","","","","","","","","","","","","",""
"","ITI","","html-keyboard-response","159","260208","0.0-1.0-216.0","0","0","67210","","null","","","null","23","","","","","","","","","","","","","","","NaN",""
"","S1","","html-keyboard-response","160","260461","0.0-1.0-218.0","0","0","67210","","null","","","null","24","","","","","","","","","","","","","","","",""
"","ISI","","html-keyboard-response","161","261463","0.0-1.0-219.0","0","0","67210","","null","","","null","24","NaN","","","","","","","","","","","","","","",""
"","S2","","html-keyboard-response","162","261716","0.0-1.0-220.0","0","0","67210","","null","","","null","24","","NaN","","","","","","","","","","","","","",""
"","response","","html-keyboard-response","163","262193","0.0-1.0-221.0-0.0","0","0","67210","","475","","","68","24","","","1","24","training","adjacent","BA","2","1","P.jpg","Q.jpg","1","0","0","",""
"","feedback","","html-keyboard-response","164","263195","0.0-1.0-222.0-0.0","0","0","67210","","null","","","null","24","","","","","","","","","","","","","","","",""
"","time_out","","html-keyboard-response","165","265198","0.0-1.0-224.0-0.0","0","0","67210","","null","","","null","24","","","","","","","","","","","","","","","",""
"","ITI","","html-keyboard-response","166","266201","0.0-1.0-225.0","0","0","67210","","null","","","null","24","","","","","","","","","","","","","","","NaN",""
"","S1","","html-keyboard-response","167","266454","0.0-1.0-227.0","0","0","67210","","null","","","null","25","","","","","","","","","","","","","","","",""
"","ISI","","html-keyboard-response","168","267457","0.0-1.0-228.0","0","0","67210","","null","","","null","25","NaN","","","","","","","","","","","","","","",""
"","S2","","html-keyboard-response","169","267709","0.0-1.0-229.0","0","0","67210","","null","","","null","25","","NaN","","","","","","","","","","","","","",""
"","response","","html-keyboard-response","170","267889","0.0-1.0-230.0-0.0","0","0","67210","","179","","","75","25","","","1","25","training","adjacent","AB","1","2","Q.jpg","P.jpg","0","1","0","",""
"","feedback","","html-keyboard-response","171","268892","0.0-1.0-231.0-0.0","0","0","67210","","null","","","null","25","","","","","","","","","","","","","","","",""
"","time_out","","html-keyboard-response","172","270894","0.0-1.0-233.0-0.0","0","0","67210","","null","","","null","25","","","","","","","","","","","","","","","",""
"","ITI","","html-keyboard-response","173","271897","0.0-1.0-234.0","0","0","67210","","null","","","null","25","","","","","","","","","","","","","","","NaN",""
"","S1","","html-keyboard-response","174","272149","0.0-1.0-236.0","0","0","67210","","null","","","null","26","","","","","","","","","","","","","","","",""
"","ISI","","html-keyboard-response","175","273152","0.0-1.0-237.0","0","0","67210","","75","","","68","26","d","","","","","","","","","","","","","","",""
"","S2","","html-keyboard-response","176","273404","0.0-1.0-238.0","0","0","67210","","null","","","null","26","","NaN","","","","","","","","","","","","","",""
"","response","","html-keyboard-response","177","275156","0.0-1.0-239.0-0.0","0","0","67210","","null","","","null","26","","","1","26","training","adjacent","FG","6","7","L.jpg","R.jpg","NaN","1","0","",""
"","too_slow_prompt","","html-keyboard-response","178","276159","0.0-1.0-241.0-0.0","1","0","67210","","null","","","null","","","","","","","","","","","","","","","","",""
"","time_out","","html-keyboard-response","179","278161","0.0-1.0-242.0-0.0","0","0","67210","","null","","","null","26","","","","","","","","","","","","","","","",""
"","ITI","","html-keyboard-response","180","279163","0.0-1.0-243.0","0","0","67210","","null","","","null","26","","","","","","","","","","","","","","","NaN",""
"","S1","","html-keyboard-response","181","279416","0.0-1.0-245.0","0","0","67210","","null","","","null","27","","","","","","","","","","","","","","","",""
"","ISI","","html-keyboard-response","182","280418","0.0-1.0-246.0","0","0","67210","","null","","","null","27","NaN","","","","","","","","","","","","","","",""
"","S2","","html-keyboard-response","183","280670","0.0-1.0-247.0","0","0","67210","","null","","","null","27","","NaN","","","","","","","","","","","","","",""
"","response","","html-keyboard-response","184","280793","0.0-1.0-248.0-0.0","0","0","67210","","121","","","75","27","","","1","27","training","adjacent","CB","3","2","O.jpg","P.jpg","0","0","1","",""
"","feedback","","html-keyboard-response","185","281795","0.0-1.0-249.0-0.0","0","0","67210","","null","","","null","27","","","","","","","","","","","","","","","",""
"","ITI","","html-keyboard-response","186","282798","0.0-1.0-252.0","0","0","67210","","null","","","null","27","","","","","","","","","","","","","","","NaN",""
"","S1","","html-keyboard-response","187","283050","0.0-1.0-254.0","0","0","67210","","null","","","null","28","","","","","","","","","","","","","","","",""
"","ISI","","html-keyboard-response","188","284053","0.0-1.0-255.0","0","0","67210","","null","","","null","28","NaN","","","","","","","","","","","","","","",""
"","S2","","html-keyboard-response","189","284306","0.0-1.0-256.0","0","0","67210","","null","","","null","28","","NaN","","","","","","","","","","","","","",""
"","response","","html-keyboard-response","190","284657","0.0-1.0-257.0-0.0","0","0","67210","","349","","","75","28","","","1","28","training","adjacent","DC","4","3","M.jpg","O.jpg","0","0","1","",""
"","feedback","","html-keyboard-response","191","285660","0.0-1.0-258.0-0.0","0","0","67210","","null","","","null","28","","","","","","","","","","","","","","","",""
"","ITI","","html-keyboard-response","192","286663","0.0-1.0-261.0","0","0","67210","","null","","","null","28","","","","","","","","","","","","","","","NaN",""
"","S1","","html-keyboard-response","193","286915","0.0-1.0-263.0","0","0","67210","","null","","","null","29","","","","","","","","","","","","","","","",""
"","ISI","","html-keyboard-response","194","287917","0.0-1.0-264.0","0","0","67210","","null","","","null","29","NaN","","","","","","","","","","","","","","",""
"","S2","","html-keyboard-response","195","288170","0.0-1.0-265.0","0","0","67210","","null","","","null","29","","NaN","","","","","","","","","","","","","",""
"","response","","html-keyboard-response","196","288394","0.0-1.0-266.0-0.0","0","0","67210","","222","","","75","29","","","1","29","training","adjacent","AB","1","2","Q.jpg","P.jpg","0","1","0","",""
"","feedback","","html-keyboard-response","197","289397","0.0-1.0-267.0-0.0","0","0","67210","","null","","","null","29","","","","","","","","","","","","","","","",""
"","time_out","","html-keyboard-response","198","291399","0.0-1.0-269.0-0.0","0","0","67210","","null","","","null","29","","","","","","","","","","","","","","","",""
"","ITI","","html-keyboard-response","199","292402","0.0-1.0-270.0","0","0","67210","","null","","","null","29","","","","","","","","","","","","","","","NaN",""
"","S1","","html-keyboard-response","200","292654","0.0-1.0-272.0","0","0","67210","","null","","","null","30","","","","","","","","","","","","","","","",""
"","ISI","","html-keyboard-response","201","293655","0.0-1.0-273.0","0","0","67210","","null","","","null","30","NaN","","","","","","","","","","","","","","",""
"","S2","","html-keyboard-response","202","293909","0.0-1.0-274.0","0","0","67210","","null","","","null","30","","NaN","","","","","","","","","","","","","",""
"","response","","html-keyboard-response","203","293953","0.0-1.0-275.0-0.0","0","0","67210","","43","","","75","30","","","1","30","training","adjacent","GF","7","6","R.jpg","L.jpg","0","0","1","",""
"","feedback","","html-keyboard-response","204","294956","0.0-1.0-276.0-0.0","0","0","67210","","null","","","null","30","","","","","","","","","","","","","","","",""
"","ITI","","html-keyboard-response","205","295959","0.0-1.0-279.0","0","0","67210","","null","","","null","30","","","","","","","","","","","","","","","NaN",""
"","S1","","html-keyboard-response","206","296211","0.0-1.0-281.0","0","0","67210","","null","","","null","31","","","","","","","","","","","","","","","",""
"","ISI","","html-keyboard-response","207","297213","0.0-1.0-282.0","0","0","67210","","null","","","null","31","NaN","","","","","","","","","","","","","","",""
"","S2","","html-keyboard-response","208","297466","0.0-1.0-283.0","0","0","67210","","null","","","null","31","","NaN","","","","","","","","","","","","","",""
"","response","","html-keyboard-response","209","298169","0.0-1.0-284.0-0.0","0","0","67210","","702","","","75","31","","","1","31","training","adjacent","FE","6","5","L.jpg","N.jpg","0","0","1","",""
"","feedback","","html-keyboard-response","210","299172","0.0-1.0-285.0-0.0","0","0","67210","","null","","","null","31","","","","","","","","","","","","","","","",""
"","ITI","","html-keyboard-response","211","300174","0.0-1.0-288.0","0","0","67210","","null","","","null","31","","","","","","","","","","","","","","","NaN",""
"","S1","","html-keyboard-response","212","300427","0.0-1.0-290.0","0","0","67210","","null","","","null","32","","","","","","","","","","","","","","","",""
"","ISI","","html-keyboard-response","213","301429","0.0-1.0-291.0","0","0","67210","","null","","","null","32","NaN","","","","","","","","","","","","","","",""
"","S2","","html-keyboard-response","214","301682","0.0-1.0-292.0","0","0","67210","","null","","","null","32","","NaN","","","","","","","","","","","","","",""
"","response","","html-keyboard-response","215","301881","0.0-1.0-293.0-0.0","0","0","67210","","198","","","68","32","","","1","32","training","adjacent","CD","3","4","O.jpg","M.jpg","1","1","1","",""
"","feedback","","html-keyboard-response","216","302883","0.0-1.0-294.0-0.0","0","0","67210","","null","","","null","32","","","","","","","","","","","","","","","",""
"","ITI","","html-keyboard-response","217","303885","0.0-1.0-297.0","0","0","67210","","null","","","null","32","","","","","","","","","","","","","","","NaN",""
"","S1","","html-keyboard-response","218","304137","0.0-1.0-299.0","0","0","67210","","null","","","null","33","","","","","","","","","","","","","","","",""
"","ISI","","html-keyboard-response","219","305139","0.0-1.0-300.0","0","0","67210","","null","","","null","33","NaN","","","","","","","","","","","","","","",""
"","S2","","html-keyboard-response","220","305392","0.0-1.0-301.0","0","0","67210","","null","","","null","33","","NaN","","","","","","","","","","","","","",""
"","response","","html-keyboard-response","221","305842","0.0-1.0-302.0-0.0","0","0","67210","","447","","","75","33","","","1","33","training","adjacent","DC","4","3","M.jpg","O.jpg","0","0","1","",""
"","feedback","","html-keyboard-response","222","306845","0.0-1.0-303.0-0.0","0","0","67210","","null","","","null","33","","","","","","","","","","","","","","","",""
"","ITI","","html-keyboard-response","223","307848","0.0-1.0-306.0","0","0","67210","","null","","","null","33","","","","","","","","","","","","","","","NaN",""
"","S1","","html-keyboard-response","224","308101","0.0-1.0-308.0","0","0","67210","","null","","","null","34","","","","","","","","","","","","","","","",""
"","ISI","","html-keyboard-response","225","309104","0.0-1.0-309.0","0","0","67210","","null","","","null","34","NaN","","","","","","","","","","","","","","",""
"","S2","","html-keyboard-response","226","309356","0.0-1.0-310.0","0","0","67210","","null","","","null","34","","NaN","","","","","","","","","","","","","",""
"","response","","html-keyboard-response","227","309609","0.0-1.0-311.0-0.0","0","0","67210","","251","","","68","34","","","1","34","training","adjacent","CD","3","4","O.jpg","M.jpg","1","1","1","",""
"","feedback","","html-keyboard-response","228","310613","0.0-1.0-312.0-0.0","0","0","67210","","null","","","null","34","","","","","","","","","","","","","","","",""
"","ITI","","html-keyboard-response","229","311616","0.0-1.0-315.0","0","0","67210","","null","","","null","34","","","","","","","","","","","","","","","NaN",""
"","S1","","html-keyboard-response","230","311868","0.0-1.0-317.0","0","0","67210","","null","","","null","35","","","","","","","","","","","","","","","",""
"","ISI","","html-keyboard-response","231","312871","0.0-1.0-318.0","0","0","67210","","null","","","null","35","NaN","","","","","","","","","","","","","","",""
"","S2","","html-keyboard-response","232","313124","0.0-1.0-319.0","0","0","67210","","null","","","null","35","","NaN","","","","","","","","","","","","","",""
"","response","","html-keyboard-response","233","313233","0.0-1.0-320.0-0.0","0","0","67210","","107","","","75","35","","","1","35","training","adjacent","GF","7","6","R.jpg","L.jpg","0","0","1","",""
"","feedback","","html-keyboard-response","234","314236","0.0-1.0-321.0-0.0","0","0","67210","","null","","","null","35","","","","","","","","","","","","","","","",""
"","ITI","","html-keyboard-response","235","315240","0.0-1.0-324.0","0","0","67210","","null","","","null","35","","","","","","","","","","","","","","","NaN",""
"","S1","","html-keyboard-response","236","315492","0.0-1.0-326.0","0","0","67210","","null","","","null","36","","","","","","","","","","","","","","","",""
"","ISI","","html-keyboard-response","237","316494","0.0-1.0-327.0","0","0","67210","","null","","","null","36","NaN","","","","","","","","","","","","","","",""
"","S2","","html-keyboard-response","238","316747","0.0-1.0-328.0","0","0","67210","","null","","","null","36","","NaN","","","","","","","","","","","","","",""
"","response","","html-keyboard-response","239","317153","0.0-1.0-329.0-0.0","0","0","67210","","404","","","68","36","","","1","36","training","adjacent","CD","3","4","O.jpg","M.jpg","1","1","1","",""
"","feedback","","html-keyboard-response","240","318156","0.0-1.0-330.0-0.0","0","0","67210","","null","","","null","36","","","","","","","","","","","","","","","",""
"","ITI","","html-keyboard-response","241","319158","0.0-1.0-333.0","0","0","67210","","null","","","null","36","","","","","","","","","","","","","","","NaN",""
"","S1","","html-keyboard-response","242","319410","0.0-1.0-335.0","0","0","67210","","null","","","null","37","","","","","","","","","","","","","","","",""
"","ISI","","html-keyboard-response","243","320412","0.0-1.0-336.0","0","0","67210","","null","","","null","37","NaN","","","","","","","","","","","","","","",""
"","S2","","html-keyboard-response","244","320664","0.0-1.0-337.0","0","0","67210","","null","","","null","37","","NaN","","","","","","","","","","","","","",""
"","response","","html-keyboard-response","245","321025","0.0-1.0-338.0-0.0","0","0","67210","","359","","","68","37","","","1","37","training","adjacent","BC","2","3","P.jpg","O.jpg","1","1","1","",""
"","feedback","","html-keyboard-response","246","322027","0.0-1.0-339.0-0.0","0","0","67210","","null","","","null","37","","","","","","","","","","","","","","","",""
"","ITI","","html-keyboard-response","247","323030","0.0-1.0-342.0","0","0","67210","","null","","","null","37","","","","","","","","","","","","","","","NaN",""
"","S1","","html-keyboard-response","248","323282","0.0-1.0-344.0","0","0","67210","","null","","","null","38","","","","","","","","","","","","","","","",""
"","ISI","","html-keyboard-response","249","324285","0.0-1.0-345.0","0","0","67210","","null","","","null","38","NaN","","","","","","","","","","","","","","",""
"","S2","","html-keyboard-response","250","324538","0.0-1.0-346.0","0","0","67210","","null","","","null","38","","NaN","","","","","","","","","","","","","",""
"","response","","html-keyboard-response","251","324610","0.0-1.0-347.0-0.0","0","0","67210","","70","","","75","38","","","1","38","training","adjacent","BC","2","3","P.jpg","O.jpg","0","1","0","",""
"","feedback","","html-keyboard-response","252","325614","0.0-1.0-348.0-0.0","0","0","67210","","null","","","null","38","","","","","","","","","","","","","","","",""
"","time_out","","html-keyboard-response","253","327616","0.0-1.0-350.0-0.0","0","0","67210","","null","","","null","38","","","","","","","","","","","","","","","",""
"","ITI","","html-keyboard-response","254","328618","0.0-1.0-351.0","0","0","67210","","null","","","null","38","","","","","","","","","","","","","","","NaN",""
"","S1","","html-keyboard-response","255","328870","0.0-1.0-353.0","0","0","67210","","null","","","null","39","","","","","","","","","","","","","","","",""
"","ISI","","html-keyboard-response","256","329872","0.0-1.0-354.0","0","0","67210","","null","","","null","39","NaN","","","","","","","","","","","","","","",""
"","S2","","html-keyboard-response","257","330125","0.0-1.0-355.0","0","0","67210","","null","","","null","39","","NaN","","","","","","","","","","","","","",""
"","response","","html-keyboard-response","258","330450","0.0-1.0-356.0-0.0","0","0","67210","","324","","","68","39","","","1","39","training","adjacent","DE","4","5","M.jpg","N.jpg","1","1","1","",""
"","feedback","","html-keyboard-response","259","331453","0.0-1.0-357.0-0.0","0","0","67210","","null","","","null","39","","","","","","","","","","","","","","","",""
"","ITI","","html-keyboard-response","260","332456","0.0-1.0-360.0","0","0","67210","","null","","","null","39","","","","","","","","","","","","","","","NaN",""
"","S1","","html-keyboard-response","261","332708","0.0-1.0-362.0","0","0","67210","","null","","","null","40","","","","","","","","","","","","","","","",""
"","ISI","","html-keyboard-response","262","333710","0.0-1.0-363.0","0","0","67210","","null","","","null","40","NaN","","","","","","","","","","","","","","",""
"","S2","","html-keyboard-response","263","333963","0.0-1.0-364.0","0","0","67210","","null","","","null","40","","NaN","","","","","","","","","","","","","",""
"","response","","html-keyboard-response","264","334297","0.0-1.0-365.0-0.0","0","0","67210","","333","","","75","40","","","1","40","training","adjacent","CB","3","2","O.jpg","P.jpg","0","0","1","",""
"","feedback","","html-keyboard-response","265","335299","0.0-1.0-366.0-0.0","0","0","67210","","null","","","null","40","","","","","","","","","","","","","","","",""
"","ITI","","html-keyboard-response","266","336302","0.0-1.0-369.0","0","0","67210","","null","","","null","40","","","","","","","","","","","","","","","NaN",""
"","S1","","html-keyboard-response","267","336556","0.0-1.0-371.0","0","0","67210","","null","","","null","41","","","","","","","","","","","","","","","",""
"","ISI","","html-keyboard-response","268","337559","0.0-1.0-372.0","0","0","67210","","null","","","null","41","NaN","","","","","","","","","","","","","","",""
"","S2","","html-keyboard-response","269","337811","0.0-1.0-373.0","0","0","67210","","null","","","null","41","","NaN","","","","","","","","","","","","","",""
"","response","","html-keyboard-response","270","337913","0.0-1.0-374.0-0.0","0","0","67210","","100","","","75","41","","","1","41","training","adjacent","DC","4","3","M.jpg","O.jpg","0","0","1","",""
"","feedback","","html-keyboard-response","271","338916","0.0-1.0-375.0-0.0","0","0","67210","","null","","","null","41","","","","","","","","","","","","","","","",""
"","ITI","","html-keyboard-response","272","339918","0.0-1.0-378.0","0","0","67210","","null","","","null","41","","","","","","","","","","","","","","","NaN",""
"","S1","","html-keyboard-response","273","340172","0.0-1.0-380.0","0","0","67210","","null","","","null","42","","","","","","","","","","","","","","","",""
"","ISI","","html-keyboard-response","274","341174","0.0-1.0-381.0","0","0","67210","","null","","","null","42","NaN","","","","","","","","","","","","","","",""
"","S2","","html-keyboard-response","275","341428","0.0-1.0-382.0","0","0","67210","","null","","","null","42","","NaN","","","","","","","","","","","","","",""
"","response","","html-keyboard-response","276","341449","0.0-1.0-383.0-0.0","0","0","67210","","19","","","75","42","","","1","42","training","adjacent","EF","5","6","N.jpg","L.jpg","0","1","0","",""
"","feedback","","html-keyboard-response","277","342451","0.0-1.0-384.0-0.0","0","0","67210","","null","","","null","42","","","","","","","","","","","","","","","",""
"","time_out","","html-keyboard-response","278","344454","0.0-1.0-386.0-0.0","0","0","67210","","null","","","null","42","","","","","","","","","","","","","","","",""
"","ITI","","html-keyboard-response","279","345456","0.0-1.0-387.0","0","0","67210","","null","","","null","42","","","","","","","","","","","","","","","NaN",""
"","S1","","html-keyboard-response","280","345709","0.0-1.0-389.0","0","0","67210","","null","","","null","43","","","","","","","","","","","","","","","",""
"","ISI","","html-keyboard-response","281","346712","0.0-1.0-390.0","0","0","67210","","null","","","null","43","NaN","","","","","","","","","","","","","","",""
"","S2","","html-keyboard-response","282","346965","0.0-1.0-391.0","0","0","67210","","null","","","null","43","","NaN","","","","","","","","","","","","","",""
"","response","","html-keyboard-response","283","347425","0.0-1.0-392.0-0.0","0","0","67210","","459","","","68","43","","","1","43","training","adjacent","GF","7","6","R.jpg","L.jpg","1","0","0","",""
"","feedback","","html-keyboard-response","284","348429","0.0-1.0-393.0-0.0","0","0","67210","","null","","","null","43","","","","","","","","","","","","","","","",""
"","time_out","","html-keyboard-response","285","350431","0.0-1.0-395.0-0.0","0","0","67210","","null","","","null","43","","","","","","","","","","","","","","","",""
"","ITI","","html-keyboard-response","286","351434","0.0-1.0-396.0","0","0","67210","","null","","","null","43","","","","","","","","","","","","","","","NaN",""
"","S1","","html-keyboard-response","287","351687","0.0-1.0-398.0","0","0","67210","","null","","","null","44","","","","","","","","","","","","","","","",""
"","ISI","","html-keyboard-response","288","352690","0.0-1.0-399.0","0","0","67210","","null","","","null","44","NaN","","","","","","","","","","","","","","",""
"","S2","","html-keyboard-response","289","352943","0.0-1.0-400.0","0","0","67210","","null","","","null","44","","NaN","","","","","","","","","","","","","",""
"","response","","html-keyboard-response","290","353361","0.0-1.0-401.0-0.0","0","0","67210","","417","","","68","44","","","1","44","training","adjacent","ED","5","4","N.jpg","M.jpg","1","0","0","",""
"","feedback","","html-keyboard-response","291","354364","0.0-1.0-402.0-0.0","0","0","67210","","null","","","null","44","","","","","","","","","","","","","","","",""
"","time_out","","html-keyboard-response","292","356367","0.0-1.0-404.0-0.0","0","0","67210","","null","","","null","44","","","","","","","","","","","","","","","",""
"","ITI","","html-keyboard-response","293","357369","0.0-1.0-405.0","0","0","67210","","null","","","null","44","","","","","","","","","","","","","","","NaN",""
"","S1","","html-keyboard-response","294","357622","0.0-1.0-407.0","0","0","67210","","null","","","null","45","","","","","","","","","","","","","","","",""
"","ISI","","html-keyboard-response","295","358625","0.0-1.0-408.0","0","0","67210","","null","","","null","45","NaN","","","","","","","","","","","","","","",""
"","S2","","html-keyboard-response","296","358879","0.0-1.0-409.0","0","0","67210","","null","","","null","45","","NaN","","","","","","","","","","","","","",""
"","response","","html-keyboard-response","297","359121","0.0-1.0-410.0-0.0","0","0","67210","","241","","","75","45","","","1","45","training","adjacent","BA","2","1","P.jpg","Q.jpg","0","0","1","",""
"","feedback","","html-keyboard-response","298","360124","0.0-1.0-411.0-0.0","0","0","67210","","null","","","null","45","","","","","","","","","","","","","","","",""
"","ITI","","html-keyboard-response","299","361125","0.0-1.0-414.0","0","0","67210","","null","","","null","45","","","","","","","","","","","","","","","NaN",""
"","S1","","html-keyboard-response","300","361378","0.0-1.0-416.0","0","0","67210","","null","","","null","46","","","","","","","","","","","","","","","",""
"","ISI","","html-keyboard-response","301","362381","0.0-1.0-417.0","0","0","67210","","null","","","null","46","NaN","","","","","","","","","","","","","","",""
"","S2","","html-keyboard-response","302","362634","0.0-1.0-418.0","0","0","67210","","null","","","null","46","","NaN","","","","","","","","","","","","","",""
"","response","","html-keyboard-response","303","362882","0.0-1.0-419.0-0.0","0","0","67210","","245","","","75","46","","","1","46","training","adjacent","EF","5","6","N.jpg","L.jpg","0","1","0","",""
"","feedback","","html-keyboard-response","304","363885","0.0-1.0-420.0-0.0","0","0","67210","","null","","","null","46","","","","","","","","","","","","","","","",""
"","time_out","","html-keyboard-response","305","365887","0.0-1.0-422.0-0.0","0","0","67210","","null","","","null","46","","","","","","","","","","","","","","","",""
"","ITI","","html-keyboard-response","306","366889","0.0-1.0-423.0","0","0","67210","","null","","","null","46","","","","","","","","","","","","","","","NaN",""
"","S1","","html-keyboard-response","307","367141","0.0-1.0-425.0","0","0","67210","","null","","","null","47","","","","","","","","","","","","","","","",""
"","ISI","","html-keyboard-response","308","368143","0.0-1.0-426.0","0","0","67210","","null","","","null","47","NaN","","","","","","","","","","","","","","",""
"","S2","","html-keyboard-response","309","368396","0.0-1.0-427.0","0","0","67210","","null","","","null","47","","NaN","","","","","","","","","","","","","",""
"","response","","html-keyboard-response","310","368617","0.0-1.0-428.0-0.0","0","0","67210","","220","","","75","47","","","1","47","training","adjacent","ED","5","4","N.jpg","M.jpg","0","0","1","",""
"","feedback","","html-keyboard-response","311","369619","0.0-1.0-429.0-0.0","0","0","67210","","null","","","null","47","","","","","","","","","","","","","","","",""
"","ITI","","html-keyboard-response","312","370621","0.0-1.0-432.0","0","0","67210","","null","","","null","47","","","","","","","","","","","","","","","NaN",""
"","block_over","","html-keyboard-response","313","375865","0.0-1.0-433.0-0.0","0","0","67210","","5242","","","32","47","","","","","","","","","","","","","","","",""
"","S1","","html-keyboard-response","314","376117","0.0-1.0-434.0","0","0","67210","","null","","","null","48","","","","","","","","","","","","","","","",""
"","ISI","","html-keyboard-response","315","377119","0.0-1.0-435.0","0","0","67210","","null","","","null","48","NaN","","","","","","","","","","","","","","",""
"","S2","","html-keyboard-response","316","377372","0.0-1.0-436.0","0","0","67210","","null","","","null","48","","NaN","","","","","","","","","","","","","",""
"","response","","html-keyboard-response","317","377777","0.0-1.0-437.0-0.0","0","0","67210","","404","","","68","48","","","2","48","training","adjacent","ED","5","4","N.jpg","M.jpg","1","0","0","",""
"","feedback","","html-keyboard-response","318","378779","0.0-1.0-438.0-0.0","0","0","67210","","null","","","null","48","","","","","","","","","","","","","","","",""
"","time_out","","html-keyboard-response","319","380783","0.0-1.0-440.0-0.0","0","0","67210","","null","","","null","48","","","","","","","","","","","","","","","",""
"","ITI","","html-keyboard-response","320","381785","0.0-1.0-441.0","0","0","67210","","null","","","null","48","","","","","","","","","","","","","","","NaN",""
"","S1","","html-keyboard-response","321","382038","0.0-1.0-443.0","0","0","67210","","null","","","null","49","","","","","","","","","","","","","","","",""
"","ISI","","html-keyboard-response","322","383041","0.0-1.0-444.0","0","0","67210","","null","","","null","49","NaN","","","","","","","","","","","","","","",""
"","S2","","html-keyboard-response","323","383293","0.0-1.0-445.0","0","0","67210","","null","","","null","49","","NaN","","","","","","","","","","","","","",""
"","response","","html-keyboard-response","324","383577","0.0-1.0-446.0-0.0","0","0","67210","","283","","","75","49","","","2","49","training","adjacent","CB","3","2","O.jpg","P.jpg","0","0","1","",""
"","feedback","","html-keyboard-response","325","384579","0.0-1.0-447.0-0.0","0","0","67210","","null","","","null","49","","","","","","","","","","","","","","","",""
"","ITI","","html-keyboard-response","326","385582","0.0-1.0-450.0","0","0","67210","","null","","","null","49","","","","","","","","","","","","","","","NaN",""
"","S1","","html-keyboard-response","327","385834","0.0-1.0-452.0","0","0","67210","","null","","","null","50","","","","","","","","","","","","","","","",""
"","ISI","","html-keyboard-response","328","386836","0.0-1.0-453.0","0","0","67210","","null","","","null","50","NaN","","","","","","","","","","","","","","",""
"","S2","","html-keyboard-response","329","387090","0.0-1.0-454.0","0","0","67210","","null","","","null","50","","NaN","","","","","","","","","","","","","",""
"","response","","html-keyboard-response","330","388074","0.0-1.0-455.0-0.0","0","0","67210","","981","","","68","50","","","2","50","training","adjacent","CB","3","2","O.jpg","P.jpg","1","0","0","",""
"","feedback","","html-keyboard-response","331","389077","0.0-1.0-456.0-0.0","0","0","67210","","null","","","null","50","","","","","","","","","","","","","","","",""
"","time_out","","html-keyboard-response","332","391079","0.0-1.0-458.0-0.0","0","0","67210","","null","","","null","50","","","","","","","","","","","","","","","",""
"","ITI","","html-keyboard-response","333","392081","0.0-1.0-459.0","0","0","67210","","null","","","null","50","","","","","","","","","","","","","","","NaN",""
"","S1","","html-keyboard-response","334","392334","0.0-1.0-461.0","0","0","67210","","null","","","null","51","","","","","","","","","","","","","","","",""
"","ISI","","html-keyboard-response","335","393337","0.0-1.0-462.0","0","0","67210","","null","","","null","51","NaN","","","","","","","","","","","","","","",""
"","S2","","html-keyboard-response","336","393590","0.0-1.0-463.0","0","0","67210","","null","","","null","51","","NaN","","","","","","","","","","","","","",""
"","response","","html-keyboard-response","337","393825","0.0-1.0-464.0-0.0","0","0","67210","","233","","","75","51","","","2","51","training","adjacent","GF","7","6","R.jpg","L.jpg","0","0","1","",""
"","feedback","","html-keyboard-response","338","394828","0.0-1.0-465.0-0.0","0","0","67210","","null","","","null","51","","","","","","","","","","","","","","","",""
"","ITI","","html-keyboard-response","339","395832","0.0-1.0-468.0","0","0","67210","","null","","","null","51","","","","","","","","","","","","","","","NaN",""
"","S1","","html-keyboard-response","340","396085","0.0-1.0-470.0","0","0","67210","","null","","","null","52","","","","","","","","","","","","","","","",""
"","ISI","","html-keyboard-response","341","397087","0.0-1.0-471.0","0","0","67210","","null","","","null","52","NaN","","","","","","","","","","","","","","",""
"","S2","","html-keyboard-response","342","397339","0.0-1.0-472.0","0","0","67210","","null","","","null","52","","NaN","","","","","","","","","","","","","",""
"","response","","html-keyboard-response","343","397753","0.0-1.0-473.0-0.0","0","0","67210","","412","","","75","52","","","2","52","training","adjacent","EF","5","6","N.jpg","L.jpg","0","1","0","",""
"","feedback","","html-keyboard-response","344","398756","0.0-1.0-474.0-0.0","0","0","67210","","null","","","null","52","","","","","","","","","","","","","","","",""
"","time_out","","html-keyboard-response","345","400758","0.0-1.0-476.0-0.0","0","0","67210","","null","","","null","52","","","","","","","","","","","","","","","",""
"","ITI","","html-keyboard-response","346","401760","0.0-1.0-477.0","0","0","67210","","null","","","null","52","","","","","","","","","","","","","","","NaN",""
"","S1","","html-keyboard-response","347","402012","0.0-1.0-479.0","0","0","67210","","null","","","null","53","","","","","","","","","","","","","","","",""
"","ISI","","html-keyboard-response","348","403014","0.0-1.0-480.0","0","0","67210","","null","","","null","53","NaN","","","","","","","","","","","","","","",""
"","S2","","html-keyboard-response","349","403266","0.0-1.0-481.0","0","0","67210","","null","","","null","53","","NaN","","","","","","","","","","","","","",""
"","response","","html-keyboard-response","350","403537","0.0-1.0-482.0-0.0","0","0","67210","","269","","","68","53","","","2","53","training","adjacent","FE","6","5","L.jpg","N.jpg","1","0","0","",""
"","feedback","","html-keyboard-response","351","404541","0.0-1.0-483.0-0.0","0","0","67210","","null","","","null","53","","","","","","","","","","","","","","","",""
"","time_out","","html-keyboard-response","352","406543","0.0-1.0-485.0-0.0","0","0","67210","","null","","","null","53","","","","","","","","","","","","","","","",""
"","ITI","","html-keyboard-response","353","407545","0.0-1.0-486.0","0","0","67210","","null","","","null","53","","","","","","","","","","","","","","","NaN",""
"","S1","","html-keyboard-response","354","407798","0.0-1.0-488.0","0","0","67210","","null","","","null","54","","","","","","","","","","","","","","","",""
"","ISI","","html-keyboard-response","355","408800","0.0-1.0-489.0","0","0","67210","","null","","","null","54","NaN","","","","","","","","","","","","","","",""
"","S2","","html-keyboard-response","356","409052","0.0-1.0-490.0","0","0","67210","","null","","","null","54","","NaN","","","","","","","","","","","","","",""
"","response","","html-keyboard-response","357","409450","0.0-1.0-491.0-0.0","0","0","67210","","395","","","68","54","","","2","54","training","adjacent","CD","3","4","O.jpg","M.jpg","1","1","1","",""
"","feedback","","html-keyboard-response","358","410452","0.0-1.0-492.0-0.0","0","0","67210","","null","","","null","54","","","","","","","","","","","","","","","",""
"","ITI","","html-keyboard-response","359","411455","0.0-1.0-495.0","0","0","67210","","null","","","null","54","","","","","","","","","","","","","","","NaN",""
"","S1","","html-keyboard-response","360","411708","0.0-1.0-497.0","0","0","67210","","null","","","null","55","","","","","","","","","","","","","","","",""
"","ISI","","html-keyboard-response","361","412710","0.0-1.0-498.0","0","0","67210","","null","","","null","55","NaN","","","","","","","","","","","","","","",""
"","S2","","html-keyboard-response","362","412963","0.0-1.0-499.0","0","0","67210","","null","","","null","55","","NaN","","","","","","","","","","","","","",""
"","response","","html-keyboard-response","363","413329","0.0-1.0-500.0-0.0","0","0","67210","","364","","","75","55","","","2","55","training","adjacent","CB","3","2","O.jpg","P.jpg","0","0","1","",""
"","feedback","","html-keyboard-response","364","414334","0.0-1.0-501.0-0.0","0","0","67210","","null","","","null","55","","","","","","","","","","","","","","","",""
"","ITI","","html-keyboard-response","365","415337","0.0-1.0-504.0","0","0","67210","","null","","","null","55","","","","","","","","","","","","","","","NaN",""
"","S1","","html-keyboard-response","366","415589","0.0-1.0-506.0","0","0","67210","","null","","","null","56","","","","","","","","","","","","","","","",""
"","ISI","","html-keyboard-response","367","416591","0.0-1.0-507.0","0","0","67210","","null","","","null","56","NaN","","","","","","","","","","","","","","",""
"","S2","","html-keyboard-response","368","416844","0.0-1.0-508.0","0","0","67210","","null","","","null","56","","NaN","","","","","","","","","","","","","",""
"","response","","html-keyboard-response","369","417105","0.0-1.0-509.0-0.0","0","0","67210","","259","","","68","56","","","2","56","training","adjacent","FG","6","7","L.jpg","R.jpg","1","1","1","",""
"","feedback","","html-keyboard-response","370","418108","0.0-1.0-510.0-0.0","0","0","67210","","null","","","null","56","","","","","","","","","","","","","","","",""
"","ITI","","html-keyboard-response","371","419111","0.0-1.0-513.0","0","0","67210","","null","","","null","56","","","","","","","","","","","","","","","NaN",""
"","S1","","html-keyboard-response","372","419363","0.0-1.0-515.0","0","0","67210","","null","","","null","57","","","","","","","","","","","","","","","",""
"","ISI","","html-keyboard-response","373","420365","0.0-1.0-516.0","0","0","67210","","null","","","null","57","NaN","","","","","","","","","","","","","","",""
"","S2","","html-keyboard-response","374","420628","0.0-1.0-517.0","0","0","67210","","null","","","null","57","","NaN","","","","","","","","","","","","","",""
"","response","","html-keyboard-response","375","420882","0.0-1.0-518.0-0.0","0","0","67210","","251","","","68","57","","","2","57","training","adjacent","CD","3","4","O.jpg","M.jpg","1","1","1","",""
"","feedback","","html-keyboard-response","376","421885","0.0-1.0-519.0-0.0","0","0","67210","","null","","","null","57","","","","","","","","","","","","","","","",""
"","ITI","","html-keyboard-response","377","422887","0.0-1.0-522.0","0","0","67210","","null","","","null","57","","","","","","","","","","","","","","","NaN",""
"","S1","","html-keyboard-response","378","423156","0.0-1.0-524.0","0","0","67210","","null","","","null","58","","","","","","","","","","","","","","","",""
"","ISI","","html-keyboard-response","379","424159","0.0-1.0-525.0","0","0","67210","","null","","","null","58","NaN","","","","","","","","","","","","","","",""
"","S2","","html-keyboard-response","380","424411","0.0-1.0-526.0","0","0","67210","","null","","","null","58","","NaN","","","","","","","","","","","","","",""
"","response","","html-keyboard-response","381","424721","0.0-1.0-527.0-0.0","0","0","67210","","308","","","75","58","","","2","58","training","adjacent","EF","5","6","N.jpg","L.jpg","0","1","0","",""
"","feedback","","html-keyboard-response","382","425724","0.0-1.0-528.0-0.0","0","0","67210","","null","","","null","58","","","","","","","","","","","","","","","",""
"","time_out","","html-keyboard-response","383","427726","0.0-1.0-530.0-0.0","0","0","67210","","null","","","null","58","","","","","","","","","","","","","","","",""
"","ITI","","html-keyboard-response","384","428729","0.0-1.0-531.0","0","0","67210","","null","","","null","58","","","","","","","","","","","","","","","NaN",""
"","S1","","html-keyboard-response","385","428982","0.0-1.0-533.0","0","0","67210","","null","","","null","59","","","","","","","","","","","","","","","",""
"","ISI","","html-keyboard-response","386","429985","0.0-1.0-534.0","0","0","67210","","null","","","null","59","NaN","","","","","","","","","","","","","","",""
"","S2","","html-keyboard-response","387","430250","0.0-1.0-535.0","0","0","67210","","null","","","null","59","","NaN","","","","","","","","","","","","","",""
"","response","","html-keyboard-response","388","430618","0.0-1.0-536.0-0.0","0","0","67210","","366","","","75","59","","","2","59","training","adjacent","DE","4","5","M.jpg","N.jpg","0","1","0","",""
"","feedback","","html-keyboard-response","389","431621","0.0-1.0-537.0-0.0","0","0","67210","","null","","","null","59","","","","","","","","","","","","","","","",""
"","time_out","","html-keyboard-response","390","433624","0.0-1.0-539.0-0.0","0","0","67210","","null","","","null","59","","","","","","","","","","","","","","","",""
"","ITI","","html-keyboard-response","391","434627","0.0-1.0-540.0","0","0","67210","","null","","","null","59","","","","","","","","","","","","","","","NaN",""
"","S1","","html-keyboard-response","392","434879","0.0-1.0-542.0","0","0","67210","","null","","","null","60","","","","","","","","","","","","","","","",""
"","ISI","","html-keyboard-response","393","435882","0.0-1.0-543.0","0","0","67210","","null","","","null","60","NaN","","","","","","","","","","","","","","",""
"","S2","","html-keyboard-response","394","436135","0.0-1.0-544.0","0","0","67210","","null","","","null","60","","NaN","","","","","","","","","","","","","",""
"","response","","html-keyboard-response","395","436201","0.0-1.0-545.0-0.0","0","0","67210","","65","","","68","60","","","2","60","training","adjacent","BA","2","1","P.jpg","Q.jpg","1","0","0","",""
"","feedback","","html-keyboard-response","396","437205","0.0-1.0-546.0-0.0","0","0","67210","","null","","","null","60","","","","","","","","","","","","","","","",""
"","time_out","","html-keyboard-response","397","439208","0.0-1.0-548.0-0.0","0","0","67210","","null","","","null","60","","","","","","","","","","","","","","","",""
"","ITI","","html-keyboard-response","398","440211","0.0-1.0-549.0","0","0","67210","","null","","","null","60","","","","","","","","","","","","","","","NaN",""
"","S1","","html-keyboard-response","399","440463","0.0-1.0-551.0","0","0","67210","","null","","","null","61","","","","","","","","","","","","","","","",""
"","ISI","","html-keyboard-response","400","441465","0.0-1.0-552.0","0","0","67210","","null","","","null","61","NaN","","","","","","","","","","","","","","",""
"","S2","","html-keyboard-response","401","441717","0.0-1.0-553.0","0","0","67210","","null","","","null","61","","NaN","","","","","","","","","","","","","",""
"","response","","html-keyboard-response","402","442057","0.0-1.0-554.0-0.0","0","0","67210","","339","","","75","61","","","2","61","training","adjacent","BC","2","3","P.jpg","O.jpg","0","1","0","",""
"","feedback","","html-keyboard-response","403","443060","0.0-1.0-555.0-0.0","0","0","67210","","null","","","null","61","","","","","","","","","","","","","","","",""
"","time_out","","html-keyboard-response","404","445062","0.0-1.0-557.0-0.0","0","0","67210","","null","","","null","61","","","","","","","","","","","","","","","",""
"","ITI","","html-keyboard-response","405","446066","0.0-1.0-558.0","0","0","67210","","null","","","null","61","","","","","","","","","","","","","","","NaN",""
"","S1","","html-keyboard-response","406","446318","0.0-1.0-560.0","0","0","67210","","null","","","null","62","","","","","","","","","","","","","","","",""
"","ISI","","html-keyboard-response","407","447321","0.0-1.0-561.0","0","0","67210","","null","","","null","62","NaN","","","","","","","","","","","","","","",""
"","S2","","html-keyboard-response","408","447574","0.0-1.0-562.0","0","0","67210","","null","","","null","62","","NaN","","","","","","","","","","","","","",""
"","response","","html-keyboard-response","409","447802","0.0-1.0-563.0-0.0","0","0","67210","","227","","","75","62","","","2","62","training","adjacent","DC","4","3","M.jpg","O.jpg","0","0","1","",""
"","feedback","","html-keyboard-response","410","448804","0.0-1.0-564.0-0.0","0","0","67210","","null","","","null","62","","","","","","","","","","","","","","","",""
"","ITI","","html-keyboard-response","411","449807","0.0-1.0-567.0","0","0","67210","","null","","","null","62","","","","","","","","","","","","","","","NaN",""
"","S1","","html-keyboard-response","412","450060","0.0-1.0-569.0","0","0","67210","","null","","","null","63","","","","","","","","","","","","","","","",""
"","ISI","","html-keyboard-response","413","451062","0.0-1.0-570.0","0","0","67210","","null","","","null","63","NaN","","","","","","","","","","","","","","",""
"","S2","","html-keyboard-response","414","451314","0.0-1.0-571.0","0","0","67210","","null","","","null","63","","NaN","","","","","","","","","","","","","",""
"","response","","html-keyboard-response","415","451529","0.0-1.0-572.0-0.0","0","0","67210","","213","","","68","63","","","2","63","training","adjacent","FE","6","5","L.jpg","N.jpg","1","0","0","",""
"","feedback","","html-keyboard-response","416","452532","0.0-1.0-573.0-0.0","0","0","67210","","null","","","null","63","","","","","","","","","","","","","","","",""
"","time_out","","html-keyboard-response","417","454534","0.0-1.0-575.0-0.0","0","0","67210","","null","","","null","63","","","","","","","","","","","","","","","",""
"","ITI","","html-keyboard-response","418","455536","0.0-1.0-576.0","0","0","67210","","null","","","null","63","","","","","","","","","","","","","","","NaN",""
"","S1","","html-keyboard-response","419","455789","0.0-1.0-578.0","0","0","67210","","null","","","null","64","","","","","","","","","","","","","","","",""
"","ISI","","html-keyboard-response","420","456803","0.0-1.0-579.0","0","0","67210","","null","","","null","64","NaN","","","","","","","","","","","","","","",""
"","S2","","html-keyboard-response","421","457056","0.0-1.0-580.0","0","0","67210","","null","","","null","64","","NaN","","","","","","","","","","","","","",""
"","response","","html-keyboard-response","422","457266","0.0-1.0-581.0-0.0","0","0","67210","","208","","","68","64","","","2","64","training","adjacent","FG","6","7","L.jpg","R.jpg","1","1","1","",""
"","feedback","","html-keyboard-response","423","458268","0.0-1.0-582.0-0.0","0","0","67210","","null","","","null","64","","","","","","","","","","","","","","","",""
"","ITI","","html-keyboard-response","424","459270","0.0-1.0-585.0","0","0","67210","","null","","","null","64","","","","","","","","","","","","","","","NaN",""
"","S1","","html-keyboard-response","425","459522","0.0-1.0-587.0","0","0","67210","","null","","","null","65","","","","","","","","","","","","","","","",""
"","ISI","","html-keyboard-response","426","460524","0.0-1.0-588.0","0","0","67210","","null","","","null","65","NaN","","","","","","","","","","","","","","",""
"","S2","","html-keyboard-response","427","460778","0.0-1.0-589.0","0","0","67210","","null","","","null","65","","NaN","","","","","","","","","","","","","",""
"","response","","html-keyboard-response","428","461170","0.0-1.0-590.0-0.0","0","0","67210","","390","","","68","65","","","2","65","training","adjacent","ED","5","4","N.jpg","M.jpg","1","0","0","",""
"","feedback","","html-keyboard-response","429","462172","0.0-1.0-591.0-0.0","0","0","67210","","null","","","null","65","","","","","","","","","","","","","","","",""
"","time_out","","html-keyboard-response","430","464175","0.0-1.0-593.0-0.0","0","0","67210","","null","","","null","65","","","","","","","","","","","","","","","",""
"","ITI","","html-keyboard-response","431","465177","0.0-1.0-594.0","0","0","67210","","null","","","null","65","","","","","","","","","","","","","","","NaN",""
"","S1","","html-keyboard-response","432","465429","0.0-1.0-596.0","0","0","67210","","null","","","null","66","","","","","","","","","","","","","","","",""
"","ISI","","html-keyboard-response","433","466432","0.0-1.0-597.0","0","0","67210","","null","","","null","66","NaN","","","","","","","","","","","","","","",""
"","S2","","html-keyboard-response","434","466685","0.0-1.0-598.0","0","0","67210","","null","","","null","66","","NaN","","","","","","","","","","","","","",""
"","response","","html-keyboard-response","435","466970","0.0-1.0-599.0-0.0","0","0","67210","","283","","","75","66","","","2","66","training","adjacent","DC","4","3","M.jpg","O.jpg","0","0","1","",""
"","feedback","","html-keyboard-response","436","467974","0.0-1.0-600.0-0.0","0","0","67210","","null","","","null","66","","","","","","","","","","","","","","","",""
"","ITI","","html-keyboard-response","437","468977","0.0-1.0-603.0","0","0","67210","","null","","","null","66","","","","","","","","","","","","","","","NaN",""
"","S1","","html-keyboard-response","438","469229","0.0-1.0-605.0","0","0","67210","","null","","","null","67","","","","","","","","","","","","","","","",""
"","ISI","","html-keyboard-response","439","470231","0.0-1.0-606.0","0","0","67210","","null","","","null","67","NaN","","","","","","","","","","","","","","",""
"","S2","","html-keyboard-response","440","470483","0.0-1.0-607.0","0","0","67210","","null","","","null","67","","NaN","","","","","","","","","","","","","",""
"","response","","html-keyboard-response","441","470713","0.0-1.0-608.0-0.0","0","0","67210","","228","","","68","67","","","2","67","training","adjacent","FE","6","5","L.jpg","N.jpg","1","0","0","",""
"","feedback","","html-keyboard-response","442","471716","0.0-1.0-609.0-0.0","0","0","67210","","null","","","null","67","","","","","","","","","","","","","","","",""
"","time_out","","html-keyboard-response","443","473718","0.0-1.0-611.0-0.0","0","0","67210","","null","","","null","67","","","","","","","","","","","","","","","",""
"","ITI","","html-keyboard-response","444","474722","0.0-1.0-612.0","0","0","67210","","null","","","null","67","","","","","","","","","","","","","","","NaN",""
"","S1","","html-keyboard-response","445","474975","0.0-1.0-614.0","0","0","67210","","null","","","null","68","","","","","","","","","","","","","","","",""
"","ISI","","html-keyboard-response","446","475977","0.0-1.0-615.0","0","0","67210","","null","","","null","68","NaN","","","","","","","","","","","","","","",""
"","S2","","html-keyboard-response","447","476230","0.0-1.0-616.0","0","0","67210","","null","","","null","68","","NaN","","","","","","","","","","","","","",""
"","response","","html-keyboard-response","448","476546","0.0-1.0-617.0-0.0","0","0","67210","","315","","","75","68","","","2","68","training","adjacent","GF","7","6","R.jpg","L.jpg","0","0","1","",""
"","feedback","","html-keyboard-response","449","477549","0.0-1.0-618.0-0.0","0","0","67210","","null","","","null","68","","","","","","","","","","","","","","","",""
"","ITI","","html-keyboard-response","450","478552","0.0-1.0-621.0","0","0","67210","","null","","","null","68","","","","","","","","","","","","","","","NaN",""
"","S1","","html-keyboard-response","451","478804","0.0-1.0-623.0","0","0","67210","","null","","","null","69","","","","","","","","","","","","","","","",""
"","ISI","","html-keyboard-response","452","479806","0.0-1.0-624.0","0","0","67210","","null","","","null","69","NaN","","","","","","","","","","","","","","",""
"","S2","","html-keyboard-response","453","480058","0.0-1.0-625.0","0","0","67210","","null","","","null","69","","NaN","","","","","","","","","","","","","",""
"","response","","html-keyboard-response","454","480369","0.0-1.0-626.0-0.0","0","0","67210","","309","","","68","69","","","2","69","training","adjacent","FE","6","5","L.jpg","N.jpg","1","0","0","",""
"","feedback","","html-keyboard-response","455","481371","0.0-1.0-627.0-0.0","0","0","67210","","null","","","null","69","","","","","","","","","","","","","","","",""
"","time_out","","html-keyboard-response","456","483374","0.0-1.0-629.0-0.0","0","0","67210","","null","","","null","69","","","","","","","","","","","","","","","",""
"","ITI","","html-keyboard-response","457","484377","0.0-1.0-630.0","0","0","67210","","null","","","null","69","","","","","","","","","","","","","","","NaN",""
"","S1","","html-keyboard-response","458","484630","0.0-1.0-632.0","0","0","67210","","null","","","null","70","","","","","","","","","","","","","","","",""
"","ISI","","html-keyboard-response","459","485632","0.0-1.0-633.0","0","0","67210","","null","","","null","70","NaN","","","","","","","","","","","","","","",""
"","S2","","html-keyboard-response","460","485802","0.0-1.0-634.0","0","0","67210","","167","","","68","70","","d","2","70","training","adjacent","FG","6","7","L.jpg","R.jpg","1","1","1","",""
"","feedback","","html-keyboard-response","461","486806","0.0-1.0-636.0-0.0","0","0","67210","","null","","","null","70","","","","","","","","","","","","","","","",""
"","ITI","","html-keyboard-response","462","487809","0.0-1.0-639.0","0","0","67210","","null","","","null","70","","","","","","","","","","","","","","","NaN",""
"","S1","","html-keyboard-response","463","488061","0.0-1.0-641.0","0","0","67210","","null","","","null","71","","","","","","","","","","","","","","","",""
"","ISI","","html-keyboard-response","464","489064","0.0-1.0-642.0","0","0","67210","","null","","","null","71","NaN","","","","","","","","","","","","","","",""
"","S2","","html-keyboard-response","465","489316","0.0-1.0-643.0","0","0","67210","","null","","","null","71","","NaN","","","","","","","","","","","","","",""
"","response","","html-keyboard-response","466","489442","0.0-1.0-644.0-0.0","0","0","67210","","124","","","75","71","","","2","71","training","adjacent","BC","2","3","P.jpg","O.jpg","0","1","0","",""
"","feedback","","html-keyboard-response","467","490445","0.0-1.0-645.0-0.0","0","0","67210","","null","","","null","71","","","","","","","","","","","","","","","",""
"","time_out","","html-keyboard-response","468","492447","0.0-1.0-647.0-0.0","0","0","67210","","null","","","null","71","","","","","","","","","","","","","","","",""
"","ITI","","html-keyboard-response","469","493458","0.0-1.0-648.0","0","0","67210","","null","","","null","71","","","","","","","","","","","","","","","NaN",""
"","S1","","html-keyboard-response","470","493710","0.0-1.0-650.0","0","0","67210","","null","","","null","72","","","","","","","","","","","","","","","",""
"","ISI","","html-keyboard-response","471","494714","0.0-1.0-651.0","0","0","67210","","null","","","null","72","NaN","","","","","","","","","","","","","","",""
"","S2","","html-keyboard-response","472","494966","0.0-1.0-652.0","0","0","67210","","null","","","null","72","","NaN","","","","","","","","","","","","","",""
"","response","","html-keyboard-response","473","495305","0.0-1.0-653.0-0.0","0","0","67210","","337","","","75","72","","","2","72","training","adjacent","BC","2","3","P.jpg","O.jpg","0","1","0","",""
"","feedback","","html-keyboard-response","474","496308","0.0-1.0-654.0-0.0","0","0","67210","","null","","","null","72","","","","","","","","","","","","","","","",""
"","time_out","","html-keyboard-response","475","498311","0.0-1.0-656.0-0.0","0","0","67210","","null","","","null","72","","","","","","","","","","","","","","","",""
"","ITI","","html-keyboard-response","476","499313","0.0-1.0-657.0","0","0","67210","","null","","","null","72","","","","","","","","","","","","","","","NaN",""
"","S1","","html-keyboard-response","477","499566","0.0-1.0-659.0","0","0","67210","","null","","","null","73","","","","","","","","","","","","","","","",""
"","ISI","","html-keyboard-response","478","500569","0.0-1.0-660.0","0","0","67210","","null","","","null","73","NaN","","","","","","","","","","","","","","",""
"","S2","","html-keyboard-response","479","500823","0.0-1.0-661.0","0","0","67210","","null","","","null","73","","NaN","","","","","","","","","","","","","",""
"","response","","html-keyboard-response","480","500889","0.0-1.0-662.0-0.0","0","0","67210","","65","","","75","73","","","2","73","training","adjacent","AB","1","2","Q.jpg","P.jpg","0","1","0","",""
"","feedback","","html-keyboard-response","481","501892","0.0-1.0-663.0-0.0","0","0","67210","","null","","","null","73","","","","","","","","","","","","","","","",""
"","time_out","","html-keyboard-response","482","503894","0.0-1.0-665.0-0.0","0","0","67210","","null","","","null","73","","","","","","","","","","","","","","","",""
"","ITI","","html-keyboard-response","483","504896","0.0-1.0-666.0","0","0","67210","","null","","","null","73","","","","","","","","","","","","","","","NaN",""
"","S1","","html-keyboard-response","484","505149","0.0-1.0-668.0","0","0","67210","","null","","","null","74","","","","","","","","","","","","","","","",""
"","ISI","","html-keyboard-response","485","506151","0.0-1.0-669.0","0","0","67210","","null","","","null","74","NaN","","","","","","","","","","","","","","",""
"","S2","","html-keyboard-response","486","506404","0.0-1.0-670.0","0","0","67210","","null","","","null","74","","NaN","","","","","","","","","","","","","",""
"","response","","html-keyboard-response","487","506649","0.0-1.0-671.0-0.0","0","0","67210","","244","","","68","74","","","2","74","training","adjacent","BA","2","1","P.jpg","Q.jpg","1","0","0","",""
"","feedback","","html-keyboard-response","488","507652","0.0-1.0-672.0-0.0","0","0","67210","","null","","","null","74","","","","","","","","","","","","","","","",""
"","time_out","","html-keyboard-response","489","509654","0.0-1.0-674.0-0.0","0","0","67210","","null","","","null","74","","","","","","","","","","","","","","","",""
"","ITI","","html-keyboard-response","490","510656","0.0-1.0-675.0","0","0","67210","","null","","","null","74","","","","","","","","","","","","","","","NaN",""
"","S1","","html-keyboard-response","491","510909","0.0-1.0-677.0","0","0","67210","","null","","","null","75","","","","","","","","","","","","","","","",""
"","ISI","","html-keyboard-response","492","511912","0.0-1.0-678.0","0","0","67210","","null","","","null","75","NaN","","","","","","","","","","","","","","",""
"","S2","","html-keyboard-response","493","512165","0.0-1.0-679.0","0","0","67210","","null","","","null","75","","NaN","","","","","","","","","","","","","",""
"","response","","html-keyboard-response","494","512306","0.0-1.0-680.0-0.0","0","0","67210","","138","","","75","75","","","2","75","training","adjacent","GF","7","6","R.jpg","L.jpg","0","0","1","",""
"","feedback","","html-keyboard-response","495","513317","0.0-1.0-681.0-0.0","0","0","67210","","null","","","null","75","","","","","","","","","","","","","","","",""
"","ITI","","html-keyboard-response","496","514320","0.0-1.0-684.0","0","0","67210","","null","","","null","75","","","","","","","","","","","","","","","NaN",""
"","S1","","html-keyboard-response","497","514572","0.0-1.0-686.0","0","0","67210","","null","","","null","76","","","","","","","","","","","","","","","",""
"","ISI","","html-keyboard-response","498","515574","0.0-1.0-687.0","0","0","67210","","null","","","null","76","NaN","","","","","","","","","","","","","","",""
"","S2","","html-keyboard-response","499","515827","0.0-1.0-688.0","0","0","67210","","null","","","null","76","","NaN","","","","","","","","","","","","","",""
"","response","","html-keyboard-response","500","516089","0.0-1.0-689.0-0.0","0","0","67210","","260","","","75","76","","","2","76","training","adjacent","GF","7","6","R.jpg","L.jpg","0","0","1","",""
"","feedback","","html-keyboard-response","501","517092","0.0-1.0-690.0-0.0","0","0","67210","","null","","","null","76","","","","","","","","","","","","","","","",""
"","ITI","","html-keyboard-response","502","518095","0.0-1.0-693.0","0","0","67210","","null","","","null","76","","","","","","","","","","","","","","","NaN",""
"","S1","","html-keyboard-response","503","518358","0.0-1.0-695.0","0","0","67210","","null","","","null","77","","","","","","","","","","","","","","","",""
"","ISI","","html-keyboard-response","504","519361","0.0-1.0-696.0","0","0","67210","","null","","","null","77","NaN","","","","","","","","","","","","","","",""
"","S2","","html-keyboard-response","505","519614","0.0-1.0-697.0","0","0","67210","","null","","","null","77","","NaN","","","","","","","","","","","","","",""
"","response","","html-keyboard-response","506","519994","0.0-1.0-698.0-0.0","0","0","67210","","378","","","68","77","","","2","77","training","adjacent","ED","5","4","N.jpg","M.jpg","1","0","0","",""
"","feedback","","html-keyboard-response","507","520996","0.0-1.0-699.0-0.0","0","0","67210","","null","","","null","77","","","","","","","","","","","","","","","",""
"","time_out","","html-keyboard-response","508","523021","0.0-1.0-701.0-0.0","0","0","67210","","null","","","null","77","","","","","","","","","","","","","","","",""
"","ITI","","html-keyboard-response","509","524023","0.0-1.0-702.0","0","0","67210","","null","","","null","77","","","","","","","","","","","","","","","NaN",""
"","S1","","html-keyboard-response","510","524275","0.0-1.0-704.0","0","0","67210","","null","","","null","78","","","","","","","","","","","","","","","",""
"","ISI","","html-keyboard-response","511","525278","0.0-1.0-705.0","0","0","67210","","null","","","null","78","NaN","","","","","","","","","","","","","","",""
"","S2","","html-keyboard-response","512","525531","0.0-1.0-706.0","0","0","67210","","null","","","null","78","","NaN","","","","","","","","","","","","","",""
"","response","","html-keyboard-response","513","525857","0.0-1.0-707.0-0.0","0","0","67210","","325","","","75","78","","","2","78","training","adjacent","DE","4","5","M.jpg","N.jpg","0","1","0","",""
"","feedback","","html-keyboard-response","514","526861","0.0-1.0-708.0-0.0","0","0","67210","","null","","","null","78","","","","","","","","","","","","","","","",""
"","time_out","","html-keyboard-response","515","528865","0.0-1.0-710.0-0.0","0","0","67210","","null","","","null","78","","","","","","","","","","","","","","","",""
"","ITI","","html-keyboard-response","516","529868","0.0-1.0-711.0","0","0","67210","","null","","","null","78","","","","","","","","","","","","","","","NaN",""
"","S1","","html-keyboard-response","517","530121","0.0-1.0-713.0","0","0","67210","","null","","","null","79","","","","","","","","","","","","","","","",""
"","ISI","","html-keyboard-response","518","531123","0.0-1.0-714.0","0","0","67210","","null","","","null","79","NaN","","","","","","","","","","","","","","",""
"","S2","","html-keyboard-response","519","531376","0.0-1.0-715.0","0","0","67210","","null","","","null","79","","NaN","","","","","","","","","","","","","",""
"","response","","html-keyboard-response","520","531657","0.0-1.0-716.0-0.0","0","0","67210","","280","","","68","79","","","2","79","training","adjacent","BA","2","1","P.jpg","Q.jpg","1","0","0","",""
"","feedback","","html-keyboard-response","521","532659","0.0-1.0-717.0-0.0","0","0","67210","","null","","","null","79","","","","","","","","","","","","","","","",""
"","time_out","","html-keyboard-response","522","534661","0.0-1.0-719.0-0.0","0","0","67210","","null","","","null","79","","","","","","","","","","","","","","","",""
"","ITI","","html-keyboard-response","523","535664","0.0-1.0-720.0","0","0","67210","","null","","","null","79","","","","","","","","","","","","","","","NaN",""
"","S1","","html-keyboard-response","524","535917","0.0-1.0-722.0","0","0","67210","","null","","","null","80","","","","","","","","","","","","","","","",""
"","ISI","","html-keyboard-response","525","536921","0.0-1.0-723.0","0","0","67210","","null","","","null","80","NaN","","","","","","","","","","","","","","",""
"","S2","","html-keyboard-response","526","537174","0.0-1.0-724.0","0","0","67210","","null","","","null","80","","NaN","","","","","","","","","","","","","",""
"","response","","html-keyboard-response","527","537449","0.0-1.0-725.0-0.0","0","0","67210","","273","","","75","80","","","2","80","training","adjacent","DC","4","3","M.jpg","O.jpg","0","0","1","",""
"","feedback","","html-keyboard-response","528","538452","0.0-1.0-726.0-0.0","0","0","67210","","null","","","null","80","","","","","","","","","","","","","","","",""
"","ITI","","html-keyboard-response","529","539455","0.0-1.0-729.0","0","0","67210","","null","","","null","80","","","","","","","","","","","","","","","NaN",""
"","S1","","html-keyboard-response","530","539708","0.0-1.0-731.0","0","0","67210","","null","","","null","81","","","","","","","","","","","","","","","",""
"","ISI","","html-keyboard-response","531","540710","0.0-1.0-732.0","0","0","67210","","null","","","null","81","NaN","","","","","","","","","","","","","","",""
"","S2","","html-keyboard-response","532","540962","0.0-1.0-733.0","0","0","67210","","null","","","null","81","","NaN","","","","","","","","","","","","","",""
"","response","","html-keyboard-response","533","541026","0.0-1.0-734.0-0.0","0","0","67210","","62","","","75","81","","","2","81","training","adjacent","EF","5","6","N.jpg","L.jpg","0","1","0","",""
"","feedback","","html-keyboard-response","534","542028","0.0-1.0-735.0-0.0","0","0","67210","","null","","","null","81","","","","","","","","","","","","","","","",""
"","time_out","","html-keyboard-response","535","544031","0.0-1.0-737.0-0.0","0","0","67210","","null","","","null","81","","","","","","","","","","","","","","","",""
"","ITI","","html-keyboard-response","536","545034","0.0-1.0-738.0","0","0","67210","","null","","","null","81","","","","","","","","","","","","","","","NaN",""
"","S1","","html-keyboard-response","537","545287","0.0-1.0-740.0","0","0","67210","","null","","","null","82","","","","","","","","","","","","","","","",""
"","ISI","","html-keyboard-response","538","546289","0.0-1.0-741.0","0","0","67210","","null","","","null","82","NaN","","","","","","","","","","","","","","",""
"","S2","","html-keyboard-response","539","546542","0.0-1.0-742.0","0","0","67210","","null","","","null","82","","NaN","","","","","","","","","","","","","",""
"","response","","html-keyboard-response","540","546657","0.0-1.0-743.0-0.0","0","0","67210","","114","","","75","82","","","2","82","training","adjacent","DC","4","3","M.jpg","O.jpg","0","0","1","",""
"","feedback","","html-keyboard-response","541","547660","0.0-1.0-744.0-0.0","0","0","67210","","null","","","null","82","","","","","","","","","","","","","","","",""
"","ITI","","html-keyboard-response","542","548662","0.0-1.0-747.0","0","0","67210","","null","","","null","82","","","","","","","","","","","","","","","NaN",""
"","S1","","html-keyboard-response","543","548914","0.0-1.0-749.0","0","0","67210","","null","","","null","83","","","","","","","","","","","","","","","",""
"","ISI","","html-keyboard-response","544","549917","0.0-1.0-750.0","0","0","67210","","null","","","null","83","NaN","","","","","","","","","","","","","","",""
"","S2","","html-keyboard-response","545","550170","0.0-1.0-751.0","0","0","67210","","null","","","null","83","","NaN","","","","","","","","","","","","","",""
"","response","","html-keyboard-response","546","550242","0.0-1.0-752.0-0.0","0","0","67210","","70","","","68","83","","","2","83","training","adjacent","BC","2","3","P.jpg","O.jpg","1","1","1","",""
"","feedback","","html-keyboard-response","547","551255","0.0-1.0-753.0-0.0","0","0","67210","","null","","","null","83","","","","","","","","","","","","","","","",""
"","ITI","","html-keyboard-response","548","552259","0.0-1.0-756.0","0","0","67210","","null","","","null","83","","","","","","","","","","","","","","","NaN",""
"","S1","","html-keyboard-response","549","552511","0.0-1.0-758.0","0","0","67210","","null","","","null","84","","","","","","","","","","","","","","","",""
"","ISI","","html-keyboard-response","550","553513","0.0-1.0-759.0","0","0","67210","","null","","","null","84","NaN","","","","","","","","","","","","","","",""
"","S2","","html-keyboard-response","551","553766","0.0-1.0-760.0","0","0","67210","","null","","","null","84","","NaN","","","","","","","","","","","","","",""
"","response","","html-keyboard-response","552","553891","0.0-1.0-761.0-0.0","0","0","67210","","123","","","68","84","","","2","84","training","adjacent","FG","6","7","L.jpg","R.jpg","1","1","1","",""
"","feedback","","html-keyboard-response","553","554894","0.0-1.0-762.0-0.0","0","0","67210","","null","","","null","84","","","","","","","","","","","","","","","",""
"","ITI","","html-keyboard-response","554","555897","0.0-1.0-765.0","0","0","67210","","null","","","null","84","","","","","","","","","","","","","","","NaN",""
"","S1","","html-keyboard-response","555","556150","0.0-1.0-767.0","0","0","67210","","null","","","null","85","","","","","","","","","","","","","","","",""
"","ISI","","html-keyboard-response","556","557152","0.0-1.0-768.0","0","0","67210","","null","","","null","85","NaN","","","","","","","","","","","","","","",""
"","S2","","html-keyboard-response","557","557405","0.0-1.0-769.0","0","0","67210","","null","","","null","85","","NaN","","","","","","","","","","","","","",""
"","response","","html-keyboard-response","558","558370","0.0-1.0-770.0-0.0","0","0","67210","","964","","","68","85","","","2","85","training","adjacent","DE","4","5","M.jpg","N.jpg","1","1","1","",""
"","feedback","","html-keyboard-response","559","559372","0.0-1.0-771.0-0.0","0","0","67210","","null","","","null","85","","","","","","","","","","","","","","","",""
"","ITI","","html-keyboard-response","560","560375","0.0-1.0-774.0","0","0","67210","","null","","","null","85","","","","","","","","","","","","","","","NaN",""
"","S1","","html-keyboard-response","561","560628","0.0-1.0-776.0","0","0","67210","","null","","","null","86","","","","","","","","","","","","","","","",""
"","ISI","","html-keyboard-response","562","561630","0.0-1.0-777.0","0","0","67210","","null","","","null","86","NaN","","","","","","","","","","","","","","",""
"","S2","","html-keyboard-response","563","561884","0.0-1.0-778.0","0","0","67210","","null","","","null","86","","NaN","","","","","","","","","","","","","",""
"","response","","html-keyboard-response","564","562234","0.0-1.0-779.0-0.0","0","0","67210","","349","","","75","86","","","2","86","training","adjacent","DE","4","5","M.jpg","N.jpg","0","1","0","",""
"","feedback","","html-keyboard-response","565","563237","0.0-1.0-780.0-0.0","0","0","67210","","null","","","null","86","","","","","","","","","","","","","","","",""
"","time_out","","html-keyboard-response","566","565239","0.0-1.0-782.0-0.0","0","0","67210","","null","","","null","86","","","","","","","","","","","","","","","",""
"","ITI","","html-keyboard-response","567","566242","0.0-1.0-783.0","0","0","67210","","null","","","null","86","","","","","","","","","","","","","","","NaN",""
"","S1","","html-keyboard-response","568","566494","0.0-1.0-785.0","0","0","67210","","null","","","null","87","","","","","","","","","","","","","","","",""
"","ISI","","html-keyboard-response","569","567496","0.0-1.0-786.0","0","0","67210","","939","","","68","87","d","","","","","","","","","","","","","","",""
"","S2","","html-keyboard-response","570","567748","0.0-1.0-787.0","0","0","67210","","null","","","null","87","","NaN","","","","","","","","","","","","","",""
"","response","","html-keyboard-response","571","568434","0.0-1.0-788.0-0.0","0","0","67210","","684","","","68","87","","","2","87","training","adjacent","BA","2","1","P.jpg","Q.jpg","1","0","0","",""
"","feedback","","html-keyboard-response","572","569437","0.0-1.0-789.0-0.0","0","0","67210","","null","","","null","87","","","","","","","","","","","","","","","",""
"","time_out","","html-keyboard-response","573","571441","0.0-1.0-791.0-0.0","0","0","67210","","null","","","null","87","","","","","","","","","","","","","","","",""
"","ITI","","html-keyboard-response","574","572444","0.0-1.0-792.0","0","0","67210","","null","","","null","87","","","","","","","","","","","","","","","NaN",""
"","S1","","html-keyboard-response","575","572697","0.0-1.0-794.0","0","0","67210","","null","","","null","88","","","","","","","","","","","","","","","",""
"","ISI","","html-keyboard-response","576","573699","0.0-1.0-795.0","0","0","67210","","null","","","null","88","NaN","","","","","","","","","","","","","","",""
"","S2","","html-keyboard-response","577","573951","0.0-1.0-796.0","0","0","67210","","null","","","null","88","","NaN","","","","","","","","","","","","","",""
"","response","","html-keyboard-response","578","574386","0.0-1.0-797.0-0.0","0","0","67210","","434","","","68","88","","","2","88","training","adjacent","CD","3","4","O.jpg","M.jpg","1","1","1","",""
"","feedback","","html-keyboard-response","579","575388","0.0-1.0-798.0-0.0","0","0","67210","","null","","","null","88","","","","","","","","","","","","","","","",""
"","ITI","","html-keyboard-response","580","576391","0.0-1.0-801.0","0","0","67210","","null","","","null","88","","","","","","","","","","","","","","","NaN",""
"","S1","","html-keyboard-response","581","576644","0.0-1.0-803.0","0","0","67210","","null","","","null","89","","","","","","","","","","","","","","","",""
"","ISI","","html-keyboard-response","582","577646","0.0-1.0-804.0","0","0","67210","","null","","","null","89","NaN","","","","","","","","","","","","","","",""
