"success","ttype","start_time","trial_type","trial_index","time_elapsed","internal_node_id","warning","missed_checkup","PID","view_history","rt","responses","repeat_instructions","key_press","index","keypress_isi","keypress_S2","block","trial_num","phase","group_type","pair_type","S1_stim","S2_stim","S1_img","S2_img","S1_chosen","S1_higher","accuracy","keypress_iti","total_bonus_tally"
"true","full_screen","d04072023hr0319","fullscreen","0","131709","0.0-0.0","0","0","23400","","","","","","","","","","","","","","","","","","","","","",""
"","instructions","","instructions","1","215156","0.0-1.0-0.0-0.0","0","0","23400","[{""page_index"":0,""viewing_time"":10804},{""page_index"":1,""viewing_time"":37875},{""page_index"":2,""viewing_time"":29446},{""page_index"":3,""viewing_time"":5320}]","83445","","","","","","","","","","","","","","","","","","","",""
"","comprehension_check","","survey-multi-choice","2","253510","0.0-1.0-0.0-1.0","0","0","23400","","38348","{""Q0"":""True"",""Q1"":""D"",""Q2"":""Once the second image appears and while the screen 'MAKE A CHOICE' is shown"",""Q3"":""Green mark"",""Q4"":""either D or K""}","0","","","","","","","","","","","","","","","","","",""
"","start_exp","","html-keyboard-response","3","255862","0.0-1.0-1.0","0","0","23400","","2349","","","32","","","","","","","","","","","","","","","","",""
"","S1","","html-keyboard-response","4","256014","0.0-1.0-2.0","0","0","23400","","null","","","null","0","","","","","","","","","","","","","","","",""
"","ISI","","html-keyboard-response","5","258017","0.0-1.0-3.0","0","0","23400","","null","","","null","0","NaN","","","","","","","","","","","","","","",""
"","S2","","html-keyboard-response","6","258169","0.0-1.0-4.0","0","0","23400","","null","","","null","0","","NaN","","","","","","","","","","","","","",""
"","response","","html-keyboard-response","7","259438","0.0-1.0-5.0-0.0","0","0","23400","","1266","","","75","0","","","1","0","training","adjacent","BC","2","3","O.jpg","P.jpg","0","1","0","",""
"","feedback","","html-keyboard-response","8","260442","0.0-1.0-6.0-0.0","0","0","23400","","null","","","null","0","","","","","","","","","","","","","","","",""
"","time_out","","html-keyboard-response","9","262444","0.0-1.0-8.0-0.0","0","0","23400","","null","","","null","0","","","","","","","","","","","","","","","",""
"","ITI","","html-keyboard-response","10","263447","0.0-1.0-9.0","0","0","23400","","null","","","null","0","","","","","","","","","","","","","","","NaN",""
"","S1","","html-keyboard-response","11","263599","0.0-1.0-11.0","0","0","23400","","null","","","null","1","","","","","","","","","","","","","","","",""
"","ISI","","html-keyboard-response","12","265614","0.0-1.0-12.0","0","0","23400","","null","","","null","1","NaN","","","","","","","","","","","","","","",""
"","S2","","html-keyboard-response","13","265767","0.0-1.0-13.0","0","0","23400","","null","","","null","1","","NaN","","","","","","","","","","","","","",""
"","response","","html-keyboard-response","14","267039","0.0-1.0-14.0-0.0","0","0","23400","","1271","","","68","1","","","1","1","training","adjacent","GF","7","6","L.jpg","Q.jpg","1","0","0","",""
"","feedback","","html-keyboard-response","15","268042","0.0-1.0-15.0-0.0","0","0","23400","","null","","","null","1","","","","","","","","","","","","","","","",""
"","time_out","","html-keyboard-response","16","270044","0.0-1.0-17.0-0.0","0","0","23400","","null","","","null","1","","","","","","","","","","","","","","","",""
"","ITI","","html-keyboard-response","17","271047","0.0-1.0-18.0","0","0","23400","","null","","","null","1","","","","","","","","","","","","","","","NaN",""
"","S1","","html-keyboard-response","18","271199","0.0-1.0-20.0","0","0","23400","","null","","","null","2","","","","","","","","","","","","","","","",""
"","ISI","","html-keyboard-response","19","273201","0.0-1.0-21.0","0","0","23400","","null","","","null","2","NaN","","","","","","","","","","","","","","",""
"","S2","","html-keyboard-response","20","273353","0.0-1.0-22.0","0","0","23400","","null","","","null","2","","NaN","","","","","","","","","","","","","",""
"","response","","html-keyboard-response","21","274080","0.0-1.0-23.0-0.0","0","0","23400","","726","","","68","2","","","1","2","training","adjacent","ED","5","4","N.jpg","R.jpg","1","0","0","",""
"","feedback","","html-keyboard-response","22","275084","0.0-1.0-24.0-0.0","0","0","23400","","null","","","null","2","","","","","","","","","","","","","","","",""
"","time_out","","html-keyboard-response","23","277086","0.0-1.0-26.0-0.0","0","0","23400","","null","","","null","2","","","","","","","","","","","","","","","",""
"","ITI","","html-keyboard-response","24","278089","0.0-1.0-27.0","0","0","23400","","null","","","null","2","","","","","","","","","","","","","","","NaN",""
"","S1","","html-keyboard-response","25","278242","0.0-1.0-29.0","0","0","23400","","null","","","null","3","","","","","","","","","","","","","","","",""
"","ISI","","html-keyboard-response","26","280244","0.0-1.0-30.0","0","0","23400","","null","","","null","3","NaN","","","","","","","","","","","","","","",""
"","S2","","html-keyboard-response","27","280396","0.0-1.0-31.0","0","0","23400","","null","","","null","3","","NaN","","","","","","","","","","","","","",""
"","response","","html-keyboard-response","28","280662","0.0-1.0-32.0-0.0","0","0","23400","","265","","","75","3","","","1","3","training","adjacent","FE","6","5","Q.jpg","N.jpg","0","0","1","",""
"","feedback","","html-keyboard-response","29","281665","0.0-1.0-33.0-0.0","0","0","23400","","null","","","null","3","","","","","","","","","","","","","","","",""
"","ITI","","html-keyboard-response","30","282666","0.0-1.0-36.0","0","0","23400","","null","","","null","3","","","","","","","","","","","","","","","NaN",""
"","S1","","html-keyboard-response","31","282819","0.0-1.0-38.0","0","0","23400","","null","","","null","4","","","","","","","","","","","","","","","",""
"","ISI","","html-keyboard-response","32","284822","0.0-1.0-39.0","0","0","23400","","null","","","null","4","NaN","","","","","","","","","","","","","","",""
"","S2","","html-keyboard-response","33","284975","0.0-1.0-40.0","0","0","23400","","null","","","null","4","","NaN","","","","","","","","","","","","","",""
"","response","","html-keyboard-response","34","285424","0.0-1.0-41.0-0.0","0","0","23400","","447","","","68","4","","","1","4","training","adjacent","AB","1","2","M.jpg","O.jpg","1","1","1","",""
"","feedback","","html-keyboard-response","35","286427","0.0-1.0-42.0-0.0","0","0","23400","","null","","","null","4","","","","","","","","","","","","","","","",""
"","ITI","","html-keyboard-response","36","287429","0.0-1.0-45.0","0","0","23400","","null","","","null","4","","","","","","","","","","","","","","","NaN",""
"","S1","","html-keyboard-response","37","287581","0.0-1.0-47.0","0","0","23400","","null","","","null","5","","","","","","","","","","","","","","","",""
"","ISI","","html-keyboard-response","38","289584","0.0-1.0-48.0","0","0","23400","","null","","","null","5","NaN","","","","","","","","","","","","","","",""
"","S2","","html-keyboard-response","39","289738","0.0-1.0-49.0","0","0","23400","","null","","","null","5","","NaN","","","","","","","","","","","","","",""
"","response","","html-keyboard-response","40","290836","0.0-1.0-50.0-0.0","0","0","23400","","1097","","","68","5","","","1","5","training","adjacent","FE","6","5","Q.jpg","N.jpg","1","0","0","",""
"","feedback","","html-keyboard-response","41","291839","0.0-1.0-51.0-0.0","0","0","23400","","null","","","null","5","","","","","","","","","","","","","","","",""
"","time_out","","html-keyboard-response","42","293841","0.0-1.0-53.0-0.0","0","0","23400","","null","","","null","5","","","","","","","","","","","","","","","",""
"","ITI","","html-keyboard-response","43","294843","0.0-1.0-54.0","0","0","23400","","null","","","null","5","","","","","","","","","","","","","","","NaN",""
"","S1","","html-keyboard-response","44","294999","0.0-1.0-56.0","0","0","23400","","null","","","null","6","","","","","","","","","","","","","","","",""
"","ISI","","html-keyboard-response","45","297002","0.0-1.0-57.0","0","0","23400","","null","","","null","6","NaN","","","","","","","","","","","","","","",""
"","S2","","html-keyboard-response","46","297155","0.0-1.0-58.0","0","0","23400","","null","","","null","6","","NaN","","","","","","","","","","","","","",""
"","response","","html-keyboard-response","47","297874","0.0-1.0-59.0-0.0","0","0","23400","","717","","","68","6","","","1","6","training","adjacent","AB","1","2","M.jpg","O.jpg","1","1","1","",""
"","feedback","","html-keyboard-response","48","298876","0.0-1.0-60.0-0.0","0","0","23400","","null","","","null","6","","","","","","","","","","","","","","","",""
"","ITI","","html-keyboard-response","49","299879","0.0-1.0-63.0","0","0","23400","","null","","","null","6","","","","","","","","","","","","","","","NaN",""
"","S1","","html-keyboard-response","50","300031","0.0-1.0-65.0","0","0","23400","","null","","","null","7","","","","","","","","","","","","","","","",""
"","ISI","","html-keyboard-response","51","302033","0.0-1.0-66.0","0","0","23400","","null","","","null","7","NaN","","","","","","","","","","","","","","",""
"","S2","","html-keyboard-response","52","302185","0.0-1.0-67.0","0","0","23400","","null","","","null","7","","NaN","","","","","","","","","","","","","",""
"","response","","html-keyboard-response","53","303229","0.0-1.0-68.0-0.0","0","0","23400","","1043","","","68","7","","","1","7","training","adjacent","GF","7","6","L.jpg","Q.jpg","1","0","0","",""
"","feedback","","html-keyboard-response","54","304231","0.0-1.0-69.0-0.0","0","0","23400","","null","","","null","7","","","","","","","","","","","","","","","",""
"","time_out","","html-keyboard-response","55","306234","0.0-1.0-71.0-0.0","0","0","23400","","null","","","null","7","","","","","","","","","","","","","","","",""
"","ITI","","html-keyboard-response","56","307236","0.0-1.0-72.0","0","0","23400","","null","","","null","7","","","","","","","","","","","","","","","NaN",""
"","S1","","html-keyboard-response","57","307388","0.0-1.0-74.0","0","0","23400","","null","","","null","8","","","","","","","","","","","","","","","",""
"","ISI","","html-keyboard-response","58","309390","0.0-1.0-75.0","0","0","23400","","null","","","null","8","NaN","","","","","","","","","","","","","","",""
"","S2","","html-keyboard-response","59","309543","0.0-1.0-76.0","0","0","23400","","null","","","null","8","","NaN","","","","","","","","","","","","","",""
"","response","","html-keyboard-response","60","310455","0.0-1.0-77.0-0.0","0","0","23400","","910","","","68","8","","","1","8","training","adjacent","CD","3","4","P.jpg","R.jpg","1","1","1","",""
"","feedback","","html-keyboard-response","61","311457","0.0-1.0-78.0-0.0","0","0","23400","","null","","","null","8","","","","","","","","","","","","","","","",""
"","ITI","","html-keyboard-response","62","312459","0.0-1.0-81.0","0","0","23400","","null","","","null","8","","","","","","","","","","","","","","","NaN",""
"","S1","","html-keyboard-response","63","312612","0.0-1.0-83.0","0","0","23400","","null","","","null","9","","","","","","","","","","","","","","","",""
"","ISI","","html-keyboard-response","64","314615","0.0-1.0-84.0","0","0","23400","","null","","","null","9","NaN","","","","","","","","","","","","","","",""
"","S2","","html-keyboard-response","65","314768","0.0-1.0-85.0","0","0","23400","","null","","","null","9","","NaN","","","","","","","","","","","","","",""
"","response","","html-keyboard-response","66","315989","0.0-1.0-86.0-0.0","0","0","23400","","1218","","","68","9","","","1","9","training","adjacent","DC","4","3","R.jpg","P.jpg","1","0","0","",""
"","feedback","","html-keyboard-response","67","316991","0.0-1.0-87.0-0.0","0","0","23400","","null","","","null","9","","","","","","","","","","","","","","","",""
"","time_out","","html-keyboard-response","68","318994","0.0-1.0-89.0-0.0","0","0","23400","","null","","","null","9","","","","","","","","","","","","","","","",""
"","ITI","","html-keyboard-response","69","319997","0.0-1.0-90.0","0","0","23400","","null","","","null","9","","","","","","","","","","","","","","","NaN",""
"","S1","","html-keyboard-response","70","320149","0.0-1.0-92.0","0","0","23400","","null","","","null","10","","","","","","","","","","","","","","","",""
"","ISI","","html-keyboard-response","71","322152","0.0-1.0-93.0","0","0","23400","","null","","","null","10","NaN","","","","","","","","","","","","","","",""
"","S2","","html-keyboard-response","72","322316","0.0-1.0-94.0","0","0","23400","","null","","","null","10","","NaN","","","","","","","","","","","","","",""
"","response","","html-keyboard-response","73","322861","0.0-1.0-95.0-0.0","0","0","23400","","542","","","75","10","","","1","10","training","adjacent","DC","4","3","R.jpg","P.jpg","0","0","1","",""
"","feedback","","html-keyboard-response","74","323864","0.0-1.0-96.0-0.0","0","0","23400","","null","","","null","10","","","","","","","","","","","","","","","",""
"","ITI","","html-keyboard-response","75","324867","0.0-1.0-99.0","0","0","23400","","null","","","null","10","","","","","","","","","","","","","","","NaN",""
"","S1","","html-keyboard-response","76","325019","0.0-1.0-101.0","0","0","23400","","null","","","null","11","","","","","","","","","","","","","","","",""
"","ISI","","html-keyboard-response","77","327022","0.0-1.0-102.0","0","0","23400","","null","","","null","11","NaN","","","","","","","","","","","","","","",""
"","S2","","html-keyboard-response","78","327178","0.0-1.0-103.0","0","0","23400","","null","","","null","11","","NaN","","","","","","","","","","","","","",""
"","response","","html-keyboard-response","79","327610","0.0-1.0-104.0-0.0","0","0","23400","","429","","","75","11","","","1","11","training","adjacent","GF","7","6","L.jpg","Q.jpg","0","0","1","",""
"","feedback","","html-keyboard-response","80","328612","0.0-1.0-105.0-0.0","0","0","23400","","null","","","null","11","","","","","","","","","","","","","","","",""
"","ITI","","html-keyboard-response","81","329615","0.0-1.0-108.0","0","0","23400","","null","","","null","11","","","","","","","","","","","","","","","NaN",""
"","S1","","html-keyboard-response","82","329768","0.0-1.0-110.0","0","0","23400","","null","","","null","12","","","","","","","","","","","","","","","",""
"","ISI","","html-keyboard-response","83","331770","0.0-1.0-111.0","0","0","23400","","null","","","null","12","NaN","","","","","","","","","","","","","","",""
"","S2","","html-keyboard-response","84","331923","0.0-1.0-112.0","0","0","23400","","null","","","null","12","","NaN","","","","","","","","","","","","","",""
"","response","","html-keyboard-response","85","332518","0.0-1.0-113.0-0.0","0","0","23400","","594","","","68","12","","","1","12","training","adjacent","EF","5","6","N.jpg","Q.jpg","1","1","1","",""
"","feedback","","html-keyboard-response","86","333520","0.0-1.0-114.0-0.0","0","0","23400","","null","","","null","12","","","","","","","","","","","","","","","",""
"","ITI","","html-keyboard-response","87","334523","0.0-1.0-117.0","0","0","23400","","null","","","null","12","","","","","","","","","","","","","","","NaN",""
"","S1","","html-keyboard-response","88","334686","0.0-1.0-119.0","0","0","23400","","null","","","null","13","","","","","","","","","","","","","","","",""
"","ISI","","html-keyboard-response","89","336688","0.0-1.0-120.0","0","0","23400","","null","","","null","13","NaN","","","","","","","","","","","","","","",""
"","S2","","html-keyboard-response","90","336840","0.0-1.0-121.0","0","0","23400","","null","","","null","13","","NaN","","","","","","","","","","","","","",""
"","response","","html-keyboard-response","91","337738","0.0-1.0-122.0-0.0","0","0","23400","","897","","","68","13","","","1","13","training","adjacent","DE","4","5","R.jpg","N.jpg","1","1","1","",""
"","feedback","","html-keyboard-response","92","338741","0.0-1.0-123.0-0.0","0","0","23400","","null","","","null","13","","","","","","","","","","","","","","","",""
"","ITI","","html-keyboard-response","93","339743","0.0-1.0-126.0","0","0","23400","","null","","","null","13","","","","","","","","","","","","","","","NaN",""
"","S1","","html-keyboard-response","94","339896","0.0-1.0-128.0","0","0","23400","","null","","","null","14","","","","","","","","","","","","","","","",""
"","ISI","","html-keyboard-response","95","341899","0.0-1.0-129.0","0","0","23400","","null","","","null","14","NaN","","","","","","","","","","","","","","",""
"","S2","","html-keyboard-response","96","342052","0.0-1.0-130.0","0","0","23400","","null","","","null","14","","NaN","","","","","","","","","","","","","",""
"","response","","html-keyboard-response","97","342640","0.0-1.0-131.0-0.0","0","0","23400","","585","","","75","14","","","1","14","training","adjacent","BC","2","3","O.jpg","P.jpg","0","1","0","",""
"","feedback","","html-keyboard-response","98","343643","0.0-1.0-132.0-0.0","0","0","23400","","null","","","null","14","","","","","","","","","","","","","","","",""
"","time_out","","html-keyboard-response","99","345647","0.0-1.0-134.0-0.0","0","0","23400","","null","","","null","14","","","","","","","","","","","","","","","",""
"","ITI","","html-keyboard-response","100","346649","0.0-1.0-135.0","0","0","23400","","null","","","null","14","","","","","","","","","","","","","","","NaN",""
"","S1","","html-keyboard-response","101","346802","0.0-1.0-137.0","0","0","23400","","null","","","null","15","","","","","","","","","","","","","","","",""
"","ISI","","html-keyboard-response","102","348805","0.0-1.0-138.0","0","0","23400","","null","","","null","15","NaN","","","","","","","","","","","","","","",""
"","S2","","html-keyboard-response","103","348958","0.0-1.0-139.0","0","0","23400","","null","","","null","15","","NaN","","","","","","","","","","","","","",""
"","response","","html-keyboard-response","104","349594","0.0-1.0-140.0-0.0","0","0","23400","","635","","","75","15","","","1","15","training","adjacent","DC","4","3","R.jpg","P.jpg","0","0","1","",""
"","feedback","","html-keyboard-response","105","350597","0.0-1.0-141.0-0.0","0","0","23400","","null","","","null","15","","","","","","","","","","","","","","","",""
"","ITI","","html-keyboard-response","106","351600","0.0-1.0-144.0","0","0","23400","","null","","","null","15","","","","","","","","","","","","","","","NaN",""
"","S1","","html-keyboard-response","107","351752","0.0-1.0-146.0","0","0","23400","","null","","","null","16","","","","","","","","","","","","","","","",""
"","ISI","","html-keyboard-response","108","353754","0.0-1.0-147.0","0","0","23400","","null","","","null","16","NaN","","","","","","","","","","","","","","",""
"","S2","","html-keyboard-response","109","353907","0.0-1.0-148.0","0","0","23400","","null","","","null","16","","NaN","","","","","","","","","","","","","",""
"","response","","html-keyboard-response","110","354161","0.0-1.0-149.0-0.0","0","0","23400","","252","","","68","16","","","1","16","training","adjacent","CD","3","4","P.jpg","R.jpg","1","1","1","",""
"","feedback","","html-keyboard-response","111","355163","0.0-1.0-150.0-0.0","0","0","23400","","null","","","null","16","","","","","","","","","","","","","","","",""
"","ITI","","html-keyboard-response","112","356166","0.0-1.0-153.0","0","0","23400","","null","","","null","16","","","","","","","","","","","","","","","NaN",""
"","S1","","html-keyboard-response","113","356318","0.0-1.0-155.0","0","0","23400","","null","","","null","17","","","","","","","","","","","","","","","",""
"","ISI","","html-keyboard-response","114","358320","0.0-1.0-156.0","0","0","23400","","null","","","null","17","NaN","","","","","","","","","","","","","","",""
"","S2","","html-keyboard-response","115","358473","0.0-1.0-157.0","0","0","23400","","null","","","null","17","","NaN","","","","","","","","","","","","","",""
"","response","","html-keyboard-response","116","358807","0.0-1.0-158.0-0.0","0","0","23400","","332","","","68","17","","","1","17","training","adjacent","CB","3","2","P.jpg","O.jpg","1","0","0","",""
"","feedback","","html-keyboard-response","117","359810","0.0-1.0-159.0-0.0","0","0","23400","","null","","","null","17","","","","","","","","","","","","","","","",""
"","time_out","","html-keyboard-response","118","361812","0.0-1.0-161.0-0.0","0","0","23400","","null","","","null","17","","","","","","","","","","","","","","","",""
"","ITI","","html-keyboard-response","119","362815","0.0-1.0-162.0","0","0","23400","","null","","","null","17","","","","","","","","","","","","","","","NaN",""
"","S1","","html-keyboard-response","120","362967","0.0-1.0-164.0","0","0","23400","","null","","","null","18","","","","","","","","","","","","","","","",""
"","ISI","","html-keyboard-response","121","364969","0.0-1.0-165.0","0","0","23400","","null","","","null","18","NaN","","","","","","","","","","","","","","",""
"","S2","","html-keyboard-response","122","365122","0.0-1.0-166.0","0","0","23400","","null","","","null","18","","NaN","","","","","","","","","","","","","",""
"","response","","html-keyboard-response","123","365850","0.0-1.0-167.0-0.0","0","0","23400","","726","","","75","18","","","1","18","training","adjacent","FG","6","7","Q.jpg","L.jpg","0","1","0","",""
"","feedback","","html-keyboard-response","124","366853","0.0-1.0-168.0-0.0","0","0","23400","","null","","","null","18","","","","","","","","","","","","","","","",""
"","time_out","","html-keyboard-response","125","368855","0.0-1.0-170.0-0.0","0","0","23400","","null","","","null","18","","","","","","","","","","","","","","","",""
"","ITI","","html-keyboard-response","126","369858","0.0-1.0-171.0","0","0","23400","","null","","","null","18","","","","","","","","","","","","","","","NaN",""
"","S1","","html-keyboard-response","127","370010","0.0-1.0-173.0","0","0","23400","","null","","","null","19","","","","","","","","","","","","","","","",""
"","ISI","","html-keyboard-response","128","372012","0.0-1.0-174.0","0","0","23400","","null","","","null","19","NaN","","","","","","","","","","","","","","",""
"","S2","","html-keyboard-response","129","372165","0.0-1.0-175.0","0","0","23400","","null","","","null","19","","NaN","","","","","","","","","","","","","",""
"","response","","html-keyboard-response","130","372767","0.0-1.0-176.0-0.0","0","0","23400","","601","","","75","19","","","1","19","training","adjacent","BC","2","3","O.jpg","P.jpg","0","1","0","",""
"","feedback","","html-keyboard-response","131","373771","0.0-1.0-177.0-0.0","0","0","23400","","null","","","null","19","","","","","","","","","","","","","","","",""
"","time_out","","html-keyboard-response","132","375773","0.0-1.0-179.0-0.0","0","0","23400","","null","","","null","19","","","","","","","","","","","","","","","",""
"","ITI","","html-keyboard-response","133","376776","0.0-1.0-180.0","0","0","23400","","null","","","null","19","","","","","","","","","","","","","","","NaN",""
"","S1","","html-keyboard-response","134","376929","0.0-1.0-182.0","0","0","23400","","null","","","null","20","","","","","","","","","","","","","","","",""
"","ISI","","html-keyboard-response","135","378932","0.0-1.0-183.0","0","0","23400","","null","","","null","20","NaN","","","","","","","","","","","","","","",""
"","S2","","html-keyboard-response","136","379086","0.0-1.0-184.0","0","0","23400","","null","","","null","20","","NaN","","","","","","","","","","","","","",""
"","response","","html-keyboard-response","137","379749","0.0-1.0-185.0-0.0","0","0","23400","","661","","","75","20","","","1","20","training","adjacent","EF","5","6","N.jpg","Q.jpg","0","1","0","",""
"","feedback","","html-keyboard-response","138","380751","0.0-1.0-186.0-0.0","0","0","23400","","null","","","null","20","","","","","","","","","","","","","","","",""
"","time_out","","html-keyboard-response","139","382753","0.0-1.0-188.0-0.0","0","0","23400","","null","","","null","20","","","","","","","","","","","","","","","",""
"","ITI","","html-keyboard-response","140","383757","0.0-1.0-189.0","0","0","23400","","null","","","null","20","","","","","","","","","","","","","","","NaN",""
"","S1","","html-keyboard-response","141","383910","0.0-1.0-191.0","0","0","23400","","null","","","null","21","","","","","","","","","","","","","","","",""
"","ISI","","html-keyboard-response","142","385914","0.0-1.0-192.0","0","0","23400","","null","","","null","21","NaN","","","","","","","","","","","","","","",""
"","S2","","html-keyboard-response","143","386066","0.0-1.0-193.0","0","0","23400","","null","","","null","21","","NaN","","","","","","","","","","","","","",""
"","response","","html-keyboard-response","144","386839","0.0-1.0-194.0-0.0","0","0","23400","","771","","","68","21","","","1","21","training","adjacent","AB","1","2","M.jpg","O.jpg","1","1","1","",""
"","feedback","","html-keyboard-response","145","387841","0.0-1.0-195.0-0.0","0","0","23400","","null","","","null","21","","","","","","","","","","","","","","","",""
"","ITI","","html-keyboard-response","146","388843","0.0-1.0-198.0","0","0","23400","","null","","","null","21","","","","","","","","","","","","","","","NaN",""
"","S1","","html-keyboard-response","147","389008","0.0-1.0-200.0","0","0","23400","","null","","","null","22","","","","","","","","","","","","","","","",""
"","ISI","","html-keyboard-response","148","391010","0.0-1.0-201.0","0","0","23400","","null","","","null","22","NaN","","","","","","","","","","","","","","",""
"","S2","","html-keyboard-response","149","391163","0.0-1.0-202.0","0","0","23400","","null","","","null","22","","NaN","","","","","","","","","","","","","",""
"","response","","html-keyboard-response","150","391915","0.0-1.0-203.0-0.0","0","0","23400","","751","","","75","22","","","1","22","training","adjacent","EF","5","6","N.jpg","Q.jpg","0","1","0","",""
"","feedback","","html-keyboard-response","151","392918","0.0-1.0-204.0-0.0","0","0","23400","","null","","","null","22","","","","","","","","","","","","","","","",""
"","time_out","","html-keyboard-response","152","394920","0.0-1.0-206.0-0.0","0","0","23400","","null","","","null","22","","","","","","","","","","","","","","","",""
"","ITI","","html-keyboard-response","153","395922","0.0-1.0-207.0","0","0","23400","","null","","","null","22","","","","","","","","","","","","","","","NaN",""
"","S1","","html-keyboard-response","154","396075","0.0-1.0-209.0","0","0","23400","","null","","","null","23","","","","","","","","","","","","","","","",""
"","ISI","","html-keyboard-response","155","398091","0.0-1.0-210.0","0","0","23400","","null","","","null","23","NaN","","","","","","","","","","","","","","",""
"","S2","","html-keyboard-response","156","398243","0.0-1.0-211.0","0","0","23400","","null","","","null","23","","NaN","","","","","","","","","","","","","",""
"","response","","html-keyboard-response","157","398831","0.0-1.0-212.0-0.0","0","0","23400","","587","","","68","23","","","1","23","training","adjacent","CB","3","2","P.jpg","O.jpg","1","0","0","",""
"","feedback","","html-keyboard-response","158","399834","0.0-1.0-213.0-0.0","0","0","23400","","null","","","null","23","","","","","","","","","","","","","","","",""
"","time_out","","html-keyboard-response","159","401837","0.0-1.0-215.0-0.0","0","0","23400","","null","","","null","23","","","","","","","","","","","","","","","",""
"","ITI","","html-keyboard-response","160","402839","0.0-1.0-216.0","0","0","23400","","null","","","null","23","","","","","","","","","","","","","","","NaN",""
"","S1","","html-keyboard-response","161","402992","0.0-1.0-218.0","0","0","23400","","null","","","null","24","","","","","","","","","","","","","","","",""
"","ISI","","html-keyboard-response","162","404995","0.0-1.0-219.0","0","0","23400","","null","","","null","24","NaN","","","","","","","","","","","","","","",""
"","S2","","html-keyboard-response","163","405149","0.0-1.0-220.0","0","0","23400","","null","","","null","24","","NaN","","","","","","","","","","","","","",""
"","response","","html-keyboard-response","164","405723","0.0-1.0-221.0-0.0","0","0","23400","","572","","","75","24","","","1","24","training","adjacent","DC","4","3","R.jpg","P.jpg","0","0","1","",""
"","feedback","","html-keyboard-response","165","406725","0.0-1.0-222.0-0.0","0","0","23400","","null","","","null","24","","","","","","","","","","","","","","","",""
"","ITI","","html-keyboard-response","166","407728","0.0-1.0-225.0","0","0","23400","","null","","","null","24","","","","","","","","","","","","","","","NaN",""
"","S1","","html-keyboard-response","167","407881","0.0-1.0-227.0","0","0","23400","","null","","","null","25","","","","","","","","","","","","","","","",""
"","ISI","","html-keyboard-response","168","409882","0.0-1.0-228.0","0","0","23400","","null","","","null","25","NaN","","","","","","","","","","","","","","",""
"","S2","","html-keyboard-response","169","410036","0.0-1.0-229.0","0","0","23400","","null","","","null","25","","NaN","","","","","","","","","","","","","",""
"","response","","html-keyboard-response","170","410705","0.0-1.0-230.0-0.0","0","0","23400","","668","","","68","25","","","1","25","training","adjacent","CD","3","4","P.jpg","R.jpg","1","1","1","",""
"","feedback","","html-keyboard-response","171","411708","0.0-1.0-231.0-0.0","0","0","23400","","null","","","null","25","","","","","","","","","","","","","","","",""
"","ITI","","html-keyboard-response","172","412710","0.0-1.0-234.0","0","0","23400","","null","","","null","25","","","","","","","","","","","","","","","NaN",""
"","S1","","html-keyboard-response","173","412863","0.0-1.0-236.0","0","0","23400","","null","","","null","26","","","","","","","","","","","","","","","",""
"","ISI","","html-keyboard-response","174","414866","0.0-1.0-237.0","0","0","23400","","null","","","null","26","NaN","","","","","","","","","","","","","","",""
"","S2","","html-keyboard-response","175","415018","0.0-1.0-238.0","0","0","23400","","null","","","null","26","","NaN","","","","","","","","","","","","","",""
"","response","","html-keyboard-response","176","415409","0.0-1.0-239.0-0.0","0","0","23400","","390","","","75","26","","","1","26","training","adjacent","GF","7","6","L.jpg","Q.jpg","0","0","1","",""
"","feedback","","html-keyboard-response","177","416412","0.0-1.0-240.0-0.0","0","0","23400","","null","","","null","26","","","","","","","","","","","","","","","",""
"","ITI","","html-keyboard-response","178","417414","0.0-1.0-243.0","0","0","23400","","null","","","null","26","","","","","","","","","","","","","","","NaN",""
"","S1","","html-keyboard-response","179","417568","0.0-1.0-245.0","0","0","23400","","null","","","null","27","","","","","","","","","","","","","","","",""
"","ISI","","html-keyboard-response","180","419571","0.0-1.0-246.0","0","0","23400","","null","","","null","27","NaN","","","","","","","","","","","","","","",""
"","S2","","html-keyboard-response","181","419728","0.0-1.0-247.0","0","0","23400","","null","","","null","27","","NaN","","","","","","","","","","","","","",""
"","response","","html-keyboard-response","182","420542","0.0-1.0-248.0-0.0","0","0","23400","","812","","","68","27","","","1","27","training","adjacent","BA","2","1","O.jpg","M.jpg","1","0","0","",""
"","feedback","","html-keyboard-response","183","421544","0.0-1.0-249.0-0.0","0","0","23400","","null","","","null","27","","","","","","","","","","","","","","","",""
"","time_out","","html-keyboard-response","184","423546","0.0-1.0-251.0-0.0","0","0","23400","","null","","","null","27","","","","","","","","","","","","","","","",""
"","ITI","","html-keyboard-response","185","424550","0.0-1.0-252.0","0","0","23400","","null","","","null","27","","","","","","","","","","","","","","","NaN",""
"","S1","","html-keyboard-response","186","424702","0.0-1.0-254.0","0","0","23400","","null","","","null","28","","","","","","","","","","","","","","","",""
"","ISI","","html-keyboard-response","187","426704","0.0-1.0-255.0","0","0","23400","","null","","","null","28","NaN","","","","","","","","","","","","","","",""
"","S2","","html-keyboard-response","188","426857","0.0-1.0-256.0","0","0","23400","","null","","","null","28","","NaN","","","","","","","","","","","","","",""
"","response","","html-keyboard-response","189","427377","0.0-1.0-257.0-0.0","0","0","23400","","518","","","68","28","","","1","28","training","adjacent","CB","3","2","P.jpg","O.jpg","1","0","0","",""
"","feedback","","html-keyboard-response","190","428379","0.0-1.0-258.0-0.0","0","0","23400","","null","","","null","28","","","","","","","","","","","","","","","",""
"","time_out","","html-keyboard-response","191","430383","0.0-1.0-260.0-0.0","0","0","23400","","null","","","null","28","","","","","","","","","","","","","","","",""
"","ITI","","html-keyboard-response","192","431387","0.0-1.0-261.0","0","0","23400","","null","","","null","28","","","","","","","","","","","","","","","NaN",""
"","S1","","html-keyboard-response","193","431540","0.0-1.0-263.0","0","0","23400","","null","","","null","29","","","","","","","","","","","","","","","",""
"","ISI","","html-keyboard-response","194","433542","0.0-1.0-264.0","0","0","23400","","null","","","null","29","NaN","","","","","","","","","","","","","","",""
"","S2","","html-keyboard-response","195","433704","0.0-1.0-265.0","0","0","23400","","null","","","null","29","","NaN","","","","","","","","","","","","","",""
"","response","","html-keyboard-response","196","434217","0.0-1.0-266.0-0.0","0","0","23400","","512","","","68","29","","","1","29","training","adjacent","FG","6","7","Q.jpg","L.jpg","1","1","1","",""
"","feedback","","html-keyboard-response","197","435220","0.0-1.0-267.0-0.0","0","0","23400","","null","","","null","29","","","","","","","","","","","","","","","",""
"","ITI","","html-keyboard-response","198","436222","0.0-1.0-270.0","0","0","23400","","null","","","null","29","","","","","","","","","","","","","","","NaN",""
"","S1","","html-keyboard-response","199","436376","0.0-1.0-272.0","0","0","23400","","null","","","null","30","","","","","","","","","","","","","","","",""
"","ISI","","html-keyboard-response","200","438379","0.0-1.0-273.0","0","0","23400","","null","","","null","30","NaN","","","","","","","","","","","","","","",""
"","S2","","html-keyboard-response","201","438532","0.0-1.0-274.0","0","0","23400","","null","","","null","30","","NaN","","","","","","","","","","","","","",""
"","response","","html-keyboard-response","202","439660","0.0-1.0-275.0-0.0","0","0","23400","","1126","","","75","30","","","1","30","training","adjacent","DE","4","5","R.jpg","N.jpg","0","1","0","",""
"","feedback","","html-keyboard-response","203","440662","0.0-1.0-276.0-0.0","0","0","23400","","null","","","null","30","","","","","","","","","","","","","","","",""
"","time_out","","html-keyboard-response","204","442664","0.0-1.0-278.0-0.0","0","0","23400","","null","","","null","30","","","","","","","","","","","","","","","",""
"","ITI","","html-keyboard-response","205","443667","0.0-1.0-279.0","0","0","23400","","null","","","null","30","","","","","","","","","","","","","","","NaN",""
"","S1","","html-keyboard-response","206","443820","0.0-1.0-281.0","0","0","23400","","null","","","null","31","","","","","","","","","","","","","","","",""
"","ISI","","html-keyboard-response","207","445823","0.0-1.0-282.0","0","0","23400","","null","","","null","31","NaN","","","","","","","","","","","","","","",""
"","S2","","html-keyboard-response","208","445976","0.0-1.0-283.0","0","0","23400","","null","","","null","31","","NaN","","","","","","","","","","","","","",""
"","response","","html-keyboard-response","209","446238","0.0-1.0-284.0-0.0","0","0","23400","","261","","","75","31","","","1","31","training","adjacent","FE","6","5","Q.jpg","N.jpg","0","0","1","",""
"","feedback","","html-keyboard-response","210","447242","0.0-1.0-285.0-0.0","0","0","23400","","null","","","null","31","","","","","","","","","","","","","","","",""
"","ITI","","html-keyboard-response","211","448245","0.0-1.0-288.0","0","0","23400","","null","","","null","31","","","","","","","","","","","","","","","NaN",""
"","S1","","html-keyboard-response","212","448398","0.0-1.0-290.0","0","0","23400","","null","","","null","32","","","","","","","","","","","","","","","",""
"","ISI","","html-keyboard-response","213","450400","0.0-1.0-291.0","0","0","23400","","null","","","null","32","NaN","","","","","","","","","","","","","","",""
"","S2","","html-keyboard-response","214","450552","0.0-1.0-292.0","0","0","23400","","null","","","null","32","","NaN","","","","","","","","","","","","","",""
"","response","","html-keyboard-response","215","450917","0.0-1.0-293.0-0.0","0","0","23400","","364","","","68","32","","","1","32","training","adjacent","ED","5","4","N.jpg","R.jpg","1","0","0","",""
"","feedback","","html-keyboard-response","216","451920","0.0-1.0-294.0-0.0","0","0","23400","","null","","","null","32","","","","","","","","","","","","","","","",""
"","time_out","","html-keyboard-response","217","453923","0.0-1.0-296.0-0.0","0","0","23400","","null","","","null","32","","","","","","","","","","","","","","","",""
"","ITI","","html-keyboard-response","218","454926","0.0-1.0-297.0","0","0","23400","","null","","","null","32","","","","","","","","","","","","","","","NaN",""
"","S1","","html-keyboard-response","219","455079","0.0-1.0-299.0","0","0","23400","","null","","","null","33","","","","","","","","","","","","","","","",""
"","ISI","","html-keyboard-response","220","457083","0.0-1.0-300.0","0","0","23400","","null","","","null","33","NaN","","","","","","","","","","","","","","",""
"","S2","","html-keyboard-response","221","457236","0.0-1.0-301.0","0","0","23400","","null","","","null","33","","NaN","","","","","","","","","","","","","",""
"","response","","html-keyboard-response","222","457958","0.0-1.0-302.0-0.0","0","0","23400","","721","","","68","33","","","1","33","training","adjacent","FG","6","7","Q.jpg","L.jpg","1","1","1","",""
"","feedback","","html-keyboard-response","223","458960","0.0-1.0-303.0-0.0","0","0","23400","","null","","","null","33","","","","","","","","","","","","","","","",""
"","ITI","","html-keyboard-response","224","459963","0.0-1.0-306.0","0","0","23400","","null","","","null","33","","","","","","","","","","","","","","","NaN",""
"","S1","","html-keyboard-response","225","460115","0.0-1.0-308.0","0","0","23400","","null","","","null","34","","","","","","","","","","","","","","","",""
"","ISI","","html-keyboard-response","226","462117","0.0-1.0-309.0","0","0","23400","","null","","","null","34","NaN","","","","","","","","","","","","","","",""
"","S2","","html-keyboard-response","227","462270","0.0-1.0-310.0","0","0","23400","","null","","","null","34","","NaN","","","","","","","","","","","","","",""
"","response","","html-keyboard-response","228","462903","0.0-1.0-311.0-0.0","0","0","23400","","631","","","68","34","","","1","34","training","adjacent","BA","2","1","O.jpg","M.jpg","1","0","0","",""
"","feedback","","html-keyboard-response","229","463906","0.0-1.0-312.0-0.0","0","0","23400","","null","","","null","34","","","","","","","","","","","","","","","",""
"","time_out","","html-keyboard-response","230","465908","0.0-1.0-314.0-0.0","0","0","23400","","null","","","null","34","","","","","","","","","","","","","","","",""
"","ITI","","html-keyboard-response","231","466911","0.0-1.0-315.0","0","0","23400","","null","","","null","34","","","","","","","","","","","","","","","NaN",""
"","S1","","html-keyboard-response","232","467063","0.0-1.0-317.0","0","0","23400","","null","","","null","35","","","","","","","","","","","","","","","",""
"","ISI","","html-keyboard-response","233","469065","0.0-1.0-318.0","0","0","23400","","null","","","null","35","NaN","","","","","","","","","","","","","","",""
"","S2","","html-keyboard-response","234","469218","0.0-1.0-319.0","0","0","23400","","null","","","null","35","","NaN","","","","","","","","","","","","","",""
"","response","","html-keyboard-response","235","469883","0.0-1.0-320.0-0.0","0","0","23400","","663","","","68","35","","","1","35","training","adjacent","EF","5","6","N.jpg","Q.jpg","1","1","1","",""
"","feedback","","html-keyboard-response","236","470886","0.0-1.0-321.0-0.0","0","0","23400","","null","","","null","35","","","","","","","","","","","","","","","",""
"","ITI","","html-keyboard-response","237","471889","0.0-1.0-324.0","0","0","23400","","null","","","null","35","","","","","","","","","","","","","","","NaN",""
"","S1","","html-keyboard-response","238","472042","0.0-1.0-326.0","0","0","23400","","null","","","null","36","","","","","","","","","","","","","","","",""
"","ISI","","html-keyboard-response","239","474044","0.0-1.0-327.0","0","0","23400","","null","","","null","36","NaN","","","","","","","","","","","","","","",""
"","S2","","html-keyboard-response","240","474197","0.0-1.0-328.0","0","0","23400","","null","","","null","36","","NaN","","","","","","","","","","","","","",""
"","response","","html-keyboard-response","241","475715","0.0-1.0-329.0-0.0","0","0","23400","","1516","","","68","36","","","1","36","training","adjacent","ED","5","4","N.jpg","R.jpg","1","0","0","",""
"","feedback","","html-keyboard-response","242","476718","0.0-1.0-330.0-0.0","0","0","23400","","null","","","null","36","","","","","","","","","","","","","","","",""
"","time_out","","html-keyboard-response","243","478721","0.0-1.0-332.0-0.0","0","0","23400","","null","","","null","36","","","","","","","","","","","","","","","",""
"","ITI","","html-keyboard-response","244","479723","0.0-1.0-333.0","0","0","23400","","null","","","null","36","","","","","","","","","","","","","","","NaN",""
"","S1","","html-keyboard-response","245","479875","0.0-1.0-335.0","0","0","23400","","null","","","null","37","","","","","","","","","","","","","","","",""
"","ISI","","html-keyboard-response","246","481878","0.0-1.0-336.0","0","0","23400","","null","","","null","37","NaN","","","","","","","","","","","","","","",""
"","S2","","html-keyboard-response","247","482030","0.0-1.0-337.0","0","0","23400","","null","","","null","37","","NaN","","","","","","","","","","","","","",""
"","response","","html-keyboard-response","248","483434","0.0-1.0-338.0-0.0","0","0","23400","","1402","","","68","37","","","1","37","training","adjacent","CB","3","2","P.jpg","O.jpg","1","0","0","",""
"","feedback","","html-keyboard-response","249","484436","0.0-1.0-339.0-0.0","0","0","23400","","null","","","null","37","","","","","","","","","","","","","","","",""
"","time_out","","html-keyboard-response","250","486439","0.0-1.0-341.0-0.0","0","0","23400","","null","","","null","37","","","","","","","","","","","","","","","",""
"","ITI","","html-keyboard-response","251","487442","0.0-1.0-342.0","0","0","23400","","null","","","null","37","","","","","","","","","","","","","","","NaN",""
"","S1","","html-keyboard-response","252","487599","0.0-1.0-344.0","0","0","23400","","null","","","null","38","","","","","","","","","","","","","","","",""
"","ISI","","html-keyboard-response","253","489601","0.0-1.0-345.0","0","0","23400","","null","","","null","38","NaN","","","","","","","","","","","","","","",""
"","S2","","html-keyboard-response","254","489754","0.0-1.0-346.0","0","0","23400","","null","","","null","38","","NaN","","","","","","","","","","","","","",""
"","response","","html-keyboard-response","255","490565","0.0-1.0-347.0-0.0","0","0","23400","","810","","","68","38","","","1","38","training","adjacent","AB","1","2","M.jpg","O.jpg","1","1","1","",""
"","feedback","","html-keyboard-response","256","491568","0.0-1.0-348.0-0.0","0","0","23400","","null","","","null","38","","","","","","","","","","","","","","","",""
"","ITI","","html-keyboard-response","257","492571","0.0-1.0-351.0","0","0","23400","","null","","","null","38","","","","","","","","","","","","","","","NaN",""
"","S1","","html-keyboard-response","258","492724","0.0-1.0-353.0","0","0","23400","","null","","","null","39","","","","","","","","","","","","","","","",""
"","ISI","","html-keyboard-response","259","494726","0.0-1.0-354.0","0","0","23400","","null","","","null","39","NaN","","","","","","","","","","","","","","",""
"","S2","","html-keyboard-response","260","494879","0.0-1.0-355.0","0","0","23400","","null","","","null","39","","NaN","","","","","","","","","","","","","",""
"","response","","html-keyboard-response","261","496112","0.0-1.0-356.0-0.0","0","0","23400","","1232","","","68","39","","","1","39","training","adjacent","DE","4","5","R.jpg","N.jpg","1","1","1","",""
"","feedback","","html-keyboard-response","262","497115","0.0-1.0-357.0-0.0","0","0","23400","","null","","","null","39","","","","","","","","","","","","","","","",""
"","ITI","","html-keyboard-response","263","498117","0.0-1.0-360.0","0","0","23400","","null","","","null","39","","","","","","","","","","","","","","","NaN",""
"","S1","","html-keyboard-response","264","498271","0.0-1.0-362.0","0","0","23400","","null","","","null","40","","","","","","","","","","","","","","","",""
"","ISI","","html-keyboard-response","265","500273","0.0-1.0-363.0","0","0","23400","","null","","","null","40","NaN","","","","","","","","","","","","","","",""
"","S2","","html-keyboard-response","266","500425","0.0-1.0-364.0","0","0","23400","","null","","","null","40","","NaN","","","","","","","","","","","","","",""
"","response","","html-keyboard-response","267","500979","0.0-1.0-365.0-0.0","0","0","23400","","553","","","75","40","","","1","40","training","adjacent","DE","4","5","R.jpg","N.jpg","0","1","0","",""
"","feedback","","html-keyboard-response","268","501983","0.0-1.0-366.0-0.0","0","0","23400","","null","","","null","40","","","","","","","","","","","","","","","",""
"","time_out","","html-keyboard-response","269","503987","0.0-1.0-368.0-0.0","0","0","23400","","null","","","null","40","","","","","","","","","","","","","","","",""
"","ITI","","html-keyboard-response","270","504989","0.0-1.0-369.0","0","0","23400","","null","","","null","40","","","","","","","","","","","","","","","NaN",""
"","S1","","html-keyboard-response","271","505142","0.0-1.0-371.0","0","0","23400","","null","","","null","41","","","","","","","","","","","","","","","",""
"","ISI","","html-keyboard-response","272","507146","0.0-1.0-372.0","0","0","23400","","null","","","null","41","NaN","","","","","","","","","","","","","","",""
"","S2","","html-keyboard-response","273","507298","0.0-1.0-373.0","0","0","23400","","null","","","null","41","","NaN","","","","","","","","","","","","","",""
"","response","","html-keyboard-response","274","508070","0.0-1.0-374.0-0.0","0","0","23400","","769","","","68","41","","","1","41","training","adjacent","BA","2","1","O.jpg","M.jpg","1","0","0","",""
"","feedback","","html-keyboard-response","275","509072","0.0-1.0-375.0-0.0","0","0","23400","","null","","","null","41","","","","","","","","","","","","","","","",""
"","time_out","","html-keyboard-response","276","511075","0.0-1.0-377.0-0.0","0","0","23400","","null","","","null","41","","","","","","","","","","","","","","","",""
"","ITI","","html-keyboard-response","277","512077","0.0-1.0-378.0","0","0","23400","","null","","","null","41","","","","","","","","","","","","","","","NaN",""
"","S1","","html-keyboard-response","278","512229","0.0-1.0-380.0","0","0","23400","","null","","","null","42","","","","","","","","","","","","","","","",""
"","ISI","","html-keyboard-response","279","514232","0.0-1.0-381.0","0","0","23400","","1437","","","75","42","k","","","","","","","","","","","","","","",""
"","S2","","html-keyboard-response","280","514385","0.0-1.0-382.0","0","0","23400","","null","","","null","42","","NaN","","","","","","","","","","","","","",""
"","response","","html-keyboard-response","281","515260","0.0-1.0-383.0-0.0","0","0","23400","","872","","","75","42","","","1","42","training","adjacent","ED","5","4","N.jpg","R.jpg","0","0","1","",""
"","feedback","","html-keyboard-response","282","516263","0.0-1.0-384.0-0.0","0","0","23400","","null","","","null","42","","","","","","","","","","","","","","","",""
"","ITI","","html-keyboard-response","283","517265","0.0-1.0-387.0","0","0","23400","","null","","","null","42","","","","","","","","","","","","","","","NaN",""
"","S1","","html-keyboard-response","284","517418","0.0-1.0-389.0","0","0","23400","","null","","","null","43","","","","","","","","","","","","","","","",""
"","ISI","","html-keyboard-response","285","519420","0.0-1.0-390.0","0","0","23400","","1756","","","75","43","k","","","","","","","","","","","","","","",""
"","S2","","html-keyboard-response","286","519572","0.0-1.0-391.0","0","0","23400","","null","","","null","43","","NaN","","","","","","","","","","","","","",""
"","response","","html-keyboard-response","287","520596","0.0-1.0-392.0-0.0","0","0","23400","","1021","","","75","43","","","1","43","training","adjacent","FE","6","5","Q.jpg","N.jpg","0","0","1","",""
"","feedback","","html-keyboard-response","288","521598","0.0-1.0-393.0-0.0","0","0","23400","","null","","","null","43","","","","","","","","","","","","","","","",""
"","ITI","","html-keyboard-response","289","522608","0.0-1.0-396.0","0","0","23400","","null","","","null","43","","","","","","","","","","","","","","","NaN",""
"","S1","","html-keyboard-response","290","522760","0.0-1.0-398.0","0","0","23400","","null","","","null","44","","","","","","","","","","","","","","","",""
"","ISI","","html-keyboard-response","291","524763","0.0-1.0-399.0","0","0","23400","","null","","","null","44","NaN","","","","","","","","","","","","","","",""
"","S2","","html-keyboard-response","292","524916","0.0-1.0-400.0","0","0","23400","","null","","","null","44","","NaN","","","","","","","","","","","","","",""
"","response","","html-keyboard-response","293","526366","0.0-1.0-401.0-0.0","0","0","23400","","1449","","","68","44","","","1","44","training","adjacent","BA","2","1","O.jpg","M.jpg","1","0","0","",""
"","feedback","","html-keyboard-response","294","527369","0.0-1.0-402.0-0.0","0","0","23400","","null","","","null","44","","","","","","","","","","","","","","","",""
"","time_out","","html-keyboard-response","295","529372","0.0-1.0-404.0-0.0","0","0","23400","","null","","","null","44","","","","","","","","","","","","","","","",""
"","ITI","","html-keyboard-response","296","530374","0.0-1.0-405.0","0","0","23400","","null","","","null","44","","","","","","","","","","","","","","","NaN",""
"","S1","","html-keyboard-response","297","530526","0.0-1.0-407.0","0","0","23400","","null","","","null","45","","","","","","","","","","","","","","","",""
"","ISI","","html-keyboard-response","298","532528","0.0-1.0-408.0","0","0","23400","","1939","","","75","45","k","","","","","","","","","","","","","","",""
"","S2","","html-keyboard-response","299","532680","0.0-1.0-409.0","0","0","23400","","null","","","null","45","","NaN","","","","","","","","","","","","","",""
"","response","","html-keyboard-response","300","533895","0.0-1.0-410.0-0.0","0","0","23400","","1212","","","75","45","","","1","45","training","adjacent","BC","2","3","O.jpg","P.jpg","0","1","0","",""
"","feedback","","html-keyboard-response","301","534898","0.0-1.0-411.0-0.0","0","0","23400","","null","","","null","45","","","","","","","","","","","","","","","",""
"","time_out","","html-keyboard-response","302","536902","0.0-1.0-413.0-0.0","0","0","23400","","null","","","null","45","","","","","","","","","","","","","","","",""
"","ITI","","html-keyboard-response","303","537904","0.0-1.0-414.0","0","0","23400","","null","","","null","45","","","","","","","","","","","","","","","NaN",""
"","S1","","html-keyboard-response","304","538056","0.0-1.0-416.0","0","0","23400","","null","","","null","46","","","","","","","","","","","","","","","",""
"","ISI","","html-keyboard-response","305","540059","0.0-1.0-417.0","0","0","23400","","null","","","null","46","NaN","","","","","","","","","","","","","","",""
"","S2","","html-keyboard-response","306","540212","0.0-1.0-418.0","0","0","23400","","null","","","null","46","","NaN","","","","","","","","","","","","","",""
"","response","","html-keyboard-response","307","541416","0.0-1.0-419.0-0.0","0","0","23400","","1203","","","68","46","","","1","46","training","adjacent","FG","6","7","Q.jpg","L.jpg","1","1","1","",""
"","feedback","","html-keyboard-response","308","542419","0.0-1.0-420.0-0.0","0","0","23400","","null","","","null","46","","","","","","","","","","","","","","","",""
"","ITI","","html-keyboard-response","309","543421","0.0-1.0-423.0","0","0","23400","","null","","","null","46","","","","","","","","","","","","","","","NaN",""
"","S1","","html-keyboard-response","310","543574","0.0-1.0-425.0","0","0","23400","","null","","","null","47","","","","","","","","","","","","","","","",""
"","ISI","","html-keyboard-response","311","545576","0.0-1.0-426.0","0","0","23400","","null","","","null","47","NaN","","","","","","","","","","","","","","",""
"","S2","","html-keyboard-response","312","545729","0.0-1.0-427.0","0","0","23400","","null","","","null","47","","NaN","","","","","","","","","","","","","",""
"","response","","html-keyboard-response","313","547582","0.0-1.0-428.0-0.0","0","0","23400","","null","","","null","47","","","1","47","training","adjacent","CD","3","4","P.jpg","R.jpg","NaN","1","0","",""
"","too_slow_prompt","","html-keyboard-response","314","548584","0.0-1.0-430.0-0.0","1","0","23400","","null","","","null","","","","","","","","","","","","","","","","",""
"","time_out","","html-keyboard-response","315","550587","0.0-1.0-431.0-0.0","0","0","23400","","null","","","null","47","","","","","","","","","","","","","","","",""
"","ITI","","html-keyboard-response","316","551589","0.0-1.0-432.0","0","0","23400","","null","","","null","47","","","","","","","","","","","","","","","NaN",""
"","block_over","","html-keyboard-response","317","560127","0.0-1.0-433.0-0.0","0","0","23400","","8536","","","32","47","","","","","","","","","","","","","","","",""
"","S1","","html-keyboard-response","318","560281","0.0-1.0-434.0","0","0","23400","","null","","","null","48","","","","","","","","","","","","","","","",""
"","ISI","","html-keyboard-response","319","562283","0.0-1.0-435.0","0","0","23400","","null","","","null","48","NaN","","","","","","","","","","","","","","",""
"","S2","","html-keyboard-response","320","562436","0.0-1.0-436.0","0","0","23400","","null","","","null","48","","NaN","","","","","","","","","","","","","",""
"","response","","html-keyboard-response","321","563626","0.0-1.0-437.0-0.0","0","0","23400","","1189","","","75","48","","","2","48","training","adjacent","ED","5","4","N.jpg","R.jpg","0","0","1","",""
"","feedback","","html-keyboard-response","322","564629","0.0-1.0-438.0-0.0","0","0","23400","","null","","","null","48","","","","","","","","","","","","","","","",""
"","ITI","","html-keyboard-response","323","565632","0.0-1.0-441.0","0","0","23400","","null","","","null","48","","","","","","","","","","","","","","","NaN",""
"","S1","","html-keyboard-response","324","565792","0.0-1.0-443.0","0","0","23400","","null","","","null","49","","","","","","","","","","","","","","","",""
"","ISI","","html-keyboard-response","325","567794","0.0-1.0-444.0","0","0","23400","","null","","","null","49","NaN","","","","","","","","","","","","","","",""
"","S2","","html-keyboard-response","326","567948","0.0-1.0-445.0","0","0","23400","","null","","","null","49","","NaN","","","","","","","","","","","","","",""
"","response","","html-keyboard-response","327","569009","0.0-1.0-446.0-0.0","0","0","23400","","1060","","","68","49","","","2","49","training","adjacent","AB","1","2","M.jpg","O.jpg","1","1","1","",""
"","feedback","","html-keyboard-response","328","570011","0.0-1.0-447.0-0.0","0","0","23400","","null","","","null","49","","","","","","","","","","","","","","","",""
"","ITI","","html-keyboard-response","329","571013","0.0-1.0-450.0","0","0","23400","","null","","","null","49","","","","","","","","","","","","","","","NaN",""
"","S1","","html-keyboard-response","330","571164","0.0-1.0-452.0","0","0","23400","","null","","","null","50","","","","","","","","","","","","","","","",""
"","ISI","","html-keyboard-response","331","573166","0.0-1.0-453.0","0","0","23400","","null","","","null","50","NaN","","","","","","","","","","","","","","",""
"","S2","","html-keyboard-response","332","573319","0.0-1.0-454.0","0","0","23400","","null","","","null","50","","NaN","","","","","","","","","","","","","",""
"","response","","html-keyboard-response","333","574065","0.0-1.0-455.0-0.0","0","0","23400","","744","","","75","50","","","2","50","training","adjacent","EF","5","6","N.jpg","Q.jpg","0","1","0","",""
"","feedback","","html-keyboard-response","334","575068","0.0-1.0-456.0-0.0","0","0","23400","","null","","","null","50","","","","","","","","","","","","","","","",""
"","time_out","","html-keyboard-response","335","577071","0.0-1.0-458.0-0.0","0","0","23400","","null","","","null","50","","","","","","","","","","","","","","","",""
"","ITI","","html-keyboard-response","336","578073","0.0-1.0-459.0","0","0","23400","","null","","","null","50","","","","","","","","","","","","","","","NaN",""
"","S1","","html-keyboard-response","337","578226","0.0-1.0-461.0","0","0","23400","","null","","","null","51","","","","","","","","","","","","","","","",""
"","ISI","","html-keyboard-response","338","580228","0.0-1.0-462.0","0","0","23400","","null","","","null","51","NaN","","","","","","","","","","","","","","",""
"","S2","","html-keyboard-response","339","580380","0.0-1.0-463.0","0","0","23400","","null","","","null","51","","NaN","","","","","","","","","","","","","",""
"","response","","html-keyboard-response","340","581052","0.0-1.0-464.0-0.0","0","0","23400","","670","","","75","51","","","2","51","training","adjacent","BA","2","1","O.jpg","M.jpg","0","0","1","",""
"","feedback","","html-keyboard-response","341","582055","0.0-1.0-465.0-0.0","0","0","23400","","null","","","null","51","","","","","","","","","","","","","","","",""
"","ITI","","html-keyboard-response","342","583057","0.0-1.0-468.0","0","0","23400","","null","","","null","51","","","","","","","","","","","","","","","NaN",""
"","S1","","html-keyboard-response","343","583210","0.0-1.0-470.0","0","0","23400","","null","","","null","52","","","","","","","","","","","","","","","",""
"","ISI","","html-keyboard-response","344","585213","0.0-1.0-471.0","0","0","23400","","null","","","null","52","NaN","","","","","","","","","","","","","","",""
"","S2","","html-keyboard-response","345","585366","0.0-1.0-472.0","0","0","23400","","null","","","null","52","","NaN","","","","","","","","","","","","","",""
"","response","","html-keyboard-response","346","587137","0.0-1.0-473.0-0.0","0","0","23400","","1769","","","68","52","","","2","52","training","adjacent","FG","6","7","Q.jpg","L.jpg","1","1","1","",""
"","feedback","","html-keyboard-response","347","588139","0.0-1.0-474.0-0.0","0","0","23400","","null","","","null","52","","","","","","","","","","","","","","","",""
"","ITI","","html-keyboard-response","348","589141","0.0-1.0-477.0","0","0","23400","","null","","","null","52","","","","","","","","","","","","","","","NaN",""
"","S1","","html-keyboard-response","349","589307","0.0-1.0-479.0","0","0","23400","","null","","","null","53","","","","","","","","","","","","","","","",""
"","ISI","","html-keyboard-response","350","591309","0.0-1.0-480.0","0","0","23400","","null","","","null","53","NaN","","","","","","","","","","","","","","",""
"","S2","","html-keyboard-response","351","591461","0.0-1.0-481.0","0","0","23400","","null","","","null","53","","NaN","","","","","","","","","","","","","",""
"","response","","html-keyboard-response","352","592289","0.0-1.0-482.0-0.0","0","0","23400","","826","","","68","53","","","2","53","training","adjacent","ED","5","4","N.jpg","R.jpg","1","0","0","",""
"","feedback","","html-keyboard-response","353","593293","0.0-1.0-483.0-0.0","0","0","23400","","null","","","null","53","","","","","","","","","","","","","","","",""
"","time_out","","html-keyboard-response","354","595295","0.0-1.0-485.0-0.0","0","0","23400","","null","","","null","53","","","","","","","","","","","","","","","",""
"","ITI","","html-keyboard-response","355","596298","0.0-1.0-486.0","0","0","23400","","null","","","null","53","","","","","","","","","","","","","","","NaN",""
"","S1","","html-keyboard-response","356","596450","0.0-1.0-488.0","0","0","23400","","null","","","null","54","","","","","","","","","","","","","","","",""
"","ISI","","html-keyboard-response","357","598452","0.0-1.0-489.0","0","0","23400","","null","","","null","54","NaN","","","","","","","","","","","","","","",""
"","S2","","html-keyboard-response","358","598605","0.0-1.0-490.0","0","0","23400","","null","","","null","54","","NaN","","","","","","","","","","","","","",""
"","response","","html-keyboard-response","359","600273","0.0-1.0-491.0-0.0","0","0","23400","","1667","","","75","54","","","2","54","training","adjacent","FE","6","5","Q.jpg","N.jpg","0","0","1","",""
"","feedback","","html-keyboard-response","360","601276","0.0-1.0-492.0-0.0","0","0","23400","","null","","","null","54","","","","","","","","","","","","","","","",""
"","ITI","","html-keyboard-response","361","602279","0.0-1.0-495.0","0","0","23400","","null","","","null","54","","","","","","","","","","","","","","","NaN",""
"","S1","","html-keyboard-response","362","602432","0.0-1.0-497.0","0","0","23400","","null","","","null","55","","","","","","","","","","","","","","","",""
"","ISI","","html-keyboard-response","363","604434","0.0-1.0-498.0","0","0","23400","","null","","","null","55","NaN","","","","","","","","","","","","","","",""
"","S2","","html-keyboard-response","364","604586","0.0-1.0-499.0","0","0","23400","","null","","","null","55","","NaN","","","","","","","","","","","","","",""
"","response","","html-keyboard-response","365","606439","0.0-1.0-500.0-0.0","0","0","23400","","null","","","null","55","","","2","55","training","adjacent","DE","4","5","R.jpg","N.jpg","NaN","1","0","",""
"","too_slow_prompt","","html-keyboard-response","366","607442","0.0-1.0-502.0-0.0","1","0","23400","","null","","","null","","","","","","","","","","","","","","","","",""
"","time_out","","html-keyboard-response","367","609444","0.0-1.0-503.0-0.0","0","0","23400","","null","","","null","55","","","","","","","","","","","","","","","",""
"","ITI","","html-keyboard-response","368","610447","0.0-1.0-504.0","0","0","23400","","null","","","null","55","","","","","","","","","","","","","","","NaN",""
"","S1","","html-keyboard-response","369","610599","0.0-1.0-506.0","0","0","23400","","null","","","null","56","","","","","","","","","","","","","","","",""
"","ISI","","html-keyboard-response","370","612601","0.0-1.0-507.0","0","0","23400","","1857","","","75","56","k","","","","","","","","","","","","","","",""
"","S2","","html-keyboard-response","371","612754","0.0-1.0-508.0","0","0","23400","","null","","","null","56","","NaN","","","","","","","","","","","","","",""
"","response","","html-keyboard-response","372","613618","0.0-1.0-509.0-0.0","0","0","23400","","862","","","75","56","","","2","56","training","adjacent","CB","3","2","P.jpg","O.jpg","0","0","1","",""
"","feedback","","html-keyboard-response","373","614621","0.0-1.0-510.0-0.0","0","0","23400","","null","","","null","56","","","","","","","","","","","","","","","",""
"","ITI","","html-keyboard-response","374","615624","0.0-1.0-513.0","0","0","23400","","null","","","null","56","","","","","","","","","","","","","","","NaN",""
"","S1","","html-keyboard-response","375","615777","0.0-1.0-515.0","0","0","23400","","null","","","null","57","","","","","","","","","","","","","","","",""
"","ISI","","html-keyboard-response","376","617780","0.0-1.0-516.0","0","0","23400","","null","","","null","57","NaN","","","","","","","","","","","","","","",""
"","S2","","html-keyboard-response","377","617933","0.0-1.0-517.0","0","0","23400","","null","","","null","57","","NaN","","","","","","","","","","","","","",""
"","response","","html-keyboard-response","378","619786","0.0-1.0-518.0-0.0","0","0","23400","","null","","","null","57","","","2","57","training","adjacent","AB","1","2","M.jpg","O.jpg","NaN","1","0","",""
"","too_slow_prompt","","html-keyboard-response","379","620789","0.0-1.0-520.0-0.0","1","0","23400","","null","","","null","","","","","","","","","","","","","","","","",""
"","time_out","","html-keyboard-response","380","622791","0.0-1.0-521.0-0.0","0","0","23400","","null","","","null","57","","","","","","","","","","","","","","","",""
"","ITI","","html-keyboard-response","381","623794","0.0-1.0-522.0","0","0","23400","","600","","","75","57","","","","","","","","","","","","","","","k",""
"","S1","","html-keyboard-response","382","623947","0.0-1.0-524.0","0","0","23400","","null","","","null","58","","","","","","","","","","","","","","","",""
"","ISI","","html-keyboard-response","383","625949","0.0-1.0-525.0","0","0","23400","","null","","","null","58","NaN","","","","","","","","","","","","","","",""
"","S2","","html-keyboard-response","384","626103","0.0-1.0-526.0","0","0","23400","","null","","","null","58","","NaN","","","","","","","","","","","","","",""
"","response","","html-keyboard-response","385","626814","0.0-1.0-527.0-0.0","0","0","23400","","708","","","68","58","","","2","58","training","adjacent","EF","5","6","N.jpg","Q.jpg","1","1","1","",""
"","feedback","","html-keyboard-response","386","627817","0.0-1.0-528.0-0.0","0","0","23400","","null","","","null","58","","","","","","","","","","","","","","","",""
"","ITI","","html-keyboard-response","387","628819","0.0-1.0-531.0","0","0","23400","","null","","","null","58","","","","","","","","","","","","","","","NaN",""
"","S1","","html-keyboard-response","388","628972","0.0-1.0-533.0","0","0","23400","","null","","","null","59","","","","","","","","","","","","","","","",""
"","ISI","","html-keyboard-response","389","630974","0.0-1.0-534.0","0","0","23400","","null","","","null","59","NaN","","","","","","","","","","","","","","",""
"","S2","","html-keyboard-response","390","631128","0.0-1.0-535.0","0","0","23400","","null","","","null","59","","NaN","","","","","","","","","","","","","",""
"","response","","html-keyboard-response","391","631740","0.0-1.0-536.0-0.0","0","0","23400","","610","","","75","59","","","2","59","training","adjacent","DE","4","5","R.jpg","N.jpg","0","1","0","",""
"","feedback","","html-keyboard-response","392","632742","0.0-1.0-537.0-0.0","0","0","23400","","null","","","null","59","","","","","","","","","","","","","","","",""
"","time_out","","html-keyboard-response","393","634745","0.0-1.0-539.0-0.0","0","0","23400","","null","","","null","59","","","","","","","","","","","","","","","",""
"","ITI","","html-keyboard-response","394","635746","0.0-1.0-540.0","0","0","23400","","null","","","null","59","","","","","","","","","","","","","","","NaN",""
"","S1","","html-keyboard-response","395","635899","0.0-1.0-542.0","0","0","23400","","null","","","null","60","","","","","","","","","","","","","","","",""
"","ISI","","html-keyboard-response","396","637903","0.0-1.0-543.0","0","0","23400","","null","","","null","60","NaN","","","","","","","","","","","","","","",""
"","S2","","html-keyboard-response","397","638059","0.0-1.0-544.0","0","0","23400","","null","","","null","60","","NaN","","","","","","","","","","","","","",""
"","response","","html-keyboard-response","398","638558","0.0-1.0-545.0-0.0","0","0","23400","","497","","","68","60","","","2","60","training","adjacent","FG","6","7","Q.jpg","L.jpg","1","1","1","",""
"","feedback","","html-keyboard-response","399","639561","0.0-1.0-546.0-0.0","0","0","23400","","null","","","null","60","","","","","","","","","","","","","","","",""
"","ITI","","html-keyboard-response","400","640563","0.0-1.0-549.0","0","0","23400","","null","","","null","60","","","","","","","","","","","","","","","NaN",""
"","S1","","html-keyboard-response","401","640716","0.0-1.0-551.0","0","0","23400","","null","","","null","61","","","","","","","","","","","","","","","",""
"","ISI","","html-keyboard-response","402","642721","0.0-1.0-552.0","0","0","23400","","null","","","null","61","NaN","","","","","","","","","","","","","","",""
"","S2","","html-keyboard-response","403","642874","0.0-1.0-553.0","0","0","23400","","null","","","null","61","","NaN","","","","","","","","","","","","","",""
"","response","","html-keyboard-response","404","643452","0.0-1.0-554.0-0.0","0","0","23400","","576","","","75","61","","","2","61","training","adjacent","BA","2","1","O.jpg","M.jpg","0","0","1","",""
"","feedback","","html-keyboard-response","405","644454","0.0-1.0-555.0-0.0","0","0","23400","","null","","","null","61","","","","","","","","","","","","","","","",""
"","ITI","","html-keyboard-response","406","645457","0.0-1.0-558.0","0","0","23400","","null","","","null","61","","","","","","","","","","","","","","","NaN",""
"","S1","","html-keyboard-response","407","645609","0.0-1.0-560.0","0","0","23400","","null","","","null","62","","","","","","","","","","","","","","","",""
"","ISI","","html-keyboard-response","408","647611","0.0-1.0-561.0","0","0","23400","","null","","","null","62","NaN","","","","","","","","","","","","","","",""
"","S2","","html-keyboard-response","409","647764","0.0-1.0-562.0","0","0","23400","","null","","","null","62","","NaN","","","","","","","","","","","","","",""
"","response","","html-keyboard-response","410","649082","0.0-1.0-563.0-0.0","0","0","23400","","1315","","","68","62","","","2","62","training","adjacent","DC","4","3","R.jpg","P.jpg","1","0","0","",""
"","feedback","","html-keyboard-response","411","650085","0.0-1.0-564.0-0.0","0","0","23400","","null","","","null","62","","","","","","","","","","","","","","","",""
"","time_out","","html-keyboard-response","412","652087","0.0-1.0-566.0-0.0","0","0","23400","","null","","","null","62","","","","","","","","","","","","","","","",""
"","ITI","","html-keyboard-response","413","653090","0.0-1.0-567.0","0","0","23400","","null","","","null","62","","","","","","","","","","","","","","","NaN",""
"","S1","","html-keyboard-response","414","653242","0.0-1.0-569.0","0","0","23400","","null","","","null","63","","","","","","","","","","","","","","","",""
"","ISI","","html-keyboard-response","415","655245","0.0-1.0-570.0","0","0","23400","","null","","","null","63","NaN","","","","","","","","","","","","","","",""
"","S2","","html-keyboard-response","416","655397","0.0-1.0-571.0","0","0","23400","","null","","","null","63","","NaN","","","","","","","","","","","","","",""
"","response","","html-keyboard-response","417","655954","0.0-1.0-572.0-0.0","0","0","23400","","555","","","75","63","","","2","63","training","adjacent","BC","2","3","O.jpg","P.jpg","0","1","0","",""
"","feedback","","html-keyboard-response","418","656957","0.0-1.0-573.0-0.0","0","0","23400","","null","","","null","63","","","","","","","","","","","","","","","",""
"","time_out","","html-keyboard-response","419","658960","0.0-1.0-575.0-0.0","0","0","23400","","null","","","null","63","","","","","","","","","","","","","","","",""
"","ITI","","html-keyboard-response","420","659962","0.0-1.0-576.0","0","0","23400","","null","","","null","63","","","","","","","","","","","","","","","NaN",""
"","S1","","html-keyboard-response","421","660115","0.0-1.0-578.0","0","0","23400","","null","","","null","64","","","","","","","","","","","","","","","",""
"","ISI","","html-keyboard-response","422","662117","0.0-1.0-579.0","0","0","23400","","null","","","null","64","NaN","","","","","","","","","","","","","","",""
"","S2","","html-keyboard-response","423","662269","0.0-1.0-580.0","0","0","23400","","null","","","null","64","","NaN","","","","","","","","","","","","","",""
"","response","","html-keyboard-response","424","662707","0.0-1.0-581.0-0.0","0","0","23400","","436","","","68","64","","","2","64","training","adjacent","BC","2","3","O.jpg","P.jpg","1","1","1","",""
"","feedback","","html-keyboard-response","425","663711","0.0-1.0-582.0-0.0","0","0","23400","","null","","","null","64","","","","","","","","","","","","","","","",""
"","ITI","","html-keyboard-response","426","664714","0.0-1.0-585.0","0","0","23400","","null","","","null","64","","","","","","","","","","","","","","","NaN",""
"","S1","","html-keyboard-response","427","664866","0.0-1.0-587.0","0","0","23400","","null","","","null","65","","","","","","","","","","","","","","","",""
"","ISI","","html-keyboard-response","428","666869","0.0-1.0-588.0","0","0","23400","","null","","","null","65","NaN","","","","","","","","","","","","","","",""
"","S2","","html-keyboard-response","429","667022","0.0-1.0-589.0","0","0","23400","","null","","","null","65","","NaN","","","","","","","","","","","","","",""
"","response","","html-keyboard-response","430","667603","0.0-1.0-590.0-0.0","0","0","23400","","580","","","75","65","","","2","65","training","adjacent","DC","4","3","R.jpg","P.jpg","0","0","1","",""
"","feedback","","html-keyboard-response","431","668607","0.0-1.0-591.0-0.0","0","0","23400","","null","","","null","65","","","","","","","","","","","","","","","",""
"","ITI","","html-keyboard-response","432","669610","0.0-1.0-594.0","0","0","23400","","null","","","null","65","","","","","","","","","","","","","","","NaN",""
"","S1","","html-keyboard-response","433","669763","0.0-1.0-596.0","0","0","23400","","null","","","null","66","","","","","","","","","","","","","","","",""
"","ISI","","html-keyboard-response","434","671765","0.0-1.0-597.0","0","0","23400","","null","","","null","66","NaN","","","","","","","","","","","","","","",""
"","S2","","html-keyboard-response","435","671918","0.0-1.0-598.0","0","0","23400","","null","","","null","66","","NaN","","","","","","","","","","","","","",""
"","response","","html-keyboard-response","436","672574","0.0-1.0-599.0-0.0","0","0","23400","","655","","","68","66","","","2","66","training","adjacent","BC","2","3","O.jpg","P.jpg","1","1","1","",""
"","feedback","","html-keyboard-response","437","673578","0.0-1.0-600.0-0.0","0","0","23400","","null","","","null","66","","","","","","","","","","","","","","","",""
"","ITI","","html-keyboard-response","438","674580","0.0-1.0-603.0","0","0","23400","","null","","","null","66","","","","","","","","","","","","","","","NaN",""
"","S1","","html-keyboard-response","439","674732","0.0-1.0-605.0","0","0","23400","","null","","","null","67","","","","","","","","","","","","","","","",""
"","ISI","","html-keyboard-response","440","676735","0.0-1.0-606.0","0","0","23400","","null","","","null","67","NaN","","","","","","","","","","","","","","",""
"","S2","","html-keyboard-response","441","676888","0.0-1.0-607.0","0","0","23400","","null","","","null","67","","NaN","","","","","","","","","","","","","",""
"","response","","html-keyboard-response","442","677250","0.0-1.0-608.0-0.0","0","0","23400","","360","","","75","67","","","2","67","training","adjacent","ED","5","4","N.jpg","R.jpg","0","0","1","",""
"","feedback","","html-keyboard-response","443","678253","0.0-1.0-609.0-0.0","0","0","23400","","null","","","null","67","","","","","","","","","","","","","","","",""
"","ITI","","html-keyboard-response","444","679256","0.0-1.0-612.0","0","0","23400","","null","","","null","67","","","","","","","","","","","","","","","NaN",""
"","S1","","html-keyboard-response","445","679408","0.0-1.0-614.0","0","0","23400","","null","","","null","68","","","","","","","","","","","","","","","",""
"","ISI","","html-keyboard-response","446","681410","0.0-1.0-615.0","0","0","23400","","null","","","null","68","NaN","","","","","","","","","","","","","","",""
"","S2","","html-keyboard-response","447","681565","0.0-1.0-616.0","0","0","23400","","null","","","null","68","","NaN","","","","","","","","","","","","","",""
"","response","","html-keyboard-response","448","682094","0.0-1.0-617.0-0.0","0","0","23400","","528","","","68","68","","","2","68","training","adjacent","BC","2","3","O.jpg","P.jpg","1","1","1","",""
"","feedback","","html-keyboard-response","449","683097","0.0-1.0-618.0-0.0","0","0","23400","","null","","","null","68","","","","","","","","","","","","","","","",""
"","ITI","","html-keyboard-response","450","684100","0.0-1.0-621.0","0","0","23400","","null","","","null","68","","","","","","","","","","","","","","","NaN",""
"","S1","","html-keyboard-response","451","684253","0.0-1.0-623.0","0","0","23400","","null","","","null","69","","","","","","","","","","","","","","","",""
"","ISI","","html-keyboard-response","452","686256","0.0-1.0-624.0","0","0","23400","","null","","","null","69","NaN","","","","","","","","","","","","","","",""
"","S2","","html-keyboard-response","453","686409","0.0-1.0-625.0","0","0","23400","","null","","","null","69","","NaN","","","","","","","","","","","","","",""
"","response","","html-keyboard-response","454","687057","0.0-1.0-626.0-0.0","0","0","23400","","647","","","75","69","","","2","69","training","adjacent","FG","6","7","Q.jpg","L.jpg","0","1","0","",""
"","feedback","","html-keyboard-response","455","688060","0.0-1.0-627.0-0.0","0","0","23400","","null","","","null","69","","","","","","","","","","","","","","","",""
"","time_out","","html-keyboard-response","456","690062","0.0-1.0-629.0-0.0","0","0","23400","","null","","","null","69","","","","","","","","","","","","","","","",""
"","ITI","","html-keyboard-response","457","691064","0.0-1.0-630.0","0","0","23400","","null","","","null","69","","","","","","","","","","","","","","","NaN",""
"","S1","","html-keyboard-response","458","691217","0.0-1.0-632.0","0","0","23400","","null","","","null","70","","","","","","","","","","","","","","","",""
"","ISI","","html-keyboard-response","459","693219","0.0-1.0-633.0","0","0","23400","","null","","","null","70","NaN","","","","","","","","","","","","","","",""
"","S2","","html-keyboard-response","460","693311","0.0-1.0-634.0","0","0","23400","","91","","","68","70","","d","2","70","training","adjacent","GF","7","6","L.jpg","Q.jpg","1","0","0","",""
"","feedback","","html-keyboard-response","461","694314","0.0-1.0-636.0-0.0","0","0","23400","","null","","","null","70","","","","","","","","","","","","","","","",""
"","time_out","","html-keyboard-response","462","696318","0.0-1.0-638.0-0.0","0","0","23400","","null","","","null","70","","","","","","","","","","","","","","","",""
"","ITI","","html-keyboard-response","463","697320","0.0-1.0-639.0","0","0","23400","","null","","","null","70","","","","","","","","","","","","","","","NaN",""
"","S1","","html-keyboard-response","464","697473","0.0-1.0-641.0","0","0","23400","","null","","","null","71","","","","","","","","","","","","","","","",""
"","ISI","","html-keyboard-response","465","699476","0.0-1.0-642.0","0","0","23400","","null","","","null","71","NaN","","","","","","","","","","","","","","",""
"","S2","","html-keyboard-response","466","699629","0.0-1.0-643.0","0","0","23400","","null","","","null","71","","NaN","","","","","","","","","","","","","",""
"","response","","html-keyboard-response","467","700206","0.0-1.0-644.0-0.0","0","0","23400","","576","","","75","71","","","2","71","training","adjacent","CD","3","4","P.jpg","R.jpg","0","1","0","",""
"","feedback","","html-keyboard-response","468","701210","0.0-1.0-645.0-0.0","0","0","23400","","null","","","null","71","","","","","","","","","","","","","","","",""
"","time_out","","html-keyboard-response","469","703212","0.0-1.0-647.0-0.0","0","0","23400","","null","","","null","71","","","","","","","","","","","","","","","",""
"","ITI","","html-keyboard-response","470","704214","0.0-1.0-648.0","0","0","23400","","null","","","null","71","","","","","","","","","","","","","","","NaN",""
"","S1","","html-keyboard-response","471","704367","0.0-1.0-650.0","0","0","23400","","null","","","null","72","","","","","","","","","","","","","","","",""
"","ISI","","html-keyboard-response","472","706369","0.0-1.0-651.0","0","0","23400","","1545","","","75","72","k","","","","","","","","","","","","","","",""
"","S2","","html-keyboard-response","473","706521","0.0-1.0-652.0","0","0","23400","","null","","","null","72","","NaN","","","","","","","","","","","","","",""
"","response","","html-keyboard-response","474","706851","0.0-1.0-653.0-0.0","0","0","23400","","328","","","75","72","","","2","72","training","adjacent","DC","4","3","R.jpg","P.jpg","0","0","1","",""
"","feedback","","html-keyboard-response","475","707854","0.0-1.0-654.0-0.0","0","0","23400","","null","","","null","72","","","","","","","","","","","","","","","",""
"","ITI","","html-keyboard-response","476","708857","0.0-1.0-657.0","0","0","23400","","null","","","null","72","","","","","","","","","","","","","","","NaN",""
"","S1","","html-keyboard-response","477","709010","0.0-1.0-659.0","0","0","23400","","null","","","null","73","","","","","","","","","","","","","","","",""
"","ISI","","html-keyboard-response","478","711013","0.0-1.0-660.0","0","0","23400","","null","","","null","73","NaN","","","","","","","","","","","","","","",""
"","S2","","html-keyboard-response","479","711176","0.0-1.0-661.0","0","0","23400","","null","","","null","73","","NaN","","","","","","","","","","","","","",""
"","response","","html-keyboard-response","480","711694","0.0-1.0-662.0-0.0","0","0","23400","","516","","","68","73","","","2","73","training","adjacent","GF","7","6","L.jpg","Q.jpg","1","0","0","",""
"","feedback","","html-keyboard-response","481","712697","0.0-1.0-663.0-0.0","0","0","23400","","null","","","null","73","","","","","","","","","","","","","","","",""
"","time_out","","html-keyboard-response","482","714700","0.0-1.0-665.0-0.0","0","0","23400","","null","","","null","73","","","","","","","","","","","","","","","",""
"","ITI","","html-keyboard-response","483","715703","0.0-1.0-666.0","0","0","23400","","null","","","null","73","","","","","","","","","","","","","","","NaN",""
"","S1","","html-keyboard-response","484","715856","0.0-1.0-668.0","0","0","23400","","null","","","null","74","","","","","","","","","","","","","","","",""
"","ISI","","html-keyboard-response","485","717859","0.0-1.0-669.0","0","0","23400","","555","","","75","74","k","","","","","","","","","","","","","","",""
"","S2","","html-keyboard-response","486","718011","0.0-1.0-670.0","0","0","23400","","null","","","null","74","","NaN","","","","","","","","","","","","","",""
"","response","","html-keyboard-response","487","718295","0.0-1.0-671.0-0.0","0","0","23400","","282","","","75","74","","","2","74","training","adjacent","GF","7","6","L.jpg","Q.jpg","0","0","1","",""
"","feedback","","html-keyboard-response","488","719298","0.0-1.0-672.0-0.0","0","0","23400","","null","","","null","74","","","","","","","","","","","","","","","",""
"","ITI","","html-keyboard-response","489","720301","0.0-1.0-675.0","0","0","23400","","null","","","null","74","","","","","","","","","","","","","","","NaN",""
"","S1","","html-keyboard-response","490","720453","0.0-1.0-677.0","0","0","23400","","null","","","null","75","","","","","","","","","","","","","","","",""
"","ISI","","html-keyboard-response","491","722456","0.0-1.0-678.0","0","0","23400","","null","","","null","75","NaN","","","","","","","","","","","","","","",""
"","S2","","html-keyboard-response","492","722609","0.0-1.0-679.0","0","0","23400","","null","","","null","75","","NaN","","","","","","","","","","","","","",""
"","response","","html-keyboard-response","493","723281","0.0-1.0-680.0-0.0","0","0","23400","","671","","","68","75","","","2","75","training","adjacent","DE","4","5","R.jpg","N.jpg","1","1","1","",""
"","feedback","","html-keyboard-response","494","724284","0.0-1.0-681.0-0.0","0","0","23400","","null","","","null","75","","","","","","","","","","","","","","","",""
"","ITI","","html-keyboard-response","495","725287","0.0-1.0-684.0","0","0","23400","","null","","","null","75","","","","","","","","","","","","","","","NaN",""
"","S1","","html-keyboard-response","496","725440","0.0-1.0-686.0","0","0","23400","","null","","","null","76","","","","","","","","","","","","","","","",""
"","ISI","","html-keyboard-response","497","727442","0.0-1.0-687.0","0","0","23400","","1962","","","75","76","k","","","","","","","","","","","","","","",""
"","S2","","html-keyboard-response","498","727594","0.0-1.0-688.0","0","0","23400","","null","","","null","76","","NaN","","","","","","","","","","","","","",""
"","response","","html-keyboard-response","499","728443","0.0-1.0-689.0-0.0","0","0","23400","","847","","","75","76","","","2","76","training","adjacent","CD","3","4","P.jpg","R.jpg","0","1","0","",""
"","feedback","","html-keyboard-response","500","729447","0.0-1.0-690.0-0.0","0","0","23400","","null","","","null","76","","","","","","","","","","","","","","","",""
"","time_out","","html-keyboard-response","501","731449","0.0-1.0-692.0-0.0","0","0","23400","","null","","","null","76","","","","","","","","","","","","","","","",""
"","ITI","","html-keyboard-response","502","732451","0.0-1.0-693.0","0","0","23400","","null","","","null","76","","","","","","","","","","","","","","","NaN",""
"","S1","","html-keyboard-response","503","732604","0.0-1.0-695.0","0","0","23400","","null","","","null","77","","","","","","","","","","","","","","","",""
"","ISI","","html-keyboard-response","504","734606","0.0-1.0-696.0","0","0","23400","","null","","","null","77","NaN","","","","","","","","","","","","","","",""
"","S2","","html-keyboard-response","505","734759","0.0-1.0-697.0","0","0","23400","","null","","","null","77","","NaN","","","","","","","","","","","","","",""
"","response","","html-keyboard-response","506","735127","0.0-1.0-698.0-0.0","0","0","23400","","366","","","68","77","","","2","77","training","adjacent","BA","2","1","O.jpg","M.jpg","1","0","0","",""
"","feedback","","html-keyboard-response","507","736130","0.0-1.0-699.0-0.0","0","0","23400","","null","","","null","77","","","","","","","","","","","","","","","",""
"","time_out","","html-keyboard-response","508","738133","0.0-1.0-701.0-0.0","0","0","23400","","null","","","null","77","","","","","","","","","","","","","","","",""
"","ITI","","html-keyboard-response","509","739136","0.0-1.0-702.0","0","0","23400","","null","","","null","77","","","","","","","","","","","","","","","NaN",""
"","S1","","html-keyboard-response","510","739288","0.0-1.0-704.0","0","0","23400","","null","","","null","78","","","","","","","","","","","","","","","",""
"","ISI","","html-keyboard-response","511","741291","0.0-1.0-705.0","0","0","23400","","null","","","null","78","NaN","","","","","","","","","","","","","","",""
"","S2","","html-keyboard-response","512","741444","0.0-1.0-706.0","0","0","23400","","null","","","null","78","","NaN","","","","","","","","","","","","","",""
"","response","","html-keyboard-response","513","741927","0.0-1.0-707.0-0.0","0","0","23400","","480","","","75","78","","","2","78","training","adjacent","CD","3","4","P.jpg","R.jpg","0","1","0","",""
"","feedback","","html-keyboard-response","514","742930","0.0-1.0-708.0-0.0","0","0","23400","","null","","","null","78","","","","","","","","","","","","","","","",""
"","time_out","","html-keyboard-response","515","744933","0.0-1.0-710.0-0.0","0","0","23400","","null","","","null","78","","","","","","","","","","","","","","","",""
"","ITI","","html-keyboard-response","516","745936","0.0-1.0-711.0","0","0","23400","","null","","","null","78","","","","","","","","","","","","","","","NaN",""
"","S1","","html-keyboard-response","517","746088","0.0-1.0-713.0","0","0","23400","","null","","","null","79","","","","","","","","","","","","","","","",""
"","ISI","","html-keyboard-response","518","748091","0.0-1.0-714.0","0","0","23400","","null","","","null","79","NaN","","","","","","","","","","","","","","",""
"","S2","","html-keyboard-response","519","748243","0.0-1.0-715.0","0","0","23400","","null","","","null","79","","NaN","","","","","","","","","","","","","",""
"","response","","html-keyboard-response","520","748925","0.0-1.0-716.0-0.0","0","0","23400","","680","","","68","79","","","2","79","training","adjacent","CD","3","4","P.jpg","R.jpg","1","1","1","",""
"","feedback","","html-keyboard-response","521","749928","0.0-1.0-717.0-0.0","0","0","23400","","null","","","null","79","","","","","","","","","","","","","","","",""
"","ITI","","html-keyboard-response","522","750930","0.0-1.0-720.0","0","0","23400","","null","","","null","79","","","","","","","","","","","","","","","NaN",""
"","S1","","html-keyboard-response","523","751083","0.0-1.0-722.0","0","0","23400","","null","","","null","80","","","","","","","","","","","","","","","",""
"","ISI","","html-keyboard-response","524","753093","0.0-1.0-723.0","0","0","23400","","null","","","null","80","NaN","","","","","","","","","","","","","","",""
"","S2","","html-keyboard-response","525","753246","0.0-1.0-724.0","0","0","23400","","null","","","null","80","","NaN","","","","","","","","","","","","","",""
"","response","","html-keyboard-response","526","753486","0.0-1.0-725.0-0.0","0","0","23400","","239","","","75","80","","","2","80","training","adjacent","FG","6","7","Q.jpg","L.jpg","0","1","0","",""
"","feedback","","html-keyboard-response","527","754488","0.0-1.0-726.0-0.0","0","0","23400","","null","","","null","80","","","","","","","","","","","","","","","",""
"","time_out","","html-keyboard-response","528","756491","0.0-1.0-728.0-0.0","0","0","23400","","null","","","null","80","","","","","","","","","","","","","","","",""
"","ITI","","html-keyboard-response","529","757495","0.0-1.0-729.0","0","0","23400","","null","","","null","80","","","","","","","","","","","","","","","NaN",""
"","S1","","html-keyboard-response","530","757647","0.0-1.0-731.0","0","0","23400","","null","","","null","81","","","","","","","","","","","","","","","",""
"","ISI","","html-keyboard-response","531","759650","0.0-1.0-732.0","0","0","23400","","null","","","null","81","NaN","","","","","","","","","","","","","","",""
"","S2","","html-keyboard-response","532","759802","0.0-1.0-733.0","0","0","23400","","null","","","null","81","","NaN","","","","","","","","","","","","","",""
"","response","","html-keyboard-response","533","760159","0.0-1.0-734.0-0.0","0","0","23400","","355","","","75","81","","","2","81","training","adjacent","FE","6","5","Q.jpg","N.jpg","0","0","1","",""
"","feedback","","html-keyboard-response","534","761163","0.0-1.0-735.0-0.0","0","0","23400","","null","","","null","81","","","","","","","","","","","","","","","",""
"","ITI","","html-keyboard-response","535","762166","0.0-1.0-738.0","0","0","23400","","null","","","null","81","","","","","","","","","","","","","","","NaN",""
"","S1","","html-keyboard-response","536","762318","0.0-1.0-740.0","0","0","23400","","null","","","null","82","","","","","","","","","","","","","","","",""
"","ISI","","html-keyboard-response","537","764320","0.0-1.0-741.0","0","0","23400","","188","","","75","82","k","","","","","","","","","","","","","","",""
"","S2","","html-keyboard-response","538","764485","0.0-1.0-742.0","0","0","23400","","null","","","null","82","","NaN","","","","","","","","","","","","","",""
"","response","","html-keyboard-response","539","764861","0.0-1.0-743.0-0.0","0","0","23400","","374","","","75","82","","","2","82","training","adjacent","DE","4","5","R.jpg","N.jpg","0","1","0","",""
"","feedback","","html-keyboard-response","540","765864","0.0-1.0-744.0-0.0","0","0","23400","","null","","","null","82","","","","","","","","","","","","","","","",""
"","time_out","","html-keyboard-response","541","767867","0.0-1.0-746.0-0.0","0","0","23400","","null","","","null","82","","","","","","","","","","","","","","","",""
"","ITI","","html-keyboard-response","542","768869","0.0-1.0-747.0","0","0","23400","","107","","","75","82","","","","","","","","","","","","","","","k",""
"","S1","","html-keyboard-response","543","769022","0.0-1.0-749.0","0","0","23400","","null","","","null","83","","","","","","","","","","","","","","","",""
"","ISI","","html-keyboard-response","544","771026","0.0-1.0-750.0","0","0","23400","","397","","","75","83","k","","","","","","","","","","","","","","",""
"","S2","","html-keyboard-response","545","771178","0.0-1.0-751.0","0","0","23400","","null","","","null","83","","NaN","","","","","","","","","","","","","",""
"","response","","html-keyboard-response","546","771465","0.0-1.0-752.0-0.0","0","0","23400","","285","","","75","83","","","2","83","training","adjacent","CB","3","2","P.jpg","O.jpg","0","0","1","",""
"","feedback","","html-keyboard-response","547","772467","0.0-1.0-753.0-0.0","0","0","23400","","null","","","null","83","","","","","","","","","","","","","","","",""
"","ITI","","html-keyboard-response","548","773469","0.0-1.0-756.0","0","0","23400","","null","","","null","83","","","","","","","","","","","","","","","NaN",""
"","S1","","html-keyboard-response","549","773622","0.0-1.0-758.0","0","0","23400","","null","","","null","84","","","","","","","","","","","","","","","",""
"","ISI","","html-keyboard-response","550","775625","0.0-1.0-759.0","0","0","23400","","null","","","null","84","NaN","","","","","","","","","","","","","","",""
"","S2","","html-keyboard-response","551","775777","0.0-1.0-760.0","0","0","23400","","null","","","null","84","","NaN","","","","","","","","","","","","","",""
"","response","","html-keyboard-response","552","776138","0.0-1.0-761.0-0.0","0","0","23400","","360","","","68","84","","","2","84","training","adjacent","BA","2","1","O.jpg","M.jpg","1","0","0","",""
"","feedback","","html-keyboard-response","553","777141","0.0-1.0-762.0-0.0","0","0","23400","","null","","","null","84","","","","","","","","","","","","","","","",""
"","time_out","","html-keyboard-response","554","779143","0.0-1.0-764.0-0.0","0","0","23400","","null","","","null","84","","","","","","","","","","","","","","","",""
"","ITI","","html-keyboard-response","555","780146","0.0-1.0-765.0","0","0","23400","","null","","","null","84","","","","","","","","","","","","","","","NaN",""
"","S1","","html-keyboard-response","556","780298","0.0-1.0-767.0","0","0","23400","","null","","","null","85","","","","","","","","","","","","","","","",""
"","ISI","","html-keyboard-response","557","782301","0.0-1.0-768.0","0","0","23400","","null","","","null","85","NaN","","","","","","","","","","","","","","",""
"","S2","","html-keyboard-response","558","782454","0.0-1.0-769.0","0","0","23400","","null","","","null","85","","NaN","","","","","","","","","","","","","",""
"","response","","html-keyboard-response","559","782608","0.0-1.0-770.0-0.0","0","0","23400","","152","","","68","85","","","2","85","training","adjacent","EF","5","6","N.jpg","Q.jpg","1","1","1","",""
"","feedback","","html-keyboard-response","560","783610","0.0-1.0-771.0-0.0","0","0","23400","","null","","","null","85","","","","","","","","","","","","","","","",""
"","ITI","","html-keyboard-response","561","784614","0.0-1.0-774.0","0","0","23400","","null","","","null","85","","","","","","","","","","","","","","","NaN",""
"","S1","","html-keyboard-response","562","784767","0.0-1.0-776.0","0","0","23400","","null","","","null","86","","","","","","","","","","","","","","","",""
"","ISI","","html-keyboard-response","563","786769","0.0-1.0-777.0","0","0","23400","","null","","","null","86","NaN","","","","","","","","","","","","","","",""
"","S2","","html-keyboard-response","564","786923","0.0-1.0-778.0","0","0","23400","","null","","","null","86","","NaN","","","","","","","","","","","","","",""
"","response","","html-keyboard-response","565","787511","0.0-1.0-779.0-0.0","0","0","23400","","587","","","68","86","","","2","86","training","adjacent","FE","6","5","Q.jpg","N.jpg","1","0","0","",""
"","feedback","","html-keyboard-response","566","788515","0.0-1.0-780.0-0.0","0","0","23400","","null","","","null","86","","","","","","","","","","","","","","","",""
"","time_out","","html-keyboard-response","567","790517","0.0-1.0-782.0-0.0","0","0","23400","","null","","","null","86","","","","","","","","","","","","","","","",""
"","ITI","","html-keyboard-response","568","791519","0.0-1.0-783.0","0","0","23400","","null","","","null","86","","","","","","","","","","","","","","","NaN",""
"","S1","","html-keyboard-response","569","791671","0.0-1.0-785.0","0","0","23400","","null","","","null","87","","","","","","","","","","","","","","","",""
"","ISI","","html-keyboard-response","570","793674","0.0-1.0-786.0","0","0","23400","","557","","","75","87","k","","","","","","","","","","","","","","",""
"","S2","","html-keyboard-response","571","793825","0.0-1.0-787.0","0","0","23400","","null","","","null","87","","NaN","","","","","","","","","","","","","",""
"","response","","html-keyboard-response","572","794081","0.0-1.0-788.0-0.0","0","0","23400","","253","","","68","87","","","2","87","training","adjacent","AB","1","2","M.jpg","O.jpg","1","1","1","",""
"","feedback","","html-keyboard-response","573","795084","0.0-1.0-789.0-0.0","0","0","23400","","null","","","null","87","","","","","","","","","","","","","","","",""
"","ITI","","html-keyboard-response","574","796091","0.0-1.0-792.0","0","0","23400","","null","","","null","87","","","","","","","","","","","","","","","NaN",""
"","S1","","html-keyboard-response","575","796244","0.0-1.0-794.0","0","0","23400","","null","","","null","88","","","","","","","","","","","","","","","",""
"","ISI","","html-keyboard-response","576","798247","0.0-1.0-795.0","0","0","23400","","null","","","null","88","NaN","","","","","","","","","","","","","","",""
"","S2","","html-keyboard-response","577","798400","0.0-1.0-796.0","0","0","23400","","null","","","null","88","","NaN","","","","","","","","","","","","","",""
"","response","","html-keyboard-response","578","799549","0.0-1.0-797.0-0.0","0","0","23400","","1148","","","75","88","","","2","88","training","adjacent","AB","1","2","M.jpg","O.jpg","0","1","0","",""
"","feedback","","html-keyboard-response","579","800552","0.0-1.0-798.0-0.0","0","0","23400","","null","","","null","88","","","","","","","","","","","","","","","",""
"","time_out","","html-keyboard-response","580","802555","0.0-1.0-800.0-0.0","0","0","23400","","null","","","null","88","","","","","","","","","","","","","","","",""
"","ITI","","html-keyboard-response","581","803557","0.0-1.0-801.0","0","0","23400","","null","","","null","88","","","","","","","","","","","","","","","NaN",""
"","S1","","html-keyboard-response","582","803709","0.0-1.0-803.0","0","0","23400","","null","","","null","89","","","","","","","","","","","","","","","",""
