"success","category","start_time","trial_type","trial_index","time_elapsed","internal_node_id","warning","missed_checkup","PID","view_history","rt","ttype","responses","repeat_instructions","key_press","index","keypress_S2","block","trial_num","phase","pair_type","S1_stim","S2_stim","S1_img","S2_img","S1_chosen","S1_higher","accuracy","keypress_iti","keypress_isi","total_bonus_tally"
"true","full_screen","d07192022hr1434","fullscreen","0","2009","0.0-0.0","0","0","47849","","","","","","","","","","","","","","","","","","","","","",""
"","","","instructions","1","4356","0.0-1.0-0.0-0.0","0","0","47849","[{""page_index"":0,""viewing_time"":1203},{""page_index"":1,""viewing_time"":549},{""page_index"":2,""viewing_time"":594}]","2346","instructions","","","","","","","","","","","","","","","","","","",""
"","","","survey-multi-choice","2","10190","0.0-1.0-0.0-1.0","0","0","47849","","5832","comprehension_check","{""Q0"":""True"",""Q1"":""True"",""Q2"":""When you see the prompt 'MAKE A CHOICE' after the second image was presented"",""Q3"":""Green mark"",""Q4"":""either D or K""}","0","","","","","","","","","","","","","","","","",""
"","","","html-keyboard-response","3","11045","0.0-1.0-1.0","0","0","47849","","852","start_exp","","","32","","","","","","","","","","","","","","","",""
"","","","html-keyboard-response","4","11300","0.0-1.0-2.0","0","0","47849","","null","S1","","","null","0","","","","","","","","","","","","","","",""
"","","","html-keyboard-response","5","11402","0.0-1.0-3.0","0","0","47849","","null","ISI","","","null","0","","","","","","","","","","","","","","",""
"","","","html-keyboard-response","6","11657","0.0-1.0-4.0","0","0","47849","","37","S2","","","75","0","k","","","","","","","","","","","","","",""
"","","","html-keyboard-response","7","11673","0.0-1.0-5.0","0","0","47849","","15","response","","","75","0","","1","0","training","adjacent","5","4","L.jpg","Q.jpg","1","0","0","","",""
"","","","html-keyboard-response","8","11778","0.0-1.0-6.0-0.0","0","0","47849","","null","feedback","","","null","0","","","","","","","","","","","","","","",""
"","","","html-keyboard-response","9","11879","0.0-1.0-8.0-0.0","0","0","47849","","null","time_out","","","null","0","","","","","","","","","","","","","","",""
"","","","html-keyboard-response","10","12382","0.0-1.0-9.0","0","0","47849","","138","ITI","","","75","0","","","","","","","","","","","","","k","",""
"","","","html-keyboard-response","11","12637","0.0-1.0-11.0","0","0","47849","","null","S1","","","null","1","","","","","","","","","","","","","","",""
"","","","html-keyboard-response","12","12740","0.0-1.0-12.0","0","0","47849","","null","ISI","","","null","1","","","","","","","","","","","","","","",""
"","","","html-keyboard-response","13","12996","0.0-1.0-13.0","0","0","47849","","11","S2","","","75","1","k","","","","","","","","","","","","","",""
"","","","html-keyboard-response","14","13105","0.0-1.0-14.0","0","0","47849","","108","response","","","75","1","","1","1","training","adjacent","3","2","R.jpg","M.jpg","1","0","0","","",""
"","","","html-keyboard-response","15","13208","0.0-1.0-15.0-0.0","0","0","47849","","null","feedback","","","null","1","","","","","","","","","","","","","","",""
"","","","html-keyboard-response","16","13311","0.0-1.0-17.0-0.0","0","0","47849","","null","time_out","","","null","1","","","","","","","","","","","","","","",""
"","","","html-keyboard-response","17","13813","0.0-1.0-18.0","0","0","47849","","162","ITI","","","75","1","","","","","","","","","","","","","k","",""
"","","","html-keyboard-response","18","14065","0.0-1.0-20.0","0","0","47849","","null","S1","","","null","2","","","","","","","","","","","","","","",""
"","","","html-keyboard-response","19","14170","0.0-1.0-21.0","0","0","47849","","null","ISI","","","null","2","","","","","","","","","","","","","","",""
"","","","html-keyboard-response","20","14423","0.0-1.0-22.0","0","0","47849","","182","S2","","","75","2","k","","","","","","","","","","","","","",""
"","","","html-keyboard-response","21","14548","0.0-1.0-23.0","0","0","47849","","125","response","","","75","2","","1","2","training","adjacent","4","5","Q.jpg","L.jpg","1","1","1","","",""
"","","","html-keyboard-response","22","14649","0.0-1.0-24.0-0.0","0","0","47849","","null","feedback","","","null","2","","","","","","","","","","","","","","",""
"","","","html-keyboard-response","23","15155","0.0-1.0-27.0","0","0","47849","","88","ITI","","","75","2","","","","","","","","","","","","","k","",""
"","","","html-keyboard-response","24","15411","0.0-1.0-29.0","0","0","47849","","null","S1","","","null","3","","","","","","","","","","","","","","",""
"","","","html-keyboard-response","25","15514","0.0-1.0-30.0","0","0","47849","","73","ISI","","","75","3","","","","","","","","","","","","","","k",""
"","","","html-keyboard-response","26","15768","0.0-1.0-31.0","0","0","47849","","186","S2","","","75","3","k","","","","","","","","","","","","","",""
"","","","html-keyboard-response","27","15919","0.0-1.0-32.0","0","0","47849","","151","response","","","75","3","","1","3","training","adjacent","3","4","R.jpg","Q.jpg","1","1","1","","",""
"","","","html-keyboard-response","28","16021","0.0-1.0-33.0-0.0","0","0","47849","","null","feedback","","","null","3","","","","","","","","","","","","","","",""
"","","","html-keyboard-response","29","16523","0.0-1.0-36.0","0","0","47849","","127","ITI","","","75","3","","","","","","","","","","","","","k","",""
"","","","html-keyboard-response","30","16778","0.0-1.0-38.0","0","0","47849","","null","S1","","","null","4","","","","","","","","","","","","","","",""
"","","","html-keyboard-response","31","16879","0.0-1.0-39.0","0","0","47849","","null","ISI","","","null","4","","","","","","","","","","","","","","",""
"","","","html-keyboard-response","32","17134","0.0-1.0-40.0","0","0","47849","","null","S2","","","null","4","","","","","","","","","","","","","","",""
"","","","html-keyboard-response","33","17252","0.0-1.0-41.0","0","0","47849","","117","response","","","75","4","","1","4","training","adjacent","1","2","N.jpg","M.jpg","1","1","1","","",""
"","","","html-keyboard-response","34","17355","0.0-1.0-42.0-0.0","0","0","47849","","null","feedback","","","null","4","","","","","","","","","","","","","","",""
"","","","html-keyboard-response","35","17861","0.0-1.0-45.0","0","0","47849","","149","ITI","","","75","4","","","","","","","","","","","","","k","",""
"","","","html-keyboard-response","36","18115","0.0-1.0-47.0","0","0","47849","","null","S1","","","null","5","","","","","","","","","","","","","","",""
"","","","html-keyboard-response","37","18220","0.0-1.0-48.0","0","0","47849","","null","ISI","","","null","5","","","","","","","","","","","","","","",""
"","","","html-keyboard-response","38","18471","0.0-1.0-49.0","0","0","47849","","46","S2","","","75","5","k","","","","","","","","","","","","","",""
"","","","html-keyboard-response","39","18784","0.0-1.0-50.0","0","0","47849","","312","response","","","75","5","","1","5","training","adjacent","4","3","Q.jpg","R.jpg","1","0","0","","",""
"","","","html-keyboard-response","40","18885","0.0-1.0-51.0-0.0","0","0","47849","","null","feedback","","","null","5","","","","","","","","","","","","","","",""
"","","","html-keyboard-response","41","18988","0.0-1.0-53.0-0.0","0","0","47849","","null","time_out","","","null","5","","","","","","","","","","","","","","",""
"","","","html-keyboard-response","42","19493","0.0-1.0-54.0","0","0","47849","","101","ITI","","","75","5","","","","","","","","","","","","","k","",""
"","","","html-keyboard-response","43","19747","0.0-1.0-56.0","0","0","47849","","null","S1","","","null","6","","","","","","","","","","","","","","",""
"","","","html-keyboard-response","44","19850","0.0-1.0-57.0","0","0","47849","","null","ISI","","","null","6","","","","","","","","","","","","","","",""
"","","","html-keyboard-response","45","20106","0.0-1.0-58.0","0","0","47849","","21","S2","","","75","6","k","","","","","","","","","","","","","",""
"","","","html-keyboard-response","46","20148","0.0-1.0-59.0","0","0","47849","","40","response","","","75","6","","1","6","training","adjacent","2","3","M.jpg","R.jpg","1","1","1","","",""
"","","","html-keyboard-response","47","20252","0.0-1.0-60.0-0.0","0","0","47849","","null","feedback","","","null","6","","","","","","","","","","","","","","",""
"","","","html-keyboard-response","48","20756","0.0-1.0-63.0","0","0","47849","","150","ITI","","","75","6","","","","","","","","","","","","","k","",""
"","","","html-keyboard-response","49","21008","0.0-1.0-65.0","0","0","47849","","null","S1","","","null","7","","","","","","","","","","","","","","",""
"","","","html-keyboard-response","50","21113","0.0-1.0-66.0","0","0","47849","","null","ISI","","","null","7","","","","","","","","","","","","","","",""
"","","","html-keyboard-response","51","21365","0.0-1.0-67.0","0","0","47849","","175","S2","","","75","7","k","","","","","","","","","","","","","",""
"","","","html-keyboard-response","52","21870","0.0-1.0-68.0","0","0","47849","","null","response","","","null","7","","1","7","training","adjacent","2","1","M.jpg","N.jpg","NaN","0","0","","",""
"","","","html-keyboard-response","53","22873","0.0-1.0-70.0-0.0","1","0","47849","","null","too_slow_prompt","","","null","","","","","","","","","","","","","","","",""
"","","","html-keyboard-response","54","22977","0.0-1.0-71.0-0.0","0","0","47849","","null","time_out","","","null","7","","","","","","","","","","","","","","",""
"","","","html-keyboard-response","55","23481","0.0-1.0-72.0","0","0","47849","","1","ITI","","","75","7","","","","","","","","","","","","","k","",""
"","","","html-keyboard-response","56","27372","0.0-1.0-73.0-0.0","0","0","47849","","3889","block_over","","","32","7","","","","","","","","","","","","","","",""
"","","","html-keyboard-response","57","27627","0.0-1.0-74.0","0","0","47849","","null","S1","","","null","8","","","","","","","","","","","","","","",""
"","","","html-keyboard-response","58","27731","0.0-1.0-75.0","0","0","47849","","null","ISI","","","null","8","","","","","","","","","","","","","","",""
"","","","html-keyboard-response","59","27985","0.0-1.0-76.0","0","0","47849","","13","S2","","","75","8","k","","","","","","","","","","","","","",""
"","","","html-keyboard-response","60","28057","0.0-1.0-77.0","0","0","47849","","72","response","","","75","8","","2","8","training","adjacent","6","5","P.jpg","L.jpg","1","0","0","","",""
"","","","html-keyboard-response","61","28160","0.0-1.0-78.0-0.0","0","0","47849","","null","feedback","","","null","8","","","","","","","","","","","","","","",""
"","","","html-keyboard-response","62","28263","0.0-1.0-80.0-0.0","0","0","47849","","null","time_out","","","null","8","","","","","","","","","","","","","","",""
"","","","html-keyboard-response","63","28766","0.0-1.0-81.0","0","0","47849","","21","ITI","","","75","8","","","","","","","","","","","","","k","",""
"","","","html-keyboard-response","64","29018","0.0-1.0-83.0","0","0","47849","","null","S1","","","null","9","","","","","","","","","","","","","","",""
"","","","html-keyboard-response","65","29122","0.0-1.0-84.0","0","0","47849","","38","ISI","","","75","9","","","","","","","","","","","","","","k",""
"","","","html-keyboard-response","66","29377","0.0-1.0-85.0","0","0","47849","","160","S2","","","75","9","k","","","","","","","","","","","","","",""
"","","","html-keyboard-response","67","29579","0.0-1.0-86.0","0","0","47849","","201","response","","","75","9","","2","9","training","adjacent","3","2","R.jpg","M.jpg","1","0","0","","",""
"","","","html-keyboard-response","68","29682","0.0-1.0-87.0-0.0","0","0","47849","","null","feedback","","","null","9","","","","","","","","","","","","","","",""
"","","","html-keyboard-response","69","29788","0.0-1.0-89.0-0.0","0","0","47849","","null","time_out","","","null","9","","","","","","","","","","","","","","",""
"","","","html-keyboard-response","70","30294","0.0-1.0-90.0","0","0","47849","","101","ITI","","","75","9","","","","","","","","","","","","","k","",""
"","","","html-keyboard-response","71","30549","0.0-1.0-92.0","0","0","47849","","null","S1","","","null","10","","","","","","","","","","","","","","",""
"","","","html-keyboard-response","72","30653","0.0-1.0-93.0","0","0","47849","","null","ISI","","","null","10","","","","","","","","","","","","","","",""
"","","","html-keyboard-response","73","30908","0.0-1.0-94.0","0","0","47849","","222","S2","","","75","10","k","","","","","","","","","","","","","",""
"","","","html-keyboard-response","74","31075","0.0-1.0-95.0","0","0","47849","","166","response","","","75","10","","2","10","training","adjacent","2","3","M.jpg","R.jpg","1","1","1","","",""
"","","","html-keyboard-response","75","31179","0.0-1.0-96.0-0.0","0","0","47849","","null","feedback","","","null","10","","","","","","","","","","","","","","",""
"","","","html-keyboard-response","76","31685","0.0-1.0-99.0","0","0","47849","","421","ITI","","","75","10","","","","","","","","","","","","","k","",""
"","","","html-keyboard-response","77","31940","0.0-1.0-101.0","0","0","47849","","null","S1","","","null","11","","","","","","","","","","","","","","",""
"","","","html-keyboard-response","78","32043","0.0-1.0-102.0","0","0","47849","","null","ISI","","","null","11","","","","","","","","","","","","","","",""
"","","","html-keyboard-response","79","32296","0.0-1.0-103.0","0","0","47849","","44","S2","","","75","11","k","","","","","","","","","","","","","",""
"","","","html-keyboard-response","80","32523","0.0-1.0-104.0","0","0","47849","","225","response","","","75","11","","2","11","training","adjacent","2","1","M.jpg","N.jpg","1","0","0","","",""
"","","","html-keyboard-response","81","32627","0.0-1.0-105.0-0.0","0","0","47849","","null","feedback","","","null","11","","","","","","","","","","","","","","",""
"","","","html-keyboard-response","82","32732","0.0-1.0-107.0-0.0","0","0","47849","","null","time_out","","","null","11","","","","","","","","","","","","","","",""
"","","","html-keyboard-response","83","33234","0.0-1.0-108.0","0","0","47849","","13","ITI","","","75","11","","","","","","","","","","","","","k","",""
"","","","html-keyboard-response","84","33490","0.0-1.0-110.0","0","0","47849","","null","S1","","","null","12","","","","","","","","","","","","","","",""
"","","","html-keyboard-response","85","33593","0.0-1.0-111.0","0","0","47849","","null","ISI","","","null","12","","","","","","","","","","","","","","",""
"","","","html-keyboard-response","86","33846","0.0-1.0-112.0","0","0","47849","","89","S2","","","75","12","k","","","","","","","","","","","","","",""
"","","","html-keyboard-response","87","33899","0.0-1.0-113.0","0","0","47849","","51","response","","","75","12","","2","12","training","adjacent","7","6","O.jpg","P.jpg","1","0","0","","",""
"","","","html-keyboard-response","88","34003","0.0-1.0-114.0-0.0","0","0","47849","","null","feedback","","","null","12","","","","","","","","","","","","","","",""
"","","","html-keyboard-response","89","34108","0.0-1.0-116.0-0.0","0","0","47849","","null","time_out","","","null","12","","","","","","","","","","","","","","",""
"","","","html-keyboard-response","90","34610","0.0-1.0-117.0","0","0","47849","","207","ITI","","","75","12","","","","","","","","","","","","","k","",""
"","","","html-keyboard-response","91","34862","0.0-1.0-119.0","0","0","47849","","null","S1","","","null","13","","","","","","","","","","","","","","",""
"","","","html-keyboard-response","92","34966","0.0-1.0-120.0","0","0","47849","","null","ISI","","","null","13","","","","","","","","","","","","","","",""
"","","","html-keyboard-response","93","35220","0.0-1.0-121.0","0","0","47849","","25","S2","","","75","13","k","","","","","","","","","","","","","",""
"","","","html-keyboard-response","94","35395","0.0-1.0-122.0","0","0","47849","","174","response","","","75","13","","2","13","training","adjacent","1","2","N.jpg","M.jpg","1","1","1","","",""
"","","","html-keyboard-response","95","35497","0.0-1.0-123.0-0.0","0","0","47849","","null","feedback","","","null","13","","","","","","","","","","","","","","",""
"","","","html-keyboard-response","96","36000","0.0-1.0-126.0","0","0","47849","","96","ITI","","","75","13","","","","","","","","","","","","","k","",""
"","","","html-keyboard-response","97","36252","0.0-1.0-128.0","0","0","47849","","null","S1","","","null","14","","","","","","","","","","","","","","",""
"","","","html-keyboard-response","98","36354","0.0-1.0-129.0","0","0","47849","","null","ISI","","","null","14","","","","","","","","","","","","","","",""
"","","","html-keyboard-response","99","36610","0.0-1.0-130.0","0","0","47849","","120","S2","","","75","14","k","","","","","","","","","","","","","",""
"","","","html-keyboard-response","100","36682","0.0-1.0-131.0","0","0","47849","","71","response","","","75","14","","2","14","training","adjacent","6","7","P.jpg","O.jpg","1","1","1","","",""
"","","","html-keyboard-response","101","36784","0.0-1.0-132.0-0.0","0","0","47849","","null","feedback","","","null","14","","","","","","","","","","","","","","",""
"","","","html-keyboard-response","102","37289","0.0-1.0-135.0","0","0","47849","","115","ITI","","","75","14","","","","","","","","","","","","","k","",""
"","","","html-keyboard-response","103","37543","0.0-1.0-137.0","0","0","47849","","null","S1","","","null","15","","","","","","","","","","","","","","",""
"","","","html-keyboard-response","104","37646","0.0-1.0-138.0","0","0","47849","","null","ISI","","","null","15","","","","","","","","","","","","","","",""
"","","","html-keyboard-response","105","37899","0.0-1.0-139.0","0","0","47849","","198","S2","","","75","15","k","","","","","","","","","","","","","",""
"","","","html-keyboard-response","106","38323","0.0-1.0-140.0","0","0","47849","","423","response","","","75","15","","2","15","training","adjacent","5","6","L.jpg","P.jpg","1","1","1","","",""
"","","","html-keyboard-response","107","38427","0.0-1.0-141.0-0.0","0","0","47849","","null","feedback","","","null","15","","","","","","","","","","","","","","",""
"","","","html-keyboard-response","108","38928","0.0-1.0-144.0","0","0","47849","","129","ITI","","","75","15","","","","","","","","","","","","","k","",""
"","","","html-keyboard-response","109","40300","0.0-1.0-145.0-0.0","0","0","47849","","1371","block_over","","","32","15","","","","","","","","","","","","","","",""
"","","","html-keyboard-response","110","40551","0.0-1.0-146.0","0","0","47849","","null","S1","","","null","16","","","","","","","","","","","","","","",""
"","","","html-keyboard-response","111","40657","0.0-1.0-147.0","0","0","47849","","59","ISI","","","75","16","","","","","","","","","","","","","","k",""
"","","","html-keyboard-response","112","40911","0.0-1.0-148.0","0","0","47849","","null","S2","","","null","16","","","","","","","","","","","","","","",""
"","","","html-keyboard-response","113","40955","0.0-1.0-149.0","0","0","47849","","43","response","","","75","16","","3","16","training","adjacent","7","6","O.jpg","P.jpg","1","0","0","","",""
"","","","html-keyboard-response","114","41060","0.0-1.0-150.0-0.0","0","0","47849","","null","feedback","","","null","16","","","","","","","","","","","","","","",""
"","","","html-keyboard-response","115","41162","0.0-1.0-152.0-0.0","0","0","47849","","null","time_out","","","null","16","","","","","","","","","","","","","","",""
"","","","html-keyboard-response","116","41665","0.0-1.0-153.0","0","0","47849","","31","ITI","","","75","16","","","","","","","","","","","","","k","",""
"","","","html-keyboard-response","117","41921","0.0-1.0-155.0","0","0","47849","","null","S1","","","null","17","","","","","","","","","","","","","","",""
"","","","html-keyboard-response","118","42026","0.0-1.0-156.0","0","0","47849","","null","ISI","","","null","17","","","","","","","","","","","","","","",""
"","","","html-keyboard-response","119","42279","0.0-1.0-157.0","0","0","47849","","31","S2","","","75","17","k","","","","","","","","","","","","","",""
"","","","html-keyboard-response","120","42723","0.0-1.0-158.0","0","0","47849","","442","response","","","75","17","","3","17","training","adjacent","4","5","Q.jpg","L.jpg","1","1","1","","",""
"","","","html-keyboard-response","121","42826","0.0-1.0-159.0-0.0","0","0","47849","","null","feedback","","","null","17","","","","","","","","","","","","","","",""
"","","","html-keyboard-response","122","43328","0.0-1.0-162.0","0","0","47849","","96","ITI","","","75","17","","","","","","","","","","","","","k","",""
"","","","html-keyboard-response","123","43581","0.0-1.0-164.0","0","0","47849","","null","S1","","","null","18","","","","","","","","","","","","","","",""
"","","","html-keyboard-response","124","43682","0.0-1.0-165.0","0","0","47849","","20","ISI","","","75","18","","","","","","","","","","","","","","k",""
"","","","html-keyboard-response","125","43938","0.0-1.0-166.0","0","0","47849","","111","S2","","","75","18","k","","","","","","","","","","","","","",""
"","","","html-keyboard-response","126","43978","0.0-1.0-167.0","0","0","47849","","39","response","","","75","18","","3","18","training","adjacent","5","6","L.jpg","P.jpg","1","1","1","","",""
"","","","html-keyboard-response","127","44082","0.0-1.0-168.0-0.0","0","0","47849","","null","feedback","","","null","18","","","","","","","","","","","","","","",""
"","","","html-keyboard-response","128","44588","0.0-1.0-171.0","0","0","47849","","318","ITI","","","75","18","","","","","","","","","","","","","k","",""
"","","","html-keyboard-response","129","44843","0.0-1.0-173.0","0","0","47849","","null","S1","","","null","19","","","","","","","","","","","","","","",""
"","","","html-keyboard-response","130","44946","0.0-1.0-174.0","0","0","47849","","null","ISI","","","null","19","","","","","","","","","","","","","","",""
"","","","html-keyboard-response","131","45202","0.0-1.0-175.0","0","0","47849","","null","S2","","","null","19","","","","","","","","","","","","","","",""
"","","","html-keyboard-response","132","45290","0.0-1.0-176.0","0","0","47849","","86","response","","","75","19","","3","19","training","adjacent","6","7","P.jpg","O.jpg","1","1","1","","",""
"","","","html-keyboard-response","133","45393","0.0-1.0-177.0-0.0","0","0","47849","","null","feedback","","","null","19","","","","","","","","","","","","","","",""
"","","","html-keyboard-response","134","45896","0.0-1.0-180.0","0","0","47849","","105","ITI","","","75","19","","","","","","","","","","","","","k","",""
"","","","html-keyboard-response","135","46151","0.0-1.0-182.0","0","0","47849","","null","S1","","","null","20","","","","","","","","","","","","","","",""
"","","","html-keyboard-response","136","46257","0.0-1.0-183.0","0","0","47849","","null","ISI","","","null","20","","","","","","","","","","","","","","",""
"","","","html-keyboard-response","137","46510","0.0-1.0-184.0","0","0","47849","","217","S2","","","75","20","k","","","","","","","","","","","","","",""
"","","","html-keyboard-response","138","46666","0.0-1.0-185.0","0","0","47849","","155","response","","","75","20","","3","20","training","adjacent","4","3","Q.jpg","R.jpg","1","0","0","","",""
"","","","html-keyboard-response","139","46771","0.0-1.0-186.0-0.0","0","0","47849","","null","feedback","","","null","20","","","","","","","","","","","","","","",""
"","","","html-keyboard-response","140","46876","0.0-1.0-188.0-0.0","0","0","47849","","null","time_out","","","null","20","","","","","","","","","","","","","","",""
"","","","html-keyboard-response","141","47379","0.0-1.0-189.0","0","0","47849","","63","ITI","","","75","20","","","","","","","","","","","","","k","",""
"","","","html-keyboard-response","142","47631","0.0-1.0-191.0","0","0","47849","","null","S1","","","null","21","","","","","","","","","","","","","","",""
"","","","html-keyboard-response","143","47735","0.0-1.0-192.0","0","0","47849","","null","ISI","","","null","21","","","","","","","","","","","","","","",""
"","","","html-keyboard-response","144","47988","0.0-1.0-193.0","0","0","47849","","24","S2","","","75","21","k","","","","","","","","","","","","","",""
"","","","html-keyboard-response","145","48114","0.0-1.0-194.0","0","0","47849","","124","response","","","75","21","","3","21","training","adjacent","3","4","R.jpg","Q.jpg","1","1","1","","",""
"","","","html-keyboard-response","146","48219","0.0-1.0-195.0-0.0","0","0","47849","","null","feedback","","","null","21","","","","","","","","","","","","","","",""
"","","","html-keyboard-response","147","48723","0.0-1.0-198.0","0","0","47849","","70","ITI","","","75","21","","","","","","","","","","","","","k","",""
"","","","html-keyboard-response","148","48977","0.0-1.0-200.0","0","0","47849","","null","S1","","","null","22","","","","","","","","","","","","","","",""
"","","","html-keyboard-response","149","49079","0.0-1.0-201.0","0","0","47849","","22","ISI","","","75","22","","","","","","","","","","","","","","k",""
"","","","html-keyboard-response","150","49330","0.0-1.0-202.0","0","0","47849","","104","S2","","","75","22","k","","","","","","","","","","","","","",""
"","","","html-keyboard-response","151","49430","0.0-1.0-203.0","0","0","47849","","100","response","","","75","22","","3","22","training","adjacent","5","4","L.jpg","Q.jpg","1","0","0","","",""
"","","","html-keyboard-response","152","49535","0.0-1.0-204.0-0.0","0","0","47849","","null","feedback","","","null","22","","","","","","","","","","","","","","",""
"","","","html-keyboard-response","153","49638","0.0-1.0-206.0-0.0","0","0","47849","","null","time_out","","","null","22","","","","","","","","","","","","","","",""
"","","","html-keyboard-response","154","50139","0.0-1.0-207.0","0","0","47849","","188","ITI","","","75","22","","","","","","","","","","","","","k","",""
"","","","html-keyboard-response","155","50394","0.0-1.0-209.0","0","0","47849","","null","S1","","","null","23","","","","","","","","","","","","","","",""
"","","","html-keyboard-response","156","50497","0.0-1.0-210.0","0","0","47849","","null","ISI","","","null","23","","","","","","","","","","","","","","",""
"","","","html-keyboard-response","157","50748","0.0-1.0-211.0","0","0","47849","","179","S2","","","75","23","k","","","","","","","","","","","","","",""
"","","","html-keyboard-response","158","50979","0.0-1.0-212.0","0","0","47849","","230","response","","","75","23","","3","23","training","adjacent","6","5","P.jpg","L.jpg","1","0","0","","",""
"","","","html-keyboard-response","159","51083","0.0-1.0-213.0-0.0","0","0","47849","","null","feedback","","","null","23","","","","","","","","","","","","","","",""
"","","","html-keyboard-response","160","51185","0.0-1.0-215.0-0.0","0","0","47849","","null","time_out","","","null","23","","","","","","","","","","","","","","",""
"","","","html-keyboard-response","161","51688","0.0-1.0-216.0","0","0","47849","","13","ITI","","","75","23","","","","","","","","","","","","","k","",""
"","","","html-keyboard-response","162","54028","0.0-1.0-217.0-0.0","0","0","47849","","2338","block_over","","","32","23","","","","","","","","","","","","","","",""
"","","","html-keyboard-response","163","54279","0.0-1.0-218.0","0","0","47849","","null","S1","","","null","24","","","","","","","","","","","","","","",""
"","","","html-keyboard-response","164","54384","0.0-1.0-219.0","0","0","47849","","null","ISI","","","null","24","","","","","","","","","","","","","","",""
"","","","html-keyboard-response","165","54639","0.0-1.0-220.0","0","0","47849","","46","S2","","","75","24","k","","","","","","","","","","","","","",""
"","","","html-keyboard-response","166","54697","0.0-1.0-221.0","0","0","47849","","57","response","","","75","24","","4","24","test","non_adjacent","1","3","N.jpg","R.jpg","1","1","1","","",""
"","","","html-keyboard-response","167","54802","0.0-1.0-222.0-0.0","0","0","47849","","null","feedback","","","null","24","","","","","","","","","","","","","","",""
"","","","html-keyboard-response","168","55305","0.0-1.0-225.0","0","0","47849","","103","ITI","","","75","24","","","","","","","","","","","","","k","",""
"","","","html-keyboard-response","169","55558","0.0-1.0-227.0","0","0","47849","","null","S1","","","null","25","","","","","","","","","","","","","","",""
"","","","html-keyboard-response","170","55660","0.0-1.0-228.0","0","0","47849","","null","ISI","","","null","25","","","","","","","","","","","","","","",""
"","","","html-keyboard-response","171","55913","0.0-1.0-229.0","0","0","47849","","124","S2","","","75","25","k","","","","","","","","","","","","","",""
"","","","html-keyboard-response","172","55968","0.0-1.0-230.0","0","0","47849","","53","response","","","75","25","","4","25","test","non_adjacent","4","1","Q.jpg","N.jpg","1","0","0","","",""
"","","","html-keyboard-response","173","56073","0.0-1.0-231.0-0.0","0","0","47849","","null","feedback","","","null","25","","","","","","","","","","","","","","",""
"","","","html-keyboard-response","174","56175","0.0-1.0-233.0-0.0","0","0","47849","","null","time_out","","","null","25","","","","","","","","","","","","","","",""
"","","","html-keyboard-response","175","56677","0.0-1.0-234.0","0","0","47849","","7","ITI","","","75","25","","","","","","","","","","","","","k","",""
"","","","html-keyboard-response","176","56932","0.0-1.0-236.0","0","0","47849","","null","S1","","","null","26","","","","","","","","","","","","","","",""
"","","","html-keyboard-response","177","57037","0.0-1.0-237.0","0","0","47849","","4","ISI","","","75","26","","","","","","","","","","","","","","k",""
"","","","html-keyboard-response","178","57292","0.0-1.0-238.0","0","0","47849","","116","S2","","","75","26","k","","","","","","","","","","","","","",""
"","","","html-keyboard-response","179","57368","0.0-1.0-239.0","0","0","47849","","74","response","","","75","26","","4","26","test","adjacent","1","2","N.jpg","M.jpg","1","1","1","","",""
"","","","html-keyboard-response","180","57473","0.0-1.0-240.0-0.0","0","0","47849","","null","feedback","","","null","26","","","","","","","","","","","","","","",""
"","","","html-keyboard-response","181","57978","0.0-1.0-243.0","0","0","47849","","262","ITI","","","75","26","","","","","","","","","","","","","k","",""
"","","","html-keyboard-response","182","58231","0.0-1.0-245.0","0","0","47849","","null","S1","","","null","27","","","","","","","","","","","","","","",""
"","","","html-keyboard-response","183","58332","0.0-1.0-246.0","0","0","47849","","null","ISI","","","null","27","","","","","","","","","","","","","","",""
"","","","html-keyboard-response","184","58585","0.0-1.0-247.0","0","0","47849","","42","S2","","","75","27","k","","","","","","","","","","","","","",""
"","","","html-keyboard-response","185","58633","0.0-1.0-248.0","0","0","47849","","46","response","","","75","27","","4","27","test","non_adjacent","5","1","L.jpg","N.jpg","1","0","0","","",""
"","","","html-keyboard-response","186","58735","0.0-1.0-249.0-0.0","0","0","47849","","null","feedback","","","null","27","","","","","","","","","","","","","","",""
"","","","html-keyboard-response","187","58836","0.0-1.0-251.0-0.0","0","0","47849","","null","time_out","","","null","27","","","","","","","","","","","","","","",""
"","","","html-keyboard-response","188","59342","0.0-1.0-252.0","0","0","47849","","4","ITI","","","75","27","","","","","","","","","","","","","k","",""
"","","","html-keyboard-response","189","59594","0.0-1.0-254.0","0","0","47849","","null","S1","","","null","28","","","","","","","","","","","","","","",""
"","","","html-keyboard-response","190","59694","0.0-1.0-255.0","0","0","47849","","null","ISI","","","null","28","","","","","","","","","","","","","","",""
"","","","html-keyboard-response","191","59950","0.0-1.0-256.0","0","0","47849","","79","S2","","","75","28","k","","","","","","","","","","","","","",""
"","","","html-keyboard-response","192","59978","0.0-1.0-257.0","0","0","47849","","27","response","","","75","28","","4","28","test","non_adjacent","4","2","Q.jpg","M.jpg","1","0","0","","",""
"","","","html-keyboard-response","193","60083","0.0-1.0-258.0-0.0","0","0","47849","","null","feedback","","","null","28","","","","","","","","","","","","","","",""
"","","","html-keyboard-response","194","60188","0.0-1.0-260.0-0.0","0","0","47849","","null","time_out","","","null","28","","","","","","","","","","","","","","",""
"","","","html-keyboard-response","195","60689","0.0-1.0-261.0","0","0","47849","","11","ITI","","","75","28","","","","","","","","","","","","","k","",""
"","","","html-keyboard-response","196","60945","0.0-1.0-263.0","0","0","47849","","null","S1","","","null","29","","","","","","","","","","","","","","",""
"","","","html-keyboard-response","197","61049","0.0-1.0-264.0","0","0","47849","","54","ISI","","","75","29","","","","","","","","","","","","","","k",""
"","","","html-keyboard-response","198","61305","0.0-1.0-265.0","0","0","47849","","181","S2","","","75","29","k","","","","","","","","","","","","","",""
"","","","html-keyboard-response","199","61450","0.0-1.0-266.0","0","0","47849","","145","response","","","75","29","","4","29","test","non_adjacent","7","2","O.jpg","M.jpg","1","0","0","","",""
"","","","html-keyboard-response","200","61552","0.0-1.0-267.0-0.0","0","0","47849","","null","feedback","","","null","29","","","","","","","","","","","","","","",""
"","","","html-keyboard-response","201","61655","0.0-1.0-269.0-0.0","0","0","47849","","null","time_out","","","null","29","","","","","","","","","","","","","","",""
"","","","html-keyboard-response","202","62157","0.0-1.0-270.0","0","0","47849","","1","ITI","","","75","29","","","","","","","","","","","","","k","",""
"","","","html-keyboard-response","203","62409","0.0-1.0-272.0","0","0","47849","","null","S1","","","null","30","","","","","","","","","","","","","","",""
"","","","html-keyboard-response","204","62516","0.0-1.0-273.0","0","0","47849","","null","ISI","","","null","30","","","","","","","","","","","","","","",""
"","","","html-keyboard-response","205","62767","0.0-1.0-274.0","0","0","47849","","4","S2","","","75","30","k","","","","","","","","","","","","","",""
"","","","html-keyboard-response","206","62907","0.0-1.0-275.0","0","0","47849","","138","response","","","75","30","","4","30","test","non_adjacent","6","2","P.jpg","M.jpg","1","0","0","","",""
"","","","html-keyboard-response","207","63008","0.0-1.0-276.0-0.0","0","0","47849","","null","feedback","","","null","30","","","","","","","","","","","","","","",""
"","","","html-keyboard-response","208","63113","0.0-1.0-278.0-0.0","0","0","47849","","null","time_out","","","null","30","","","","","","","","","","","","","","",""
"","","","html-keyboard-response","209","63615","0.0-1.0-279.0","0","0","47849","","129","ITI","","","75","30","","","","","","","","","","","","","k","",""
"","","","html-keyboard-response","210","63871","0.0-1.0-281.0","0","0","47849","","null","S1","","","null","31","","","","","","","","","","","","","","",""
"","","","html-keyboard-response","211","63975","0.0-1.0-282.0","0","0","47849","","8","ISI","","","75","31","","","","","","","","","","","","","","k",""
"","","","html-keyboard-response","212","64229","0.0-1.0-283.0","0","0","47849","","184","S2","","","75","31","k","","","","","","","","","","","","","",""
"","","","html-keyboard-response","213","64354","0.0-1.0-284.0","0","0","47849","","124","response","","","75","31","","4","31","test","non_adjacent","5","2","L.jpg","M.jpg","1","0","0","","",""
"","","","html-keyboard-response","214","64458","0.0-1.0-285.0-0.0","0","0","47849","","null","feedback","","","null","31","","","","","","","","","","","","","","",""
"","","","html-keyboard-response","215","64561","0.0-1.0-287.0-0.0","0","0","47849","","null","time_out","","","null","31","","","","","","","","","","","","","","",""
"","","","html-keyboard-response","216","65062","0.0-1.0-288.0","0","0","47849","","1","ITI","","","75","31","","","","","","","","","","","","","k","",""
"","","","html-keyboard-response","217","65315","0.0-1.0-290.0","0","0","47849","","null","S1","","","null","32","","","","","","","","","","","","","","",""
"","","","html-keyboard-response","218","65418","0.0-1.0-291.0","0","0","47849","","43","ISI","","","75","32","","","","","","","","","","","","","","k",""
"","","","html-keyboard-response","219","65670","0.0-1.0-292.0","0","0","47849","","197","S2","","","75","32","k","","","","","","","","","","","","","",""
"","","","html-keyboard-response","220","65874","0.0-1.0-293.0","0","0","47849","","202","response","","","75","32","","4","32","test","adjacent","2","3","M.jpg","R.jpg","1","1","1","","",""
"","","","html-keyboard-response","221","65976","0.0-1.0-294.0-0.0","0","0","47849","","null","feedback","","","null","32","","","","","","","","","","","","","","",""
"","","","html-keyboard-response","222","66480","0.0-1.0-297.0","0","0","47849","","346","ITI","","","75","32","","","","","","","","","","","","","k","",""
"","","","html-keyboard-response","223","66732","0.0-1.0-299.0","0","0","47849","","null","S1","","","null","33","","","","","","","","","","","","","","",""
"","","","html-keyboard-response","224","66834","0.0-1.0-300.0","0","0","47849","","null","ISI","","","null","33","","","","","","","","","","","","","","",""
"","","","html-keyboard-response","225","67087","0.0-1.0-301.0","0","0","47849","","135","S2","","","75","33","k","","","","","","","","","","","","","",""
"","","","html-keyboard-response","226","67192","0.0-1.0-302.0","0","0","47849","","103","response","","","75","33","","4","33","test","non_adjacent","6","1","P.jpg","N.jpg","1","0","0","","",""
"","","","html-keyboard-response","227","67295","0.0-1.0-303.0-0.0","0","0","47849","","null","feedback","","","null","33","","","","","","","","","","","","","","",""
"","","","html-keyboard-response","228","67399","0.0-1.0-305.0-0.0","0","0","47849","","null","time_out","","","null","33","","","","","","","","","","","","","","",""
"","","","html-keyboard-response","229","67904","0.0-1.0-306.0","0","0","47849","","217","ITI","","","75","33","","","","","","","","","","","","","k","",""
"","","","html-keyboard-response","230","68158","0.0-1.0-308.0","0","0","47849","","null","S1","","","null","34","","","","","","","","","","","","","","",""
"","","","html-keyboard-response","231","68261","0.0-1.0-309.0","0","0","47849","","84","ISI","","","75","34","","","","","","","","","","","","","","k",""
"","","","html-keyboard-response","232","68513","0.0-1.0-310.0","0","0","47849","","185","S2","","","75","34","k","","","","","","","","","","","","","",""
"","","","html-keyboard-response","233","68633","0.0-1.0-311.0","0","0","47849","","119","response","","","75","34","","4","34","test","non_adjacent","3","1","R.jpg","N.jpg","1","0","0","","",""
"","","","html-keyboard-response","234","68734","0.0-1.0-312.0-0.0","0","0","47849","","null","feedback","","","null","34","","","","","","","","","","","","","","",""
"","","","html-keyboard-response","235","68836","0.0-1.0-314.0-0.0","0","0","47849","","null","time_out","","","null","34","","","","","","","","","","","","","","",""
"","","","html-keyboard-response","236","69338","0.0-1.0-315.0","0","0","47849","","4","ITI","","","75","34","","","","","","","","","","","","","k","",""
"","","","html-keyboard-response","237","69591","0.0-1.0-317.0","0","0","47849","","null","S1","","","null","35","","","","","","","","","","","","","","",""
"","","","html-keyboard-response","238","69695","0.0-1.0-318.0","0","0","47849","","null","ISI","","","null","35","","","","","","","","","","","","","","",""
"","","","html-keyboard-response","239","69947","0.0-1.0-319.0","0","0","47849","","64","S2","","","75","35","k","","","","","","","","","","","","","",""
"","","","html-keyboard-response","240","70105","0.0-1.0-320.0","0","0","47849","","156","response","","","75","35","","4","35","test","adjacent","2","1","M.jpg","N.jpg","1","0","0","","",""
"","","","html-keyboard-response","241","70208","0.0-1.0-321.0-0.0","0","0","47849","","null","feedback","","","null","35","","","","","","","","","","","","","","",""
"","","","html-keyboard-response","242","70309","0.0-1.0-323.0-0.0","0","0","47849","","null","time_out","","","null","35","","","","","","","","","","","","","","",""
"","","","html-keyboard-response","243","70812","0.0-1.0-324.0","0","0","47849","","137","ITI","","","75","35","","","","","","","","","","","","","k","",""
"","","","html-keyboard-response","244","71064","0.0-1.0-326.0","0","0","47849","","null","S1","","","null","36","","","","","","","","","","","","","","",""
"","","","html-keyboard-response","245","71167","0.0-1.0-327.0","0","0","47849","","102","ISI","","","75","36","","","","","","","","","","","","","","k",""
"","","","html-keyboard-response","246","71419","0.0-1.0-328.0","0","0","47849","","184","S2","","","75","36","k","","","","","","","","","","","","","",""
"","","","html-keyboard-response","247","71528","0.0-1.0-329.0","0","0","47849","","108","response","","","75","36","","4","36","test","adjacent","3","2","R.jpg","M.jpg","1","0","0","","",""
"","","","html-keyboard-response","248","71630","0.0-1.0-330.0-0.0","0","0","47849","","null","feedback","","","null","36","","","","","","","","","","","","","","",""
"","","","html-keyboard-response","249","71734","0.0-1.0-332.0-0.0","0","0","47849","","null","time_out","","","null","36","","","","","","","","","","","","","","",""
"","","","html-keyboard-response","250","72239","0.0-1.0-333.0","0","0","47849","","162","ITI","","","75","36","","","","","","","","","","","","","k","",""
"","","","html-keyboard-response","251","72494","0.0-1.0-335.0","0","0","47849","","null","S1","","","null","37","","","","","","","","","","","","","","",""
"","","","html-keyboard-response","252","72598","0.0-1.0-336.0","0","0","47849","","null","ISI","","","null","37","","","","","","","","","","","","","","",""
"","","","html-keyboard-response","253","72853","0.0-1.0-337.0","0","0","47849","","34","S2","","","75","37","k","","","","","","","","","","","","","",""
"","","","html-keyboard-response","254","72992","0.0-1.0-338.0","0","0","47849","","138","response","","","75","37","","4","37","test","non_adjacent","7","1","O.jpg","N.jpg","1","0","0","","",""
"","","","html-keyboard-response","255","73094","0.0-1.0-339.0-0.0","0","0","47849","","null","feedback","","","null","37","","","","","","","","","","","","","","",""
"","","","html-keyboard-response","256","73197","0.0-1.0-341.0-0.0","0","0","47849","","null","time_out","","","null","37","","","","","","","","","","","","","","",""
"","","","html-keyboard-response","257","73699","0.0-1.0-342.0","0","0","47849","","172","ITI","","","75","37","","","","","","","","","","","","","k","",""
"","","","html-keyboard-response","258","74505","0.0-1.0-343.0-0.0","0","0","47849","","805","block_over","","","32","37","","","","","","","","","","","","","","",""
"","","","html-keyboard-response","259","74758","0.0-1.0-344.0","0","0","47849","","null","S1","","","null","38","","","","","","","","","","","","","","",""
"","","","html-keyboard-response","260","74863","0.0-1.0-345.0","0","0","47849","","null","ISI","","","null","38","","","","","","","","","","","","","","",""
"","","","html-keyboard-response","261","75119","0.0-1.0-346.0","0","0","47849","","6","S2","","","75","38","k","","","","","","","","","","","","","",""
"","","","html-keyboard-response","262","75248","0.0-1.0-347.0","0","0","47849","","129","response","","","75","38","","5","38","test","non_adjacent","1","5","N.jpg","L.jpg","1","1","1","","",""
"","","","html-keyboard-response","263","75351","0.0-1.0-348.0-0.0","0","0","47849","","null","feedback","","","null","38","","","","","","","","","","","","","","",""
"","","","html-keyboard-response","264","75854","0.0-1.0-351.0","0","0","47849","","82","ITI","","","75","38","","","","","","","","","","","","","k","",""
"","","","html-keyboard-response","265","76108","0.0-1.0-353.0","0","0","47849","","null","S1","","","null","39","","","","","","","","","","","","","","",""
"","","","html-keyboard-response","266","76208","0.0-1.0-354.0","0","0","47849","","92","ISI","","","75","39","","","","","","","","","","","","","","k",""
"","","","html-keyboard-response","267","76465","0.0-1.0-355.0","0","0","47849","","190","S2","","","75","39","k","","","","","","","","","","","","","",""
"","","","html-keyboard-response","268","76594","0.0-1.0-356.0","0","0","47849","","128","response","","","75","39","","5","39","test","non_adjacent","6","3","P.jpg","R.jpg","1","0","0","","",""
"","","","html-keyboard-response","269","76698","0.0-1.0-357.0-0.0","0","0","47849","","null","feedback","","","null","39","","","","","","","","","","","","","","",""
"","","","html-keyboard-response","270","76801","0.0-1.0-359.0-0.0","0","0","47849","","null","time_out","","","null","39","","","","","","","","","","","","","","",""
"","","","html-keyboard-response","271","77304","0.0-1.0-360.0","0","0","47849","","191","ITI","","","75","39","","","","","","","","","","","","","k","",""
"","","","html-keyboard-response","272","77558","0.0-1.0-362.0","0","0","47849","","null","S1","","","null","40","","","","","","","","","","","","","","",""
"","","","html-keyboard-response","273","77659","0.0-1.0-363.0","0","0","47849","","19","ISI","","","75","40","","","","","","","","","","","","","","k",""
"","","","html-keyboard-response","274","77914","0.0-1.0-364.0","0","0","47849","","101","S2","","","75","40","k","","","","","","","","","","","","","",""
"","","","html-keyboard-response","275","77935","0.0-1.0-365.0","0","0","47849","","20","response","","","75","40","","5","40","test","non_adjacent","2","4","M.jpg","Q.jpg","1","1","1","","",""
"","","","html-keyboard-response","276","78041","0.0-1.0-366.0-0.0","0","0","47849","","null","feedback","","","null","40","","","","","","","","","","","","","","",""
"","","","html-keyboard-response","277","78544","0.0-1.0-369.0","0","0","47849","","79","ITI","","","75","40","","","","","","","","","","","","","k","",""
"","","","html-keyboard-response","278","78798","0.0-1.0-371.0","0","0","47849","","null","S1","","","null","41","","","","","","","","","","","","","","",""
"","","","html-keyboard-response","279","78903","0.0-1.0-372.0","0","0","47849","","82","ISI","","","75","41","","","","","","","","","","","","","","k",""
"","","","html-keyboard-response","280","79158","0.0-1.0-373.0","0","0","47849","","161","S2","","","75","41","k","","","","","","","","","","","","","",""
"","","","html-keyboard-response","281","79257","0.0-1.0-374.0","0","0","47849","","99","response","","","75","41","","5","41","test","non_adjacent","7","3","O.jpg","R.jpg","1","0","0","","",""
"","","","html-keyboard-response","282","79359","0.0-1.0-375.0-0.0","0","0","47849","","null","feedback","","","null","41","","","","","","","","","","","","","","",""
"","","","html-keyboard-response","283","79464","0.0-1.0-377.0-0.0","0","0","47849","","null","time_out","","","null","41","","","","","","","","","","","","","","",""
"","","","html-keyboard-response","284","79969","0.0-1.0-378.0","0","0","47849","","80","ITI","","","75","41","","","","","","","","","","","","","k","",""
"","","","html-keyboard-response","285","80224","0.0-1.0-380.0","0","0","47849","","null","S1","","","null","42","","","","","","","","","","","","","","",""
"","","","html-keyboard-response","286","80325","0.0-1.0-381.0","0","0","47849","","null","ISI","","","null","42","","","","","","","","","","","","","","",""
"","","","html-keyboard-response","287","80576","0.0-1.0-382.0","0","0","47849","","38","S2","","","75","42","k","","","","","","","","","","","","","",""
"","","","html-keyboard-response","288","80761","0.0-1.0-383.0","0","0","47849","","184","response","","","75","42","","5","42","test","non_adjacent","3","5","R.jpg","L.jpg","1","1","1","","",""
"","","","html-keyboard-response","289","80863","0.0-1.0-384.0-0.0","0","0","47849","","null","feedback","","","null","42","","","","","","","","","","","","","","",""
"","","","html-keyboard-response","290","81367","0.0-1.0-387.0","0","0","47849","","186","ITI","","","75","42","","","","","","","","","","","","","k","",""
"","","","html-keyboard-response","291","81624","0.0-1.0-389.0","0","0","47849","","null","S1","","","null","43","","","","","","","","","","","","","","",""
"","","","html-keyboard-response","292","81727","0.0-1.0-390.0","0","0","47849","","32","ISI","","","75","43","","","","","","","","","","","","","","k",""
"","","","html-keyboard-response","293","81979","0.0-1.0-391.0","0","0","47849","","120","S2","","","75","43","k","","","","","","","","","","","","","",""
"","","","html-keyboard-response","294","82041","0.0-1.0-392.0","0","0","47849","","61","response","","","75","43","","5","43","test","non_adjacent","6","4","P.jpg","Q.jpg","1","0","0","","",""
"","","","html-keyboard-response","295","82144","0.0-1.0-393.0-0.0","0","0","47849","","null","feedback","","","null","43","","","","","","","","","","","","","","",""
"","","","html-keyboard-response","296","82248","0.0-1.0-395.0-0.0","0","0","47849","","null","time_out","","","null","43","","","","","","","","","","","","","","",""
"","","","html-keyboard-response","297","82750","0.0-1.0-396.0","0","0","47849","","88","ITI","","","75","43","","","","","","","","","","","","","k","",""
"","","","html-keyboard-response","298","83004","0.0-1.0-398.0","0","0","47849","","null","S1","","","null","44","","","","","","","","","","","","","","",""
"","","","html-keyboard-response","299","83107","0.0-1.0-399.0","0","0","47849","","null","ISI","","","null","44","","","","","","","","","","","","","","",""
"","","","html-keyboard-response","300","83359","0.0-1.0-400.0","0","0","47849","","44","S2","","","75","44","k","","","","","","","","","","","","","",""
"","","","html-keyboard-response","301","83553","0.0-1.0-401.0","0","0","47849","","193","response","","","75","44","","5","44","test","adjacent","4","5","Q.jpg","L.jpg","1","1","1","","",""
"","","","html-keyboard-response","302","83655","0.0-1.0-402.0-0.0","0","0","47849","","null","feedback","","","null","44","","","","","","","","","","","","","","",""
"","","","html-keyboard-response","303","84159","0.0-1.0-405.0","0","0","47849","","97","ITI","","","75","44","","","","","","","","","","","","","k","",""
"","","","html-keyboard-response","304","84415","0.0-1.0-407.0","0","0","47849","","null","S1","","","null","45","","","","","","","","","","","","","","",""
"","","","html-keyboard-response","305","84521","0.0-1.0-408.0","0","0","47849","","null","ISI","","","null","45","","","","","","","","","","","","","","",""
"","","","html-keyboard-response","306","84773","0.0-1.0-409.0","0","0","47849","","22","S2","","","75","45","k","","","","","","","","","","","","","",""
"","","","html-keyboard-response","307","84953","0.0-1.0-410.0","0","0","47849","","179","response","","","75","45","","5","45","test","non_adjacent","2","5","M.jpg","L.jpg","1","1","1","","",""
"","","","html-keyboard-response","308","85057","0.0-1.0-411.0-0.0","0","0","47849","","null","feedback","","","null","45","","","","","","","","","","","","","","",""
"","","","html-keyboard-response","309","85562","0.0-1.0-414.0","0","0","47849","","96","ITI","","","75","45","","","","","","","","","","","","","k","",""
"","","","html-keyboard-response","310","85814","0.0-1.0-416.0","0","0","47849","","null","S1","","","null","46","","","","","","","","","","","","","","",""
"","","","html-keyboard-response","311","85916","0.0-1.0-417.0","0","0","47849","","null","ISI","","","null","46","","","","","","","","","","","","","","",""
"","","","html-keyboard-response","312","86170","0.0-1.0-418.0","0","0","47849","","11","S2","","","75","46","k","","","","","","","","","","","","","",""
"","","","html-keyboard-response","313","86335","0.0-1.0-419.0","0","0","47849","","164","response","","","75","46","","5","46","test","non_adjacent","5","3","L.jpg","R.jpg","1","0","0","","",""
"","","","html-keyboard-response","314","86437","0.0-1.0-420.0-0.0","0","0","47849","","null","feedback","","","null","46","","","","","","","","","","","","","","",""
"","","","html-keyboard-response","315","86540","0.0-1.0-422.0-0.0","0","0","47849","","null","time_out","","","null","46","","","","","","","","","","","","","","",""
"","","","html-keyboard-response","316","87042","0.0-1.0-423.0","0","0","47849","","9","ITI","","","75","46","","","","","","","","","","","","","k","",""
"","","","html-keyboard-response","317","87294","0.0-1.0-425.0","0","0","47849","","null","S1","","","null","47","","","","","","","","","","","","","","",""
"","","","html-keyboard-response","318","87398","0.0-1.0-426.0","0","0","47849","","82","ISI","","","75","47","","","","","","","","","","","","","","k",""
"","","","html-keyboard-response","319","87649","0.0-1.0-427.0","0","0","47849","","168","S2","","","75","47","k","","","","","","","","","","","","","",""
"","","","html-keyboard-response","320","87769","0.0-1.0-428.0","0","0","47849","","119","response","","","75","47","","5","47","test","adjacent","5","4","L.jpg","Q.jpg","1","0","0","","",""
"","","","html-keyboard-response","321","87874","0.0-1.0-429.0-0.0","0","0","47849","","null","feedback","","","null","47","","","","","","","","","","","","","","",""
"","","","html-keyboard-response","322","87979","0.0-1.0-431.0-0.0","0","0","47849","","null","time_out","","","null","47","","","","","","","","","","","","","","",""
"","","","html-keyboard-response","323","88480","0.0-1.0-432.0","0","0","47849","","13","ITI","","","75","47","","","","","","","","","","","","","k","",""
"","","","html-keyboard-response","324","88736","0.0-1.0-434.0","0","0","47849","","null","S1","","","null","48","","","","","","","","","","","","","","",""
"","","","html-keyboard-response","325","88840","0.0-1.0-435.0","0","0","47849","","71","ISI","","","75","48","","","","","","","","","","","","","","k",""
"","","","html-keyboard-response","326","89093","0.0-1.0-436.0","0","0","47849","","175","S2","","","75","48","k","","","","","","","","","","","","","",""
"","","","html-keyboard-response","327","89233","0.0-1.0-437.0","0","0","47849","","140","response","","","75","48","","5","48","test","adjacent","3","4","R.jpg","Q.jpg","1","1","1","","",""
"","","","html-keyboard-response","328","89337","0.0-1.0-438.0-0.0","0","0","47849","","null","feedback","","","null","48","","","","","","","","","","","","","","",""
"","","","html-keyboard-response","329","89842","0.0-1.0-441.0","0","0","47849","","102","ITI","","","75","48","","","","","","","","","","","","","k","",""
"","","","html-keyboard-response","330","90095","0.0-1.0-443.0","0","0","47849","","null","S1","","","null","49","","","","","","","","","","","","","","",""
"","","","html-keyboard-response","331","90200","0.0-1.0-444.0","0","0","47849","","49","ISI","","","75","49","","","","","","","","","","","","","","k",""
"","","","html-keyboard-response","332","90456","0.0-1.0-445.0","0","0","47849","","117","S2","","","75","49","k","","","","","","","","","","","","","",""
"","","","html-keyboard-response","333","90501","0.0-1.0-446.0","0","0","47849","","43","response","","","75","49","","5","49","test","adjacent","4","3","Q.jpg","R.jpg","1","0","0","","",""
"","","","html-keyboard-response","334","90606","0.0-1.0-447.0-0.0","0","0","47849","","null","feedback","","","null","49","","","","","","","","","","","","","","",""
"","","","html-keyboard-response","335","90710","0.0-1.0-449.0-0.0","0","0","47849","","null","time_out","","","null","49","","","","","","","","","","","","","","",""
"","","","html-keyboard-response","336","91212","0.0-1.0-450.0","0","0","47849","","154","ITI","","","75","49","","","","","","","","","","","","","k","",""
"","","","html-keyboard-response","337","91464","0.0-1.0-452.0","0","0","47849","","null","S1","","","null","50","","","","","","","","","","","","","","",""
"","","","html-keyboard-response","338","91567","0.0-1.0-453.0","0","0","47849","","null","ISI","","","null","50","","","","","","","","","","","","","","",""
"","","","html-keyboard-response","339","91818","0.0-1.0-454.0","0","0","47849","","56","S2","","","75","50","k","","","","","","","","","","","","","",""
"","","","html-keyboard-response","340","91998","0.0-1.0-455.0","0","0","47849","","179","response","","","75","50","","5","50","test","non_adjacent","1","4","N.jpg","Q.jpg","1","1","1","","",""
"","","","html-keyboard-response","341","92102","0.0-1.0-456.0-0.0","0","0","47849","","null","feedback","","","null","50","","","","","","","","","","","","","","",""
"","","","html-keyboard-response","342","92607","0.0-1.0-459.0","0","0","47849","","89","ITI","","","75","50","","","","","","","","","","","","","k","",""
"","","","html-keyboard-response","343","92860","0.0-1.0-461.0","0","0","47849","","null","S1","","","null","51","","","","","","","","","","","","","","",""
"","","","html-keyboard-response","344","92963","0.0-1.0-462.0","0","0","47849","","91","ISI","","","75","51","","","","","","","","","","","","","","k",""
"","","","html-keyboard-response","345","93216","0.0-1.0-463.0","0","0","47849","","172","S2","","","75","51","k","","","","","","","","","","","","","",""
"","","","html-keyboard-response","346","93310","0.0-1.0-464.0","0","0","47849","","93","response","","","75","51","","5","51","test","non_adjacent","7","4","O.jpg","Q.jpg","1","0","0","","",""
"","","","html-keyboard-response","347","93415","0.0-1.0-465.0-0.0","0","0","47849","","null","feedback","","","null","51","","","","","","","","","","","","","","",""
"","","","html-keyboard-response","348","93520","0.0-1.0-467.0-0.0","0","0","47849","","null","time_out","","","null","51","","","","","","","","","","","","","","",""
"","","","html-keyboard-response","349","94023","0.0-1.0-468.0","0","0","47849","","145","ITI","","","75","51","","","","","","","","","","","","","k","",""
"","","","html-keyboard-response","350","94912","0.0-1.0-469.0-0.0","0","0","47849","","888","block_over","","","32","51","","","","","","","","","","","","","","",""
"","","","html-keyboard-response","351","95169","0.0-1.0-470.0","0","0","47849","","null","S1","","","null","52","","","","","","","","","","","","","","",""
"","","","html-keyboard-response","352","95273","0.0-1.0-471.0","0","0","47849","","null","ISI","","","null","52","","","","","","","","","","","","","","",""
"","","","html-keyboard-response","353","95529","0.0-1.0-472.0","0","0","47849","","null","S2","","","null","52","","","","","","","","","","","","","","",""
"","","","html-keyboard-response","354","95777","0.0-1.0-473.0","0","0","47849","","247","response","","","75","52","","6","52","test","non_adjacent","4","7","Q.jpg","O.jpg","1","1","1","","",""
"","","","html-keyboard-response","355","95879","0.0-1.0-474.0-0.0","0","0","47849","","null","feedback","","","null","52","","","","","","","","","","","","","","",""
"","","","html-keyboard-response","356","96381","0.0-1.0-477.0","0","0","47849","","null","ITI","","","null","52","","","","","","","","","","","","","","",""
"","","","html-keyboard-response","357","96633","0.0-1.0-479.0","0","0","47849","","null","S1","","","null","53","","","","","","","","","","","","","","",""
"","","","html-keyboard-response","358","96735","0.0-1.0-480.0","0","0","47849","","null","ISI","","","null","53","","","","","","","","","","","","","","",""
"","","","html-keyboard-response","359","96988","0.0-1.0-481.0","0","0","47849","","null","S2","","","null","53","","","","","","","","","","","","","","",""
"","","","html-keyboard-response","360","97493","0.0-1.0-482.0","0","0","47849","","null","response","","","null","53","","6","53","test","adjacent","5","6","L.jpg","P.jpg","NaN","1","0","","",""
"","","","html-keyboard-response","361","98495","0.0-1.0-484.0-0.0","1","0","47849","","null","too_slow_prompt","","","null","","","","","","","","","","","","","","","",""
"","","","html-keyboard-response","362","98602","0.0-1.0-485.0-0.0","0","0","47849","","null","time_out","","","null","53","","","","","","","","","","","","","","",""
"","","","html-keyboard-response","363","99106","0.0-1.0-486.0","0","0","47849","","null","ITI","","","null","53","","","","","","","","","","","","","","",""
"","","","html-keyboard-response","364","99362","0.0-1.0-488.0","0","0","47849","","null","S1","","","null","54","","","","","","","","","","","","","","",""
"","","","html-keyboard-response","365","99463","0.0-1.0-489.0","0","0","47849","","null","ISI","","","null","54","","","","","","","","","","","","","","",""
"","","","html-keyboard-response","366","99719","0.0-1.0-490.0","0","0","47849","","null","S2","","","null","54","","","","","","","","","","","","","","",""
"","","","html-keyboard-response","367","100222","0.0-1.0-491.0","0","0","47849","","null","response","","","null","54","","6","54","test","non_adjacent","2","6","M.jpg","P.jpg","NaN","1","0","","",""
"","","","html-keyboard-response","368","101226","0.0-1.0-493.0-0.0","1","0","47849","","null","too_slow_prompt","","","null","","","","","","","","","","","","","","","",""
"","","","html-keyboard-response","369","101327","0.0-1.0-494.0-0.0","0","0","47849","","null","time_out","","","null","54","","","","","","","","","","","","","","",""
"","","","html-keyboard-response","370","101830","0.0-1.0-495.0","0","0","47849","","null","ITI","","","null","54","","","","","","","","","","","","","","",""
"","","","html-keyboard-response","371","102084","0.0-1.0-497.0","0","0","47849","","null","S1","","","null","55","","","","","","","","","","","","","","",""
"","","","html-keyboard-response","372","102189","0.0-1.0-498.0","0","0","47849","","null","ISI","","","null","55","","","","","","","","","","","","","","",""
"","","","html-keyboard-response","373","102443","0.0-1.0-499.0","0","0","47849","","null","S2","","","null","55","","","","","","","","","","","","","","",""
"","","","html-keyboard-response","374","102949","0.0-1.0-500.0","0","0","47849","","null","response","","","null","55","","6","55","test","non_adjacent","5","7","L.jpg","O.jpg","NaN","1","0","","",""
"","","","html-keyboard-response","375","103953","0.0-1.0-502.0-0.0","1","0","47849","","null","too_slow_prompt","","","null","","","","","","","","","","","","","","","",""
"","","","html-keyboard-response","376","104055","0.0-1.0-503.0-0.0","0","0","47849","","null","time_out","","","null","55","","","","","","","","","","","","","","",""
"","","","html-keyboard-response","377","104561","0.0-1.0-504.0","0","0","47849","","null","ITI","","","null","55","","","","","","","","","","","","","","",""
"","","","html-keyboard-response","378","104818","0.0-1.0-506.0","0","0","47849","","null","S1","","","null","56","","","","","","","","","","","","","","",""
"","","","html-keyboard-response","379","104923","0.0-1.0-507.0","0","0","47849","","null","ISI","","","null","56","","","","","","","","","","","","","","",""
"","","","html-keyboard-response","380","105179","0.0-1.0-508.0","0","0","47849","","null","S2","","","null","56","","","","","","","","","","","","","","",""
"","","","html-keyboard-response","381","105685","0.0-1.0-509.0","0","0","47849","","null","response","","","null","56","","6","56","test","adjacent","7","6","O.jpg","P.jpg","NaN","0","0","","",""
"","","","html-keyboard-response","382","106689","0.0-1.0-511.0-0.0","1","0","47849","","null","too_slow_prompt","","","null","","","","","","","","","","","","","","","",""
"","","","html-keyboard-response","383","106794","0.0-1.0-512.0-0.0","0","0","47849","","null","time_out","","","null","56","","","","","","","","","","","","","","",""
"","","","html-keyboard-response","384","107297","0.0-1.0-513.0","0","0","47849","","null","ITI","","","null","56","","","","","","","","","","","","","","",""
"","","","html-keyboard-response","385","107550","0.0-1.0-515.0","0","0","47849","","null","S1","","","null","57","","","","","","","","","","","","","","",""
"","","","html-keyboard-response","386","107656","0.0-1.0-516.0","0","0","47849","","null","ISI","","","null","57","","","","","","","","","","","","","","",""
"","","","html-keyboard-response","387","107911","0.0-1.0-517.0","0","0","47849","","null","S2","","","null","57","","","","","","","","","","","","","","",""
"","","","html-keyboard-response","388","108416","0.0-1.0-518.0","0","0","47849","","null","response","","","null","57","","6","57","test","non_adjacent","1","7","N.jpg","O.jpg","NaN","1","0","","",""
"","","","html-keyboard-response","389","109420","0.0-1.0-520.0-0.0","1","0","47849","","null","too_slow_prompt","","","null","","","","","","","","","","","","","","","",""
"","","","html-keyboard-response","390","109523","0.0-1.0-521.0-0.0","0","0","47849","","null","time_out","","","null","57","","","","","","","","","","","","","","",""
"","","","html-keyboard-response","391","110027","0.0-1.0-522.0","0","0","47849","","null","ITI","","","null","57","","","","","","","","","","","","","","",""
"","","","html-keyboard-response","392","110280","0.0-1.0-524.0","0","0","47849","","null","S1","","","null","58","","","","","","","","","","","","","","",""
"","","","html-keyboard-response","393","110385","0.0-1.0-525.0","0","0","47849","","null","ISI","","","null","58","","","","","","","","","","","","","","",""
"","","","html-keyboard-response","394","110639","0.0-1.0-526.0","0","0","47849","","null","S2","","","null","58","","","","","","","","","","","","","","",""
"","","","html-keyboard-response","395","111142","0.0-1.0-527.0","0","0","47849","","null","response","","","null","58","","6","58","test","adjacent","6","5","P.jpg","L.jpg","NaN","0","0","","",""
"","","","html-keyboard-response","396","112147","0.0-1.0-529.0-0.0","1","0","47849","","null","too_slow_prompt","","","null","","","","","","","","","","","","","","","",""
"","","","html-keyboard-response","397","112250","0.0-1.0-530.0-0.0","0","0","47849","","null","time_out","","","null","58","","","","","","","","","","","","","","",""
"","","","html-keyboard-response","398","112755","0.0-1.0-531.0","0","0","47849","","null","ITI","","","null","58","","","","","","","","","","","","","","",""
"","","","html-keyboard-response","399","113008","0.0-1.0-533.0","0","0","47849","","null","S1","","","null","59","","","","","","","","","","","","","","",""
"","","","html-keyboard-response","400","113112","0.0-1.0-534.0","0","0","47849","","null","ISI","","","null","59","","","","","","","","","","","","","","",""
"","","","html-keyboard-response","401","113364","0.0-1.0-535.0","0","0","47849","","null","S2","","","null","59","","","","","","","","","","","","","","",""
"","","","html-keyboard-response","402","113866","0.0-1.0-536.0","0","0","47849","","null","response","","","null","59","","6","59","test","non_adjacent","2","7","M.jpg","O.jpg","NaN","1","0","","",""
"","","","html-keyboard-response","403","114872","0.0-1.0-538.0-0.0","1","0","47849","","null","too_slow_prompt","","","null","","","","","","","","","","","","","","","",""
"","","","html-keyboard-response","404","114977","0.0-1.0-539.0-0.0","0","0","47849","","null","time_out","","","null","59","","","","","","","","","","","","","","",""
"","","","html-keyboard-response","405","115481","0.0-1.0-540.0","0","0","47849","","null","ITI","","","null","59","","","","","","","","","","","","","","",""
"","","","html-keyboard-response","406","115738","0.0-1.0-542.0","0","0","47849","","null","S1","","","null","60","","","","","","","","","","","","","","",""
"","","","html-keyboard-response","407","115843","0.0-1.0-543.0","0","0","47849","","null","ISI","","","null","60","","","","","","","","","","","","","","",""
"","","","html-keyboard-response","408","116099","0.0-1.0-544.0","0","0","47849","","null","S2","","","null","60","","","","","","","","","","","","","","",""
"","","","html-keyboard-response","409","116605","0.0-1.0-545.0","0","0","47849","","null","response","","","null","60","","6","60","test","non_adjacent","1","6","N.jpg","P.jpg","NaN","1","0","","",""
"","","","html-keyboard-response","410","117612","0.0-1.0-547.0-0.0","1","0","47849","","null","too_slow_prompt","","","null","","","","","","","","","","","","","","","",""
"","","","html-keyboard-response","411","117713","0.0-1.0-548.0-0.0","0","0","47849","","null","time_out","","","null","60","","","","","","","","","","","","","","",""
"","","","html-keyboard-response","412","118215","0.0-1.0-549.0","0","0","47849","","null","ITI","","","null","60","","","","","","","","","","","","","","",""
"","","","html-keyboard-response","413","118472","0.0-1.0-551.0","0","0","47849","","null","S1","","","null","61","","","","","","","","","","","","","","",""
"","","","html-keyboard-response","414","118577","0.0-1.0-552.0","0","0","47849","","null","ISI","","","null","61","","","","","","","","","","","","","","",""
"","","","html-keyboard-response","415","118830","0.0-1.0-553.0","0","0","47849","","null","S2","","","null","61","","","","","","","","","","","","","","",""
"","","","html-keyboard-response","416","119334","0.0-1.0-554.0","0","0","47849","","null","response","","","null","61","","6","61","test","non_adjacent","3","6","R.jpg","P.jpg","NaN","1","0","","",""
"","","","html-keyboard-response","417","120338","0.0-1.0-556.0-0.0","1","0","47849","","null","too_slow_prompt","","","null","","","","","","","","","","","","","","","",""
"","","","html-keyboard-response","418","120442","0.0-1.0-557.0-0.0","0","0","47849","","null","time_out","","","null","61","","","","","","","","","","","","","","",""
"","","","html-keyboard-response","419","120945","0.0-1.0-558.0","0","0","47849","","null","ITI","","","null","61","","","","","","","","","","","","","","",""
"","","","html-keyboard-response","420","121198","0.0-1.0-560.0","0","0","47849","","null","S1","","","null","62","","","","","","","","","","","","","","",""
"","","","html-keyboard-response","421","121301","0.0-1.0-561.0","0","0","47849","","null","ISI","","","null","62","","","","","","","","","","","","","","",""
"","","","html-keyboard-response","422","121555","0.0-1.0-562.0","0","0","47849","","null","S2","","","null","62","","","","","","","","","","","","","","",""
"","","","html-keyboard-response","423","122056","0.0-1.0-563.0","0","0","47849","","null","response","","","null","62","","6","62","test","adjacent","6","7","P.jpg","O.jpg","NaN","1","0","","",""
"","","","html-keyboard-response","424","123057","0.0-1.0-565.0-0.0","1","0","47849","","null","too_slow_prompt","","","null","","","","","","","","","","","","","","","",""
"","","","html-keyboard-response","425","123164","0.0-1.0-566.0-0.0","0","0","47849","","null","time_out","","","null","62","","","","","","","","","","","","","","",""
"","","","html-keyboard-response","426","123667","0.0-1.0-567.0","0","0","47849","","null","ITI","","","null","62","","","","","","","","","","","","","","",""
"","","","html-keyboard-response","427","123921","0.0-1.0-569.0","0","0","47849","","null","S1","","","null","63","","","","","","","","","","","","","","",""
"","","","html-keyboard-response","428","124026","0.0-1.0-570.0","0","0","47849","","null","ISI","","","null","63","","","","","","","","","","","","","","",""
"","","","html-keyboard-response","429","124280","0.0-1.0-571.0","0","0","47849","","null","S2","","","null","63","","","","","","","","","","","","","","",""
"","","","html-keyboard-response","430","124784","0.0-1.0-572.0","0","0","47849","","null","response","","","null","63","","6","63","test","non_adjacent","4","6","Q.jpg","P.jpg","NaN","1","0","","",""
"","","","html-keyboard-response","431","125788","0.0-1.0-574.0-0.0","1","0","47849","","null","too_slow_prompt","","","null","","","","","","","","","","","","","","","",""
"","","","html-keyboard-response","432","125892","0.0-1.0-575.0-0.0","0","0","47849","","null","time_out","","","null","63","","","","","","","","","","","","","","",""
"","","","html-keyboard-response","433","126398","0.0-1.0-576.0","0","0","47849","","null","ITI","","","null","63","","","","","","","","","","","","","","",""
"","","","html-keyboard-response","434","126655","0.0-1.0-578.0","0","0","47849","","null","S1","","","null","64","","","","","","","","","","","","","","",""
"","","","html-keyboard-response","435","126760","0.0-1.0-579.0","0","0","47849","","null","ISI","","","null","64","","","","","","","","","","","","","","",""
"","","","html-keyboard-response","436","127013","0.0-1.0-580.0","0","0","47849","","181","S2","","","75","64","k","","","","","","","","","","","","","",""
"","","","html-keyboard-response","437","127205","0.0-1.0-581.0","0","0","47849","","191","response","","","75","64","","6","64","test","non_adjacent","3","7","R.jpg","O.jpg","1","1","1","","",""
"","","","html-keyboard-response","438","127309","0.0-1.0-582.0-0.0","0","0","47849","","null","feedback","","","null","64","","","","","","","","","","","","","","",""
"","","","html-keyboard-response","439","127815","0.0-1.0-585.0","0","0","47849","","73","ITI","","","75","64","","","","","","","","","","","","","k","",""
"","","","html-keyboard-response","440","128069","0.0-1.0-587.0","0","0","47849","","null","S1","","","null","65","","","","","","","","","","","","","","",""
"","","","html-keyboard-response","441","128171","0.0-1.0-588.0","0","0","47849","","0","ISI","","","75","65","","","","","","","","","","","","","","k",""
"","","","html-keyboard-response","442","128423","0.0-1.0-589.0","0","0","47849","","54","S2","","","75","65","k","","","","","","","","","","","","","",""
"","","","html-keyboard-response","443","128631","0.0-1.0-590.0","0","0","47849","","208","response","","","75","65","","6","65","test","non_adjacent","7","5","O.jpg","L.jpg","1","0","0","","",""
"","","","html-keyboard-response","444","128733","0.0-1.0-591.0-0.0","0","0","47849","","null","feedback","","","null","65","","","","","","","","","","","","","","",""
"","","","html-keyboard-response","445","128838","0.0-1.0-593.0-0.0","0","0","47849","","null","time_out","","","null","65","","","","","","","","","","","","","","",""
"","","","html-keyboard-response","446","129344","0.0-1.0-594.0","0","0","47849","","104","ITI","","","75","65","","","","","","","","","","","","","k","",""
"","","","html-keyboard-response","447","130046","0.0-1.0-595.0-0.0","0","0","47849","","701","block_over","","","32","65","","","","","","","","","","","","","","",""
"","","","html-keyboard-response","448","130298","0.0-1.0-596.0","0","0","47849","","null","S1","","","null","66","","","","","","","","","","","","","","",""
"","","","html-keyboard-response","449","130402","0.0-1.0-597.0","0","0","47849","","38","ISI","","","75","66","","","","","","","","","","","","","","k",""
"","","","html-keyboard-response","450","130657","0.0-1.0-598.0","0","0","47849","","null","S2","","","null","66","","","","","","","","","","","","","","",""
"","","","html-keyboard-response","451","130669","0.0-1.0-599.0","0","0","47849","","11","response","","","75","66","","7","66","test","non_adjacent","1","3","N.jpg","R.jpg","1","1","1","","",""
"","","","html-keyboard-response","452","130771","0.0-1.0-600.0-0.0","0","0","47849","","null","feedback","","","null","66","","","","","","","","","","","","","","",""
"","","","html-keyboard-response","453","131278","0.0-1.0-603.0","0","0","47849","","75","ITI","","","75","66","","","","","","","","","","","","","k","",""
"","","","html-keyboard-response","454","131534","0.0-1.0-605.0","0","0","47849","","null","S1","","","null","67","","","","","","","","","","","","","","",""
"","","","html-keyboard-response","455","131637","0.0-1.0-606.0","0","0","47849","","31","ISI","","","75","67","","","","","","","","","","","","","","k",""
"","","","html-keyboard-response","456","131888","0.0-1.0-607.0","0","0","47849","","117","S2","","","75","67","k","","","","","","","","","","","","","",""
"","","","html-keyboard-response","457","131943","0.0-1.0-608.0","0","0","47849","","53","response","","","75","67","","7","67","test","adjacent","3","2","R.jpg","M.jpg","1","0","0","","",""
"","","","html-keyboard-response","458","132046","0.0-1.0-609.0-0.0","0","0","47849","","null","feedback","","","null","67","","","","","","","","","","","","","","",""
"","","","html-keyboard-response","459","132148","0.0-1.0-611.0-0.0","0","0","47849","","null","time_out","","","null","67","","","","","","","","","","","","","","",""
"","","","html-keyboard-response","460","132650","0.0-1.0-612.0","0","0","47849","","137","ITI","","","75","67","","","","","","","","","","","","","k","",""
"","","","html-keyboard-response","461","132905","0.0-1.0-614.0","0","0","47849","","null","S1","","","null","68","","","","","","","","","","","","","","",""
"","","","html-keyboard-response","462","133009","0.0-1.0-615.0","0","0","47849","","null","ISI","","","null","68","","","","","","","","","","","","","","",""
"","","","html-keyboard-response","463","133263","0.0-1.0-616.0","0","0","47849","","6","S2","","","75","68","k","","","","","","","","","","","","","",""
"","","","html-keyboard-response","464","133395","0.0-1.0-617.0","0","0","47849","","131","response","","","75","68","","7","68","test","non_adjacent","7","1","O.jpg","N.jpg","1","0","0","","",""
"","","","html-keyboard-response","465","133498","0.0-1.0-618.0-0.0","0","0","47849","","null","feedback","","","null","68","","","","","","","","","","","","","","",""
"","","","html-keyboard-response","466","133601","0.0-1.0-620.0-0.0","0","0","47849","","null","time_out","","","null","68","","","","","","","","","","","","","","",""
"","","","html-keyboard-response","467","134103","0.0-1.0-621.0","0","0","47849","","187","ITI","","","75","68","","","","","","","","","","","","","k","",""
"","","","html-keyboard-response","468","134360","0.0-1.0-623.0","0","0","47849","","null","S1","","","null","69","","","","","","","","","","","","","","",""
"","","","html-keyboard-response","469","134463","0.0-1.0-624.0","0","0","47849","","86","ISI","","","75","69","","","","","","","","","","","","","","k",""
"","","","html-keyboard-response","470","134715","0.0-1.0-625.0","0","0","47849","","190","S2","","","75","69","k","","","","","","","","","","","","","",""
"","","","html-keyboard-response","471","134863","0.0-1.0-626.0","0","0","47849","","147","response","","","75","69","","7","69","test","non_adjacent","6","2","P.jpg","M.jpg","1","0","0","","",""
"","","","html-keyboard-response","472","134965","0.0-1.0-627.0-0.0","0","0","47849","","null","feedback","","","null","69","","","","","","","","","","","","","","",""
"","","","html-keyboard-response","473","135071","0.0-1.0-629.0-0.0","0","0","47849","","null","time_out","","","null","69","","","","","","","","","","","","","","",""
"","","","html-keyboard-response","474","135576","0.0-1.0-630.0","0","0","47849","","6","ITI","","","75","69","","","","","","","","","","","","","k","",""
"","","","html-keyboard-response","475","135830","0.0-1.0-632.0","0","0","47849","","null","S1","","","null","70","","","","","","","","","","","","","","",""
"","","","html-keyboard-response","476","135933","0.0-1.0-633.0","0","0","47849","","null","ISI","","","null","70","","","","","","","","","","","","","","",""
"","","","html-keyboard-response","477","136187","0.0-1.0-634.0","0","0","47849","","22","S2","","","75","70","k","","","","","","","","","","","","","",""
"","","","html-keyboard-response","478","136199","0.0-1.0-635.0","0","0","47849","","11","response","","","75","70","","7","70","test","adjacent","2","3","M.jpg","R.jpg","1","1","1","","",""
"","","","html-keyboard-response","479","136303","0.0-1.0-636.0-0.0","0","0","47849","","null","feedback","","","null","70","","","","","","","","","","","","","","",""
"","","","html-keyboard-response","480","136805","0.0-1.0-639.0","0","0","47849","","126","ITI","","","75","70","","","","","","","","","","","","","k","",""
"","","","html-keyboard-response","481","137059","0.0-1.0-641.0","0","0","47849","","null","S1","","","null","71","","","","","","","","","","","","","","",""
"","","","html-keyboard-response","482","137166","0.0-1.0-642.0","0","0","47849","","25","ISI","","","75","71","","","","","","","","","","","","","","k",""
"","","","html-keyboard-response","483","137421","0.0-1.0-643.0","0","0","47849","","128","S2","","","75","71","k","","","","","","","","","","","","","",""
"","","","html-keyboard-response","484","137478","0.0-1.0-644.0","0","0","47849","","56","response","","","75","71","","7","71","test","non_adjacent","5","2","L.jpg","M.jpg","1","0","0","","",""
"","","","html-keyboard-response","485","137584","0.0-1.0-645.0-0.0","0","0","47849","","null","feedback","","","null","71","","","","","","","","","","","","","","",""
"","","","html-keyboard-response","486","137687","0.0-1.0-647.0-0.0","0","0","47849","","null","time_out","","","null","71","","","","","","","","","","","","","","",""
"","","","html-keyboard-response","487","138191","0.0-1.0-648.0","0","0","47849","","230","ITI","","","75","71","","","","","","","","","","","","","k","",""
"","","","html-keyboard-response","488","138445","0.0-1.0-650.0","0","0","47849","","null","S1","","","null","72","","","","","","","","","","","","","","",""
"","","","html-keyboard-response","489","138548","0.0-1.0-651.0","0","0","47849","","null","ISI","","","null","72","","","","","","","","","","","","","","",""
"","","","html-keyboard-response","490","138804","0.0-1.0-652.0","0","0","47849","","17","S2","","","75","72","k","","","","","","","","","","","","","",""
"","","","html-keyboard-response","491","138990","0.0-1.0-653.0","0","0","47849","","185","response","","","75","72","","7","72","test","non_adjacent","5","1","L.jpg","N.jpg","1","0","0","","",""
"","","","html-keyboard-response","492","139092","0.0-1.0-654.0-0.0","0","0","47849","","null","feedback","","","null","72","","","","","","","","","","","","","","",""
"","","","html-keyboard-response","493","139196","0.0-1.0-656.0-0.0","0","0","47849","","null","time_out","","","null","72","","","","","","","","","","","","","","",""
"","","","html-keyboard-response","494","139698","0.0-1.0-657.0","0","0","47849","","22","ITI","","","75","72","","","","","","","","","","","","","k","",""
"","","","html-keyboard-response","495","139954","0.0-1.0-659.0","0","0","47849","","null","S1","","","null","73","","","","","","","","","","","","","","",""
"","","","html-keyboard-response","496","140059","0.0-1.0-660.0","0","0","47849","","null","ISI","","","null","73","","","","","","","","","","","","","","",""
"","","","html-keyboard-response","497","140314","0.0-1.0-661.0","0","0","47849","","129","S2","","","75","73","k","","","","","","","","","","","","","",""
"","","","html-keyboard-response","498","140397","0.0-1.0-662.0","0","0","47849","","83","response","","","75","73","","7","73","test","adjacent","2","1","M.jpg","N.jpg","1","0","0","","",""
"","","","html-keyboard-response","499","140503","0.0-1.0-663.0-0.0","0","0","47849","","null","feedback","","","null","73","","","","","","","","","","","","","","",""
"","","","html-keyboard-response","500","140610","0.0-1.0-665.0-0.0","0","0","47849","","null","time_out","","","null","73","","","","","","","","","","","","","","",""
"","","","html-keyboard-response","501","141111","0.0-1.0-666.0","0","0","47849","","140","ITI","","","75","73","","","","","","","","","","","","","k","",""
"","","","html-keyboard-response","502","141365","0.0-1.0-668.0","0","0","47849","","null","S1","","","null","74","","","","","","","","","","","","","","",""
"","","","html-keyboard-response","503","141466","0.0-1.0-669.0","0","0","47849","","37","ISI","","","75","74","","","","","","","","","","","","","","k",""
"","","","html-keyboard-response","504","141722","0.0-1.0-670.0","0","0","47849","","129","S2","","","75","74","k","","","","","","","","","","","","","",""
"","","","html-keyboard-response","505","141807","0.0-1.0-671.0","0","0","47849","","83","response","","","75","74","","7","74","test","adjacent","1","2","N.jpg","M.jpg","1","1","1","","",""
"","","","html-keyboard-response","506","141910","0.0-1.0-672.0-0.0","0","0","47849","","null","feedback","","","null","74","","","","","","","","","","","","","","",""
"","","","html-keyboard-response","507","142414","0.0-1.0-675.0","0","0","47849","","100","ITI","","","75","74","","","","","","","","","","","","","k","",""
"","","","html-keyboard-response","508","142670","0.0-1.0-677.0","0","0","47849","","null","S1","","","null","75","","","","","","","","","","","","","","",""
"","","","html-keyboard-response","509","142775","0.0-1.0-678.0","0","0","47849","","null","ISI","","","null","75","","","","","","","","","","","","","","",""
"","","","html-keyboard-response","510","143028","0.0-1.0-679.0","0","0","47849","","68","S2","","","75","75","k","","","","","","","","","","","","","",""
"","","","html-keyboard-response","511","143035","0.0-1.0-680.0","0","0","47849","","5","response","","","75","75","","7","75","test","non_adjacent","4","2","Q.jpg","M.jpg","1","0","0","","",""
"","","","html-keyboard-response","512","143136","0.0-1.0-681.0-0.0","0","0","47849","","null","feedback","","","null","75","","","","","","","","","","","","","","",""
"","","","html-keyboard-response","513","143238","0.0-1.0-683.0-0.0","0","0","47849","","null","time_out","","","null","75","","","","","","","","","","","","","","",""
"","","","html-keyboard-response","514","143741","0.0-1.0-684.0","0","0","47849","","0","ITI","","","75","75","","","","","","","","","","","","","k","",""
"","","","html-keyboard-response","515","143995","0.0-1.0-686.0","0","0","47849","","null","S1","","","null","76","","","","","","","","","","","","","","",""
"","","","html-keyboard-response","516","144097","0.0-1.0-687.0","0","0","47849","","null","ISI","","","null","76","","","","","","","","","","","","","","",""
"","","","html-keyboard-response","517","144352","0.0-1.0-688.0","0","0","47849","","84","S2","","","75","76","k","","","","","","","","","","","","","",""
"","","","html-keyboard-response","518","144381","0.0-1.0-689.0","0","0","47849","","28","response","","","75","76","","7","76","test","non_adjacent","3","1","R.jpg","N.jpg","1","0","0","","",""
"","","","html-keyboard-response","519","144482","0.0-1.0-690.0-0.0","0","0","47849","","null","feedback","","","null","76","","","","","","","","","","","","","","",""
"","","","html-keyboard-response","520","144587","0.0-1.0-692.0-0.0","0","0","47849","","null","time_out","","","null","76","","","","","","","","","","","","","","",""
"","","","html-keyboard-response","521","145091","0.0-1.0-693.0","0","0","47849","","195","ITI","","","75","76","","","","","","","","","","","","","k","",""
"","","","html-keyboard-response","522","145344","0.0-1.0-695.0","0","0","47849","","null","S1","","","null","77","","","","","","","","","","","","","","",""
"","","","html-keyboard-response","523","145446","0.0-1.0-696.0","0","0","47849","","null","ISI","","","null","77","","","","","","","","","","","","","","",""
"","","","html-keyboard-response","524","145702","0.0-1.0-697.0","0","0","47849","","87","S2","","","75","77","k","","","","","","","","","","","","","",""
"","","","html-keyboard-response","525","145734","0.0-1.0-698.0","0","0","47849","","31","response","","","75","77","","7","77","test","non_adjacent","6","1","P.jpg","N.jpg","1","0","0","","",""
"","","","html-keyboard-response","526","145837","0.0-1.0-699.0-0.0","0","0","47849","","null","feedback","","","null","77","","","","","","","","","","","","","","",""
"","","","html-keyboard-response","527","145941","0.0-1.0-701.0-0.0","0","0","47849","","null","time_out","","","null","77","","","","","","","","","","","","","","",""
"","","","html-keyboard-response","528","146444","0.0-1.0-702.0","0","0","47849","","216","ITI","","","75","77","","","","","","","","","","","","","k","",""
"","","","html-keyboard-response","529","146696","0.0-1.0-704.0","0","0","47849","","null","S1","","","null","78","","","","","","","","","","","","","","",""
"","","","html-keyboard-response","530","146798","0.0-1.0-705.0","0","0","47849","","null","ISI","","","null","78","","","","","","","","","","","","","","",""
"","","","html-keyboard-response","531","147053","0.0-1.0-706.0","0","0","47849","","5","S2","","","75","78","k","","","","","","","","","","","","","",""
"","","","html-keyboard-response","532","147182","0.0-1.0-707.0","0","0","47849","","127","response","","","75","78","","7","78","test","non_adjacent","4","1","Q.jpg","N.jpg","1","0","0","","",""
"","","","html-keyboard-response","533","147287","0.0-1.0-708.0-0.0","0","0","47849","","null","feedback","","","null","78","","","","","","","","","","","","","","",""
"","","","html-keyboard-response","534","147391","0.0-1.0-710.0-0.0","0","0","47849","","null","time_out","","","null","78","","","","","","","","","","","","","","",""
"","","","html-keyboard-response","535","147894","0.0-1.0-711.0","0","0","47849","","141","ITI","","","75","78","","","","","","","","","","","","","k","",""
"","","","html-keyboard-response","536","148151","0.0-1.0-713.0","0","0","47849","","null","S1","","","null","79","","","","","","","","","","","","","","",""
"","","","html-keyboard-response","537","148253","0.0-1.0-714.0","0","0","47849","","29","ISI","","","75","79","","","","","","","","","","","","","","k",""
"","","","html-keyboard-response","538","148505","0.0-1.0-715.0","0","0","47849","","230","S2","","","75","79","k","","","","","","","","","","","","","",""
"","","","html-keyboard-response","539","148686","0.0-1.0-716.0","0","0","47849","","180","response","","","75","79","","7","79","test","non_adjacent","7","2","O.jpg","M.jpg","1","0","0","","",""
"","","","html-keyboard-response","540","148791","0.0-1.0-717.0-0.0","0","0","47849","","null","feedback","","","null","79","","","","","","","","","","","","","","",""
"","","","html-keyboard-response","541","148894","0.0-1.0-719.0-0.0","0","0","47849","","null","time_out","","","null","79","","","","","","","","","","","","","","",""
"","","","html-keyboard-response","542","149398","0.0-1.0-720.0","0","0","47849","","174","ITI","","","75","79","","","","","","","","","","","","","k","",""
"","","","html-keyboard-response","543","152410","0.0-1.0-721.0-0.0","0","0","47849","","3011","block_over","","","32","79","","","","","","","","","","","","","","",""
"","","","html-keyboard-response","544","152667","0.0-1.0-722.0","0","0","47849","","null","S1","","","null","80","","","","","","","","","","","","","","",""
"","","","html-keyboard-response","545","152770","0.0-1.0-723.0","0","0","47849","","34","ISI","","","75","80","","","","","","","","","","","","","","k",""
"","","","html-keyboard-response","546","153023","0.0-1.0-724.0","0","0","47849","","113","S2","","","75","80","k","","","","","","","","","","","","","",""
"","","","html-keyboard-response","547","153051","0.0-1.0-725.0","0","0","47849","","26","response","","","75","80","","8","80","test","non_adjacent","2","5","M.jpg","L.jpg","1","1","1","","",""
"","","","html-keyboard-response","548","153153","0.0-1.0-726.0-0.0","0","0","47849","","null","feedback","","","null","80","","","","","","","","","","","","","","",""
"","","","html-keyboard-response","549","153655","0.0-1.0-729.0","0","0","47849","","60","ITI","","","75","80","","","","","","","","","","","","","k","",""
"","","","html-keyboard-response","550","153908","0.0-1.0-731.0","0","0","47849","","null","S1","","","null","81","","","","","","","","","","","","","","",""
"","","","html-keyboard-response","551","154011","0.0-1.0-732.0","0","0","47849","","null","ISI","","","null","81","","","","","","","","","","","","","","",""
"","","","html-keyboard-response","552","154268","0.0-1.0-733.0","0","0","47849","","null","S2","","","null","81","","","","","","","","","","","","","","",""
"","","","html-keyboard-response","553","154769","0.0-1.0-734.0","0","0","47849","","null","response","","","null","81","","8","81","test","non_adjacent","6","3","P.jpg","R.jpg","NaN","0","0","","",""
"","","","html-keyboard-response","554","155776","0.0-1.0-736.0-0.0","1","0","47849","","null","too_slow_prompt","","","null","","","","","","","","","","","","","","","",""
"","","","html-keyboard-response","555","155880","0.0-1.0-737.0-0.0","0","0","47849","","null","time_out","","","null","81","","","","","","","","","","","","","","",""
"","","","html-keyboard-response","556","156386","0.0-1.0-738.0","0","0","47849","","null","ITI","","","null","81","","","","","","","","","","","","","","",""
"","","","html-keyboard-response","557","156641","0.0-1.0-740.0","0","0","47849","","null","S1","","","null","82","","","","","","","","","","","","","","",""
"","","","html-keyboard-response","558","156742","0.0-1.0-741.0","0","0","47849","","null","ISI","","","null","82","","","","","","","","","","","","","","",""
"","","","html-keyboard-response","559","156997","0.0-1.0-742.0","0","0","47849","","null","S2","","","null","82","","","","","","","","","","","","","","",""
"","","","html-keyboard-response","560","157503","0.0-1.0-743.0","0","0","47849","","null","response","","","null","82","","8","82","test","adjacent","4","3","Q.jpg","R.jpg","NaN","0","0","","",""
"","","","html-keyboard-response","561","158508","0.0-1.0-745.0-0.0","1","0","47849","","null","too_slow_prompt","","","null","","","","","","","","","","","","","","","",""
"","","","html-keyboard-response","562","158611","0.0-1.0-746.0-0.0","0","0","47849","","null","time_out","","","null","82","","","","","","","","","","","","","","",""
"","","","html-keyboard-response","563","159114","0.0-1.0-747.0","0","0","47849","","null","ITI","","","null","82","","","","","","","","","","","","","","",""
"","","","html-keyboard-response","564","159369","0.0-1.0-749.0","0","0","47849","","null","S1","","","null","83","","","","","","","","","","","","","","",""
"","","","html-keyboard-response","565","159471","0.0-1.0-750.0","0","0","47849","","null","ISI","","","null","83","","","","","","","","","","","","","","",""
"","","","html-keyboard-response","566","159724","0.0-1.0-751.0","0","0","47849","","null","S2","","","null","83","","","","","","","","","","","","","","",""
"","","","html-keyboard-response","567","160230","0.0-1.0-752.0","0","0","47849","","null","response","","","null","83","","8","83","test","non_adjacent","2","4","M.jpg","Q.jpg","NaN","1","0","","",""
"","","","html-keyboard-response","568","161236","0.0-1.0-754.0-0.0","1","0","47849","","null","too_slow_prompt","","","null","","","","","","","","","","","","","","","",""
"","","","html-keyboard-response","569","161340","0.0-1.0-755.0-0.0","0","0","47849","","null","time_out","","","null","83","","","","","","","","","","","","","","",""
"","","","html-keyboard-response","570","161842","0.0-1.0-756.0","0","0","47849","","null","ITI","","","null","83","","","","","","","","","","","","","","",""
"","","","html-keyboard-response","571","162098","0.0-1.0-758.0","0","0","47849","","null","S1","","","null","84","","","","","","","","","","","","","","",""
"","","","html-keyboard-response","572","162202","0.0-1.0-759.0","0","0","47849","","null","ISI","","","null","84","","","","","","","","","","","","","","",""
"","","","html-keyboard-response","573","162458","0.0-1.0-760.0","0","0","47849","","null","S2","","","null","84","","","","","","","","","","","","","","",""
"","","","html-keyboard-response","574","162960","0.0-1.0-761.0","0","0","47849","","null","response","","","null","84","","8","84","test","non_adjacent","1","5","N.jpg","L.jpg","NaN","1","0","","",""
"","","","html-keyboard-response","575","163965","0.0-1.0-763.0-0.0","1","0","47849","","null","too_slow_prompt","","","null","","","","","","","","","","","","","","","",""
"","","","html-keyboard-response","576","164069","0.0-1.0-764.0-0.0","0","0","47849","","null","time_out","","","null","84","","","","","","","","","","","","","","",""
"","","","html-keyboard-response","577","164573","0.0-1.0-765.0","0","0","47849","","null","ITI","","","null","84","","","","","","","","","","","","","","",""
"","","","html-keyboard-response","578","164825","0.0-1.0-767.0","0","0","47849","","null","S1","","","null","85","","","","","","","","","","","","","","",""
"","","","html-keyboard-response","579","164927","0.0-1.0-768.0","0","0","47849","","null","ISI","","","null","85","","","","","","","","","","","","","","",""
"","","","html-keyboard-response","580","165182","0.0-1.0-769.0","0","0","47849","","null","S2","","","null","85","","","","","","","","","","","","","","",""
"","","","html-keyboard-response","581","165686","0.0-1.0-770.0","0","0","47849","","null","response","","","null","85","","8","85","test","non_adjacent","6","4","P.jpg","Q.jpg","NaN","0","0","","",""
"","","","html-keyboard-response","582","166690","0.0-1.0-772.0-0.0","1","0","47849","","null","too_slow_prompt","","","null","","","","","","","","","","","","","","","",""
"","","","html-keyboard-response","583","166793","0.0-1.0-773.0-0.0","0","0","47849","","null","time_out","","","null","85","","","","","","","","","","","","","","",""
"","","","html-keyboard-response","584","167298","0.0-1.0-774.0","0","0","47849","","null","ITI","","","null","85","","","","","","","","","","","","","","",""
"","","","html-keyboard-response","585","167552","0.0-1.0-776.0","0","0","47849","","null","S1","","","null","86","","","","","","","","","","","","","","",""
"","","","html-keyboard-response","586","167653","0.0-1.0-777.0","0","0","47849","","null","ISI","","","null","86","","","","","","","","","","","","","","",""
"","","","html-keyboard-response","587","167907","0.0-1.0-778.0","0","0","47849","","null","S2","","","null","86","","","","","","","","","","","","","","",""
"","","","html-keyboard-response","588","168409","0.0-1.0-779.0","0","0","47849","","null","response","","","null","86","","8","86","test","adjacent","4","5","Q.jpg","L.jpg","NaN","1","0","","",""
"","","","html-keyboard-response","589","169411","0.0-1.0-781.0-0.0","1","0","47849","","null","too_slow_prompt","","","null","","","","","","","","","","","","","","","",""
"","","","html-keyboard-response","590","169516","0.0-1.0-782.0-0.0","0","0","47849","","null","time_out","","","null","86","","","","","","","","","","","","","","",""
"","","","html-keyboard-response","591","170018","0.0-1.0-783.0","0","0","47849","","null","ITI","","","null","86","","","","","","","","","","","","","","",""
"","","","html-keyboard-response","592","170273","0.0-1.0-785.0","0","0","47849","","null","S1","","","null","87","","","","","","","","","","","","","","",""
"","","","html-keyboard-response","593","170375","0.0-1.0-786.0","0","0","47849","","null","ISI","","","null","87","","","","","","","","","","","","","","",""
"","","","html-keyboard-response","594","170631","0.0-1.0-787.0","0","0","47849","","null","S2","","","null","87","","","","","","","","","","","","","","",""
