"success","ttype","start_time","trial_type","trial_index","time_elapsed","internal_node_id","warning","missed_checkup","PID","view_history","rt","responses","repeat_instructions","key_press","index","keypress_isi","keypress_S2","block","trial_num","phase","group_type","pair_type","S1_stim","S2_stim","S1_img","S2_img","S1_chosen","S1_higher","accuracy","keypress_iti","total_bonus_tally"
"true","full_screen","d03032023hr1951","fullscreen","0","22211","0.0-0.0","0","0","95695","","","","","","","","","","","","","","","","","","","","","",""
"","instructions","","instructions","1","173932","0.0-1.0-0.0-0.0","0","0","95695","[{""page_index"":0,""viewing_time"":8563},{""page_index"":1,""viewing_time"":138036},{""page_index"":2,""viewing_time"":2567},{""page_index"":3,""viewing_time"":2540}]","151710","","","","","","","","","","","","","","","","","","","",""
"","comprehension_check","","survey-multi-choice","2","203570","0.0-1.0-0.0-1.0","0","0","95695","","29617","{""Q0"":""True"",""Q1"":""K"",""Q2"":""Once the second image appears and while the screen 'MAKE A CHOICE' is shown"",""Q3"":""Green mark"",""Q4"":""either D or K""}","0","","","","","","","","","","","","","","","","","",""
"","start_exp","","html-keyboard-response","3","205787","0.0-1.0-1.0","0","0","95695","","2198","","","32","","","","","","","","","","","","","","","","",""
"","S1","","html-keyboard-response","4","206045","0.0-1.0-2.0","0","0","95695","","null","","","null","0","","","","","","","","","","","","","","","",""
"","ISI","","html-keyboard-response","5","206557","0.0-1.0-3.0","0","0","95695","","null","","","null","0","NaN","","","","","","","","","","","","","","",""
"","S2","","html-keyboard-response","6","206819","0.0-1.0-4.0","0","0","95695","","null","","","null","0","","NaN","","","","","","","","","","","","","",""
"","response","","html-keyboard-response","7","207510","0.0-1.0-5.0-0.0","0","0","95695","","683","","","75","0","","","1","0","training","adjacent","BA","2","1","O.jpg","P.jpg","1","0","0","",""
"","feedback","","html-keyboard-response","8","208520","0.0-1.0-6.0-0.0","0","0","95695","","null","","","null","0","","","","","","","","","","","","","","","",""
"","time_out","","html-keyboard-response","9","210532","0.0-1.0-8.0-0.0","0","0","95695","","null","","","null","0","","","","","","","","","","","","","","","",""
"","ITI","","html-keyboard-response","10","211540","0.0-1.0-9.0","0","0","95695","","null","","","null","0","","","","","","","","","","","","","","","NaN",""
"","S1","","html-keyboard-response","11","211802","0.0-1.0-11.0","0","0","95695","","null","","","null","1","","","","","","","","","","","","","","","",""
"","ISI","","html-keyboard-response","12","212316","0.0-1.0-12.0","0","0","95695","","197","","","68","1","d","","","","","","","","","","","","","","",""
"","S2","","html-keyboard-response","13","212575","0.0-1.0-13.0","0","0","95695","","null","","","null","1","","NaN","","","","","","","","","","","","","",""
"","response","","html-keyboard-response","14","212889","0.0-1.0-14.0-0.0","0","0","95695","","303","","","68","1","","","1","1","training","adjacent","BC","2","3","O.jpg","N.jpg","0","1","0","",""
"","feedback","","html-keyboard-response","15","213903","0.0-1.0-15.0-0.0","0","0","95695","","null","","","null","1","","","","","","","","","","","","","","","",""
"","time_out","","html-keyboard-response","16","215911","0.0-1.0-17.0-0.0","0","0","95695","","null","","","null","1","","","","","","","","","","","","","","","",""
"","ITI","","html-keyboard-response","17","216923","0.0-1.0-18.0","0","0","95695","","null","","","null","1","","","","","","","","","","","","","","","NaN",""
"","S1","","html-keyboard-response","18","217187","0.0-1.0-20.0","0","0","95695","","null","","","null","2","","","","","","","","","","","","","","","",""
"","ISI","","html-keyboard-response","19","217699","0.0-1.0-21.0","0","0","95695","","null","","","null","2","NaN","","","","","","","","","","","","","","",""
"","S2","","html-keyboard-response","20","217961","0.0-1.0-22.0","0","0","95695","","null","","","null","2","","NaN","","","","","","","","","","","","","",""
"","response","","html-keyboard-response","21","218364","0.0-1.0-23.0-0.0","0","0","95695","","389","","","75","2","","","1","2","training","adjacent","BC","2","3","O.jpg","N.jpg","1","1","1","",""
"","feedback","","html-keyboard-response","22","219378","0.0-1.0-24.0-0.0","0","0","95695","","null","","","null","2","","","","","","","","","","","","","","","",""
"","ITI","","html-keyboard-response","23","220390","0.0-1.0-27.0","0","0","95695","","null","","","null","2","","","","","","","","","","","","","","","NaN",""
"","S1","","html-keyboard-response","24","220649","0.0-1.0-29.0","0","0","95695","","null","","","null","3","","","","","","","","","","","","","","","",""
"","ISI","","html-keyboard-response","25","221158","0.0-1.0-30.0","0","0","95695","","null","","","null","3","NaN","","","","","","","","","","","","","","",""
"","S2","","html-keyboard-response","26","221424","0.0-1.0-31.0","0","0","95695","","null","","","null","3","","NaN","","","","","","","","","","","","","",""
"","response","","html-keyboard-response","27","222235","0.0-1.0-32.0-0.0","0","0","95695","","800","","","68","3","","","1","3","training","adjacent","FG","6","7","R.jpg","M.jpg","0","1","0","",""
"","feedback","","html-keyboard-response","28","223249","0.0-1.0-33.0-0.0","0","0","95695","","null","","","null","3","","","","","","","","","","","","","","","",""
"","time_out","","html-keyboard-response","29","225261","0.0-1.0-35.0-0.0","0","0","95695","","null","","","null","3","","","","","","","","","","","","","","","",""
"","ITI","","html-keyboard-response","30","226272","0.0-1.0-36.0","0","0","95695","","null","","","null","3","","","","","","","","","","","","","","","NaN",""
"","S1","","html-keyboard-response","31","226532","0.0-1.0-38.0","0","0","95695","","null","","","null","4","","","","","","","","","","","","","","","",""
"","ISI","","html-keyboard-response","32","227049","0.0-1.0-39.0","0","0","95695","","null","","","null","4","NaN","","","","","","","","","","","","","","",""
"","S2","","html-keyboard-response","33","227313","0.0-1.0-40.0","0","0","95695","","null","","","null","4","","NaN","","","","","","","","","","","","","",""
"","response","","html-keyboard-response","34","227336","0.0-1.0-41.0-0.0","0","0","95695","","15","","","68","4","","","1","4","training","adjacent","CB","3","2","N.jpg","O.jpg","0","0","1","",""
"","feedback","","html-keyboard-response","35","228350","0.0-1.0-42.0-0.0","0","0","95695","","null","","","null","4","","","","","","","","","","","","","","","",""
"","ITI","","html-keyboard-response","36","229361","0.0-1.0-45.0","0","0","95695","","null","","","null","4","","","","","","","","","","","","","","","NaN",""
"","S1","","html-keyboard-response","37","229624","0.0-1.0-47.0","0","0","95695","","null","","","null","5","","","","","","","","","","","","","","","",""
"","ISI","","html-keyboard-response","38","230135","0.0-1.0-48.0","0","0","95695","","null","","","null","5","NaN","","","","","","","","","","","","","","",""
"","S2","","html-keyboard-response","39","230398","0.0-1.0-49.0","0","0","95695","","null","","","null","5","","NaN","","","","","","","","","","","","","",""
"","response","","html-keyboard-response","40","230757","0.0-1.0-50.0-0.0","0","0","95695","","349","","","75","5","","","1","5","training","adjacent","GF","7","6","M.jpg","R.jpg","1","0","0","",""
"","feedback","","html-keyboard-response","41","231769","0.0-1.0-51.0-0.0","0","0","95695","","null","","","null","5","","","","","","","","","","","","","","","",""
"","time_out","","html-keyboard-response","42","233788","0.0-1.0-53.0-0.0","0","0","95695","","null","","","null","5","","","","","","","","","","","","","","","",""
"","ITI","","html-keyboard-response","43","234797","0.0-1.0-54.0","0","0","95695","","null","","","null","5","","","","","","","","","","","","","","","NaN",""
"","S1","","html-keyboard-response","44","235060","0.0-1.0-56.0","0","0","95695","","null","","","null","6","","","","","","","","","","","","","","","",""
"","ISI","","html-keyboard-response","45","235571","0.0-1.0-57.0","0","0","95695","","null","","","null","6","NaN","","","","","","","","","","","","","","",""
"","S2","","html-keyboard-response","46","235840","0.0-1.0-58.0","0","0","95695","","null","","","null","6","","NaN","","","","","","","","","","","","","",""
"","response","","html-keyboard-response","47","236183","0.0-1.0-59.0-0.0","0","0","95695","","332","","","68","6","","","1","6","training","adjacent","BA","2","1","O.jpg","P.jpg","0","0","1","",""
"","feedback","","html-keyboard-response","48","237198","0.0-1.0-60.0-0.0","0","0","95695","","null","","","null","6","","","","","","","","","","","","","","","",""
"","ITI","","html-keyboard-response","49","238208","0.0-1.0-63.0","0","0","95695","","null","","","null","6","","","","","","","","","","","","","","","NaN",""
"","S1","","html-keyboard-response","50","238470","0.0-1.0-65.0","0","0","95695","","null","","","null","7","","","","","","","","","","","","","","","",""
"","ISI","","html-keyboard-response","51","238982","0.0-1.0-66.0","0","0","95695","","null","","","null","7","NaN","","","","","","","","","","","","","","",""
"","S2","","html-keyboard-response","52","239246","0.0-1.0-67.0","0","0","95695","","null","","","null","7","","NaN","","","","","","","","","","","","","",""
"","response","","html-keyboard-response","53","239414","0.0-1.0-68.0-0.0","0","0","95695","","152","","","68","7","","","1","7","training","adjacent","EF","5","6","L.jpg","R.jpg","0","1","0","",""
"","feedback","","html-keyboard-response","54","240434","0.0-1.0-69.0-0.0","0","0","95695","","null","","","null","7","","","","","","","","","","","","","","","",""
"","time_out","","html-keyboard-response","55","242445","0.0-1.0-71.0-0.0","0","0","95695","","null","","","null","7","","","","","","","","","","","","","","","",""
"","ITI","","html-keyboard-response","56","243456","0.0-1.0-72.0","0","0","95695","","null","","","null","7","","","","","","","","","","","","","","","NaN",""
"","S1","","html-keyboard-response","57","243714","0.0-1.0-74.0","0","0","95695","","null","","","null","8","","","","","","","","","","","","","","","",""
"","ISI","","html-keyboard-response","58","244231","0.0-1.0-75.0","0","0","95695","","null","","","null","8","NaN","","","","","","","","","","","","","","",""
"","S2","","html-keyboard-response","59","244495","0.0-1.0-76.0","0","0","95695","","null","","","null","8","","NaN","","","","","","","","","","","","","",""
"","response","","html-keyboard-response","60","244823","0.0-1.0-77.0-0.0","0","0","95695","","318","","","75","8","","","1","8","training","adjacent","DE","4","5","Q.jpg","L.jpg","1","1","1","",""
"","feedback","","html-keyboard-response","61","245836","0.0-1.0-78.0-0.0","0","0","95695","","null","","","null","8","","","","","","","","","","","","","","","",""
"","ITI","","html-keyboard-response","62","246852","0.0-1.0-81.0","0","0","95695","","null","","","null","8","","","","","","","","","","","","","","","NaN",""
"","S1","","html-keyboard-response","63","247110","0.0-1.0-83.0","0","0","95695","","null","","","null","9","","","","","","","","","","","","","","","",""
"","ISI","","html-keyboard-response","64","247621","0.0-1.0-84.0","0","0","95695","","null","","","null","9","NaN","","","","","","","","","","","","","","",""
"","S2","","html-keyboard-response","65","247884","0.0-1.0-85.0","0","0","95695","","null","","","null","9","","NaN","","","","","","","","","","","","","",""
"","response","","html-keyboard-response","66","248359","0.0-1.0-86.0-0.0","0","0","95695","","462","","","75","9","","","1","9","training","adjacent","BC","2","3","O.jpg","N.jpg","1","1","1","",""
"","feedback","","html-keyboard-response","67","249371","0.0-1.0-87.0-0.0","0","0","95695","","null","","","null","9","","","","","","","","","","","","","","","",""
"","ITI","","html-keyboard-response","68","250384","0.0-1.0-90.0","0","0","95695","","null","","","null","9","","","","","","","","","","","","","","","NaN",""
"","S1","","html-keyboard-response","69","250644","0.0-1.0-92.0","0","0","95695","","null","","","null","10","","","","","","","","","","","","","","","",""
"","ISI","","html-keyboard-response","70","251155","0.0-1.0-93.0","0","0","95695","","null","","","null","10","NaN","","","","","","","","","","","","","","",""
"","S2","","html-keyboard-response","71","251419","0.0-1.0-94.0","0","0","95695","","null","","","null","10","","NaN","","","","","","","","","","","","","",""
"","response","","html-keyboard-response","72","251881","0.0-1.0-95.0-0.0","0","0","95695","","451","","","68","10","","","1","10","training","adjacent","ED","5","4","L.jpg","Q.jpg","0","0","1","",""
"","feedback","","html-keyboard-response","73","252896","0.0-1.0-96.0-0.0","0","0","95695","","null","","","null","10","","","","","","","","","","","","","","","",""
"","ITI","","html-keyboard-response","74","253909","0.0-1.0-99.0","0","0","95695","","null","","","null","10","","","","","","","","","","","","","","","NaN",""
"","S1","","html-keyboard-response","75","254170","0.0-1.0-101.0","0","0","95695","","null","","","null","11","","","","","","","","","","","","","","","",""
"","ISI","","html-keyboard-response","76","254683","0.0-1.0-102.0","0","0","95695","","null","","","null","11","NaN","","","","","","","","","","","","","","",""
"","S2","","html-keyboard-response","77","254945","0.0-1.0-103.0","0","0","95695","","null","","","null","11","","NaN","","","","","","","","","","","","","",""
"","response","","html-keyboard-response","78","255271","0.0-1.0-104.0-0.0","0","0","95695","","315","","","75","11","","","1","11","training","adjacent","CD","3","4","N.jpg","Q.jpg","1","1","1","",""
"","feedback","","html-keyboard-response","79","256283","0.0-1.0-105.0-0.0","0","0","95695","","null","","","null","11","","","","","","","","","","","","","","","",""
"","ITI","","html-keyboard-response","80","257292","0.0-1.0-108.0","0","0","95695","","null","","","null","11","","","","","","","","","","","","","","","NaN",""
"","S1","","html-keyboard-response","81","257555","0.0-1.0-110.0","0","0","95695","","null","","","null","12","","","","","","","","","","","","","","","",""
"","ISI","","html-keyboard-response","82","258064","0.0-1.0-111.0","0","0","95695","","null","","","null","12","NaN","","","","","","","","","","","","","","",""
"","S2","","html-keyboard-response","83","258324","0.0-1.0-112.0","0","0","95695","","null","","","null","12","","NaN","","","","","","","","","","","","","",""
"","response","","html-keyboard-response","84","258773","0.0-1.0-113.0-0.0","0","0","95695","","440","","","75","12","","","1","12","training","adjacent","AB","1","2","P.jpg","O.jpg","1","1","1","",""
"","feedback","","html-keyboard-response","85","259786","0.0-1.0-114.0-0.0","0","0","95695","","null","","","null","12","","","","","","","","","","","","","","","",""
"","ITI","","html-keyboard-response","86","260797","0.0-1.0-117.0","0","0","95695","","null","","","null","12","","","","","","","","","","","","","","","NaN",""
"","S1","","html-keyboard-response","87","261063","0.0-1.0-119.0","0","0","95695","","null","","","null","13","","","","","","","","","","","","","","","",""
"","ISI","","html-keyboard-response","88","261574","0.0-1.0-120.0","0","0","95695","","null","","","null","13","NaN","","","","","","","","","","","","","","",""
"","S2","","html-keyboard-response","89","261836","0.0-1.0-121.0","0","0","95695","","null","","","null","13","","NaN","","","","","","","","","","","","","",""
"","response","","html-keyboard-response","90","262333","0.0-1.0-122.0-0.0","0","0","95695","","486","","","68","13","","","1","13","training","adjacent","DE","4","5","Q.jpg","L.jpg","0","1","0","",""
"","feedback","","html-keyboard-response","91","263345","0.0-1.0-123.0-0.0","0","0","95695","","null","","","null","13","","","","","","","","","","","","","","","",""
"","time_out","","html-keyboard-response","92","265356","0.0-1.0-125.0-0.0","0","0","95695","","null","","","null","13","","","","","","","","","","","","","","","",""
"","ITI","","html-keyboard-response","93","266366","0.0-1.0-126.0","0","0","95695","","null","","","null","13","","","","","","","","","","","","","","","NaN",""
"","S1","","html-keyboard-response","94","266632","0.0-1.0-128.0","0","0","95695","","null","","","null","14","","","","","","","","","","","","","","","",""
"","ISI","","html-keyboard-response","95","267142","0.0-1.0-129.0","0","0","95695","","null","","","null","14","NaN","","","","","","","","","","","","","","",""
"","S2","","html-keyboard-response","96","267405","0.0-1.0-130.0","0","0","95695","","null","","","null","14","","NaN","","","","","","","","","","","","","",""
"","response","","html-keyboard-response","97","267816","0.0-1.0-131.0-0.0","0","0","95695","","402","","","75","14","","","1","14","training","adjacent","CB","3","2","N.jpg","O.jpg","1","0","0","",""
"","feedback","","html-keyboard-response","98","268831","0.0-1.0-132.0-0.0","0","0","95695","","null","","","null","14","","","","","","","","","","","","","","","",""
"","time_out","","html-keyboard-response","99","270842","0.0-1.0-134.0-0.0","0","0","95695","","null","","","null","14","","","","","","","","","","","","","","","",""
"","ITI","","html-keyboard-response","100","271850","0.0-1.0-135.0","0","0","95695","","null","","","null","14","","","","","","","","","","","","","","","NaN",""
"","S1","","html-keyboard-response","101","272108","0.0-1.0-137.0","0","0","95695","","null","","","null","15","","","","","","","","","","","","","","","",""
"","ISI","","html-keyboard-response","102","272621","0.0-1.0-138.0","0","0","95695","","null","","","null","15","NaN","","","","","","","","","","","","","","",""
"","S2","","html-keyboard-response","103","272883","0.0-1.0-139.0","0","0","95695","","null","","","null","15","","NaN","","","","","","","","","","","","","",""
"","response","","html-keyboard-response","104","272909","0.0-1.0-140.0-0.0","0","0","95695","","18","","","68","15","","","1","15","training","adjacent","EF","5","6","L.jpg","R.jpg","0","1","0","",""
"","feedback","","html-keyboard-response","105","273924","0.0-1.0-141.0-0.0","0","0","95695","","null","","","null","15","","","","","","","","","","","","","","","",""
"","time_out","","html-keyboard-response","106","275935","0.0-1.0-143.0-0.0","0","0","95695","","null","","","null","15","","","","","","","","","","","","","","","",""
"","ITI","","html-keyboard-response","107","276946","0.0-1.0-144.0","0","0","95695","","null","","","null","15","","","","","","","","","","","","","","","NaN",""
"","S1","","html-keyboard-response","108","277208","0.0-1.0-146.0","0","0","95695","","null","","","null","16","","","","","","","","","","","","","","","",""
"","ISI","","html-keyboard-response","109","277722","0.0-1.0-147.0","0","0","95695","","null","","","null","16","NaN","","","","","","","","","","","","","","",""
"","S2","","html-keyboard-response","110","277983","0.0-1.0-148.0","0","0","95695","","null","","","null","16","","NaN","","","","","","","","","","","","","",""
"","response","","html-keyboard-response","111","278394","0.0-1.0-149.0-0.0","0","0","95695","","401","","","68","16","","","1","16","training","adjacent","FG","6","7","R.jpg","M.jpg","0","1","0","",""
"","feedback","","html-keyboard-response","112","279407","0.0-1.0-150.0-0.0","0","0","95695","","null","","","null","16","","","","","","","","","","","","","","","",""
"","time_out","","html-keyboard-response","113","281418","0.0-1.0-152.0-0.0","0","0","95695","","null","","","null","16","","","","","","","","","","","","","","","",""
"","ITI","","html-keyboard-response","114","282429","0.0-1.0-153.0","0","0","95695","","null","","","null","16","","","","","","","","","","","","","","","NaN",""
"","S1","","html-keyboard-response","115","282694","0.0-1.0-155.0","0","0","95695","","null","","","null","17","","","","","","","","","","","","","","","",""
"","ISI","","html-keyboard-response","116","283205","0.0-1.0-156.0","0","0","95695","","null","","","null","17","NaN","","","","","","","","","","","","","","",""
"","S2","","html-keyboard-response","117","283472","0.0-1.0-157.0","0","0","95695","","null","","","null","17","","NaN","","","","","","","","","","","","","",""
"","response","","html-keyboard-response","118","284000","0.0-1.0-158.0-0.0","0","0","95695","","520","","","75","17","","","1","17","training","adjacent","DC","4","3","Q.jpg","N.jpg","1","0","0","",""
"","feedback","","html-keyboard-response","119","285010","0.0-1.0-159.0-0.0","0","0","95695","","null","","","null","17","","","","","","","","","","","","","","","",""
"","time_out","","html-keyboard-response","120","287024","0.0-1.0-161.0-0.0","0","0","95695","","null","","","null","17","","","","","","","","","","","","","","","",""
"","ITI","","html-keyboard-response","121","288037","0.0-1.0-162.0","0","0","95695","","null","","","null","17","","","","","","","","","","","","","","","NaN",""
"","S1","","html-keyboard-response","122","288301","0.0-1.0-164.0","0","0","95695","","null","","","null","18","","","","","","","","","","","","","","","",""
"","ISI","","html-keyboard-response","123","288815","0.0-1.0-165.0","0","0","95695","","null","","","null","18","NaN","","","","","","","","","","","","","","",""
"","S2","","html-keyboard-response","124","289077","0.0-1.0-166.0","0","0","95695","","null","","","null","18","","NaN","","","","","","","","","","","","","",""
"","response","","html-keyboard-response","125","289470","0.0-1.0-167.0-0.0","0","0","95695","","383","","","68","18","","","1","18","training","adjacent","ED","5","4","L.jpg","Q.jpg","0","0","1","",""
"","feedback","","html-keyboard-response","126","290482","0.0-1.0-168.0-0.0","0","0","95695","","null","","","null","18","","","","","","","","","","","","","","","",""
"","ITI","","html-keyboard-response","127","291495","0.0-1.0-171.0","0","0","95695","","null","","","null","18","","","","","","","","","","","","","","","NaN",""
"","S1","","html-keyboard-response","128","291762","0.0-1.0-173.0","0","0","95695","","null","","","null","19","","","","","","","","","","","","","","","",""
"","ISI","","html-keyboard-response","129","292273","0.0-1.0-174.0","0","0","95695","","null","","","null","19","NaN","","","","","","","","","","","","","","",""
"","S2","","html-keyboard-response","130","292533","0.0-1.0-175.0","0","0","95695","","null","","","null","19","","NaN","","","","","","","","","","","","","",""
"","response","","html-keyboard-response","131","293022","0.0-1.0-176.0-0.0","0","0","95695","","479","","","68","19","","","1","19","training","adjacent","CD","3","4","N.jpg","Q.jpg","0","1","0","",""
"","feedback","","html-keyboard-response","132","294036","0.0-1.0-177.0-0.0","0","0","95695","","null","","","null","19","","","","","","","","","","","","","","","",""
"","time_out","","html-keyboard-response","133","296048","0.0-1.0-179.0-0.0","0","0","95695","","null","","","null","19","","","","","","","","","","","","","","","",""
"","ITI","","html-keyboard-response","134","297060","0.0-1.0-180.0","0","0","95695","","null","","","null","19","","","","","","","","","","","","","","","NaN",""
"","S1","","html-keyboard-response","135","297321","0.0-1.0-182.0","0","0","95695","","null","","","null","20","","","","","","","","","","","","","","","",""
"","ISI","","html-keyboard-response","136","297830","0.0-1.0-183.0","0","0","95695","","null","","","null","20","NaN","","","","","","","","","","","","","","",""
"","S2","","html-keyboard-response","137","298097","0.0-1.0-184.0","0","0","95695","","null","","","null","20","","NaN","","","","","","","","","","","","","",""
"","response","","html-keyboard-response","138","298441","0.0-1.0-185.0-0.0","0","0","95695","","336","","","68","20","","","1","20","training","adjacent","BA","2","1","O.jpg","P.jpg","0","0","1","",""
"","feedback","","html-keyboard-response","139","299452","0.0-1.0-186.0-0.0","0","0","95695","","null","","","null","20","","","","","","","","","","","","","","","",""
"","ITI","","html-keyboard-response","140","300465","0.0-1.0-189.0","0","0","95695","","null","","","null","20","","","","","","","","","","","","","","","NaN",""
"","S1","","html-keyboard-response","141","300724","0.0-1.0-191.0","0","0","95695","","null","","","null","21","","","","","","","","","","","","","","","",""
"","ISI","","html-keyboard-response","142","301235","0.0-1.0-192.0","0","0","95695","","null","","","null","21","NaN","","","","","","","","","","","","","","",""
"","S2","","html-keyboard-response","143","301503","0.0-1.0-193.0","0","0","95695","","null","","","null","21","","NaN","","","","","","","","","","","","","",""
"","response","","html-keyboard-response","144","302307","0.0-1.0-194.0-0.0","0","0","95695","","793","","","75","21","","","1","21","training","adjacent","CB","3","2","N.jpg","O.jpg","1","0","0","",""
"","feedback","","html-keyboard-response","145","303317","0.0-1.0-195.0-0.0","0","0","95695","","null","","","null","21","","","","","","","","","","","","","","","",""
"","time_out","","html-keyboard-response","146","305329","0.0-1.0-197.0-0.0","0","0","95695","","null","","","null","21","","","","","","","","","","","","","","","",""
"","ITI","","html-keyboard-response","147","306341","0.0-1.0-198.0","0","0","95695","","null","","","null","21","","","","","","","","","","","","","","","NaN",""
"","S1","","html-keyboard-response","148","306603","0.0-1.0-200.0","0","0","95695","","null","","","null","22","","","","","","","","","","","","","","","",""
"","ISI","","html-keyboard-response","149","307113","0.0-1.0-201.0","0","0","95695","","null","","","null","22","NaN","","","","","","","","","","","","","","",""
"","S2","","html-keyboard-response","150","307375","0.0-1.0-202.0","0","0","95695","","null","","","null","22","","NaN","","","","","","","","","","","","","",""
"","response","","html-keyboard-response","151","307791","0.0-1.0-203.0-0.0","0","0","95695","","408","","","68","22","","","1","22","training","adjacent","DC","4","3","Q.jpg","N.jpg","0","0","1","",""
"","feedback","","html-keyboard-response","152","308803","0.0-1.0-204.0-0.0","0","0","95695","","null","","","null","22","","","","","","","","","","","","","","","",""
"","ITI","","html-keyboard-response","153","309813","0.0-1.0-207.0","0","0","95695","","null","","","null","22","","","","","","","","","","","","","","","NaN",""
"","S1","","html-keyboard-response","154","310076","0.0-1.0-209.0","0","0","95695","","null","","","null","23","","","","","","","","","","","","","","","",""
"","ISI","","html-keyboard-response","155","310587","0.0-1.0-210.0","0","0","95695","","null","","","null","23","NaN","","","","","","","","","","","","","","",""
"","S2","","html-keyboard-response","156","310850","0.0-1.0-211.0","0","0","95695","","null","","","null","23","","NaN","","","","","","","","","","","","","",""
"","response","","html-keyboard-response","157","311136","0.0-1.0-212.0-0.0","0","0","95695","","277","","","75","23","","","1","23","training","adjacent","ED","5","4","L.jpg","Q.jpg","1","0","0","",""
"","feedback","","html-keyboard-response","158","312147","0.0-1.0-213.0-0.0","0","0","95695","","null","","","null","23","","","","","","","","","","","","","","","",""
"","time_out","","html-keyboard-response","159","314157","0.0-1.0-215.0-0.0","0","0","95695","","null","","","null","23","","","","","","","","","","","","","","","",""
"","ITI","","html-keyboard-response","160","315169","0.0-1.0-216.0","0","0","95695","","null","","","null","23","","","","","","","","","","","","","","","NaN",""
"","S1","","html-keyboard-response","161","315430","0.0-1.0-218.0","0","0","95695","","null","","","null","24","","","","","","","","","","","","","","","",""
"","ISI","","html-keyboard-response","162","315941","0.0-1.0-219.0","0","0","95695","","null","","","null","24","NaN","","","","","","","","","","","","","","",""
"","S2","","html-keyboard-response","163","316203","0.0-1.0-220.0","0","0","95695","","null","","","null","24","","NaN","","","","","","","","","","","","","",""
"","response","","html-keyboard-response","164","316673","0.0-1.0-221.0-0.0","0","0","95695","","459","","","68","24","","","1","24","training","adjacent","DC","4","3","Q.jpg","N.jpg","0","0","1","",""
"","feedback","","html-keyboard-response","165","317685","0.0-1.0-222.0-0.0","0","0","95695","","null","","","null","24","","","","","","","","","","","","","","","",""
"","ITI","","html-keyboard-response","166","318697","0.0-1.0-225.0","0","0","95695","","null","","","null","24","","","","","","","","","","","","","","","NaN",""
"","S1","","html-keyboard-response","167","318962","0.0-1.0-227.0","0","0","95695","","null","","","null","25","","","","","","","","","","","","","","","",""
"","ISI","","html-keyboard-response","168","319473","0.0-1.0-228.0","0","0","95695","","null","","","null","25","NaN","","","","","","","","","","","","","","",""
"","S2","","html-keyboard-response","169","319733","0.0-1.0-229.0","0","0","95695","","null","","","null","25","","NaN","","","","","","","","","","","","","",""
"","response","","html-keyboard-response","170","320153","0.0-1.0-230.0-0.0","0","0","95695","","410","","","68","25","","","1","25","training","adjacent","GF","7","6","M.jpg","R.jpg","0","0","1","",""
"","feedback","","html-keyboard-response","171","321164","0.0-1.0-231.0-0.0","0","0","95695","","null","","","null","25","","","","","","","","","","","","","","","",""
"","ITI","","html-keyboard-response","172","322174","0.0-1.0-234.0","0","0","95695","","null","","","null","25","","","","","","","","","","","","","","","NaN",""
"","S1","","html-keyboard-response","173","322439","0.0-1.0-236.0","0","0","95695","","null","","","null","26","","","","","","","","","","","","","","","",""
"","ISI","","html-keyboard-response","174","322950","0.0-1.0-237.0","0","0","95695","","null","","","null","26","NaN","","","","","","","","","","","","","","",""
"","S2","","html-keyboard-response","175","323215","0.0-1.0-238.0","0","0","95695","","null","","","null","26","","NaN","","","","","","","","","","","","","",""
"","response","","html-keyboard-response","176","323244","0.0-1.0-239.0-0.0","0","0","95695","","22","","","68","26","","","1","26","training","adjacent","EF","5","6","L.jpg","R.jpg","0","1","0","",""
"","feedback","","html-keyboard-response","177","324254","0.0-1.0-240.0-0.0","0","0","95695","","null","","","null","26","","","","","","","","","","","","","","","",""
"","time_out","","html-keyboard-response","178","326265","0.0-1.0-242.0-0.0","0","0","95695","","null","","","null","26","","","","","","","","","","","","","","","",""
"","ITI","","html-keyboard-response","179","327278","0.0-1.0-243.0","0","0","95695","","null","","","null","26","","","","","","","","","","","","","","","NaN",""
"","S1","","html-keyboard-response","180","327539","0.0-1.0-245.0","0","0","95695","","null","","","null","27","","","","","","","","","","","","","","","",""
"","ISI","","html-keyboard-response","181","328050","0.0-1.0-246.0","0","0","95695","","null","","","null","27","NaN","","","","","","","","","","","","","","",""
"","S2","","html-keyboard-response","182","328314","0.0-1.0-247.0","0","0","95695","","null","","","null","27","","NaN","","","","","","","","","","","","","",""
"","response","","html-keyboard-response","183","328644","0.0-1.0-248.0-0.0","0","0","95695","","319","","","75","27","","","1","27","training","adjacent","FE","6","5","R.jpg","L.jpg","1","0","0","",""
"","feedback","","html-keyboard-response","184","329657","0.0-1.0-249.0-0.0","0","0","95695","","null","","","null","27","","","","","","","","","","","","","","","",""
"","time_out","","html-keyboard-response","185","331667","0.0-1.0-251.0-0.0","0","0","95695","","null","","","null","27","","","","","","","","","","","","","","","",""
"","ITI","","html-keyboard-response","186","332678","0.0-1.0-252.0","0","0","95695","","null","","","null","27","","","","","","","","","","","","","","","NaN",""
"","S1","","html-keyboard-response","187","332941","0.0-1.0-254.0","0","0","95695","","null","","","null","28","","","","","","","","","","","","","","","",""
"","ISI","","html-keyboard-response","188","333453","0.0-1.0-255.0","0","0","95695","","null","","","null","28","NaN","","","","","","","","","","","","","","",""
"","S2","","html-keyboard-response","189","333714","0.0-1.0-256.0","0","0","95695","","null","","","null","28","","NaN","","","","","","","","","","","","","",""
"","response","","html-keyboard-response","190","334088","0.0-1.0-257.0-0.0","0","0","95695","","365","","","75","28","","","1","28","training","adjacent","DE","4","5","Q.jpg","L.jpg","1","1","1","",""
"","feedback","","html-keyboard-response","191","335097","0.0-1.0-258.0-0.0","0","0","95695","","null","","","null","28","","","","","","","","","","","","","","","",""
"","ITI","","html-keyboard-response","192","336110","0.0-1.0-261.0","0","0","95695","","null","","","null","28","","","","","","","","","","","","","","","NaN",""
"","S1","","html-keyboard-response","193","336371","0.0-1.0-263.0","0","0","95695","","null","","","null","29","","","","","","","","","","","","","","","",""
"","ISI","","html-keyboard-response","194","336884","0.0-1.0-264.0","0","0","95695","","null","","","null","29","NaN","","","","","","","","","","","","","","",""
"","S2","","html-keyboard-response","195","337147","0.0-1.0-265.0","0","0","95695","","null","","","null","29","","NaN","","","","","","","","","","","","","",""
"","response","","html-keyboard-response","196","337510","0.0-1.0-266.0-0.0","0","0","95695","","355","","","75","29","","","1","29","training","adjacent","CD","3","4","N.jpg","Q.jpg","1","1","1","",""
"","feedback","","html-keyboard-response","197","338518","0.0-1.0-267.0-0.0","0","0","95695","","null","","","null","29","","","","","","","","","","","","","","","",""
"","ITI","","html-keyboard-response","198","339528","0.0-1.0-270.0","0","0","95695","","null","","","null","29","","","","","","","","","","","","","","","NaN",""
"","S1","","html-keyboard-response","199","339793","0.0-1.0-272.0","0","0","95695","","null","","","null","30","","","","","","","","","","","","","","","",""
"","ISI","","html-keyboard-response","200","340304","0.0-1.0-273.0","0","0","95695","","null","","","null","30","NaN","","","","","","","","","","","","","","",""
"","S2","","html-keyboard-response","201","340567","0.0-1.0-274.0","0","0","95695","","null","","","null","30","","NaN","","","","","","","","","","","","","",""
"","response","","html-keyboard-response","202","340616","0.0-1.0-275.0-0.0","0","0","95695","","38","","","75","30","","","1","30","training","adjacent","DE","4","5","Q.jpg","L.jpg","1","1","1","",""
"","feedback","","html-keyboard-response","203","341629","0.0-1.0-276.0-0.0","0","0","95695","","null","","","null","30","","","","","","","","","","","","","","","",""
"","ITI","","html-keyboard-response","204","342636","0.0-1.0-279.0","0","0","95695","","null","","","null","30","","","","","","","","","","","","","","","NaN",""
"","S1","","html-keyboard-response","205","342898","0.0-1.0-281.0","0","0","95695","","null","","","null","31","","","","","","","","","","","","","","","",""
"","ISI","","html-keyboard-response","206","343408","0.0-1.0-282.0","0","0","95695","","null","","","null","31","NaN","","","","","","","","","","","","","","",""
"","S2","","html-keyboard-response","207","343673","0.0-1.0-283.0","0","0","95695","","null","","","null","31","","NaN","","","","","","","","","","","","","",""
"","response","","html-keyboard-response","208","344306","0.0-1.0-284.0-0.0","0","0","95695","","621","","","75","31","","","1","31","training","adjacent","BC","2","3","O.jpg","N.jpg","1","1","1","",""
"","feedback","","html-keyboard-response","209","345320","0.0-1.0-285.0-0.0","0","0","95695","","null","","","null","31","","","","","","","","","","","","","","","",""
"","ITI","","html-keyboard-response","210","346333","0.0-1.0-288.0","0","0","95695","","null","","","null","31","","","","","","","","","","","","","","","NaN",""
"","S1","","html-keyboard-response","211","346593","0.0-1.0-290.0","0","0","95695","","null","","","null","32","","","","","","","","","","","","","","","",""
"","ISI","","html-keyboard-response","212","347101","0.0-1.0-291.0","0","0","95695","","null","","","null","32","NaN","","","","","","","","","","","","","","",""
"","S2","","html-keyboard-response","213","347361","0.0-1.0-292.0","0","0","95695","","null","","","null","32","","NaN","","","","","","","","","","","","","",""
"","response","","html-keyboard-response","214","347693","0.0-1.0-293.0-0.0","0","0","95695","","322","","","75","32","","","1","32","training","adjacent","FG","6","7","R.jpg","M.jpg","1","1","1","",""
"","feedback","","html-keyboard-response","215","348708","0.0-1.0-294.0-0.0","0","0","95695","","null","","","null","32","","","","","","","","","","","","","","","",""
"","ITI","","html-keyboard-response","216","349722","0.0-1.0-297.0","0","0","95695","","null","","","null","32","","","","","","","","","","","","","","","NaN",""
"","S1","","html-keyboard-response","217","349984","0.0-1.0-299.0","0","0","95695","","null","","","null","33","","","","","","","","","","","","","","","",""
"","ISI","","html-keyboard-response","218","350501","0.0-1.0-300.0","0","0","95695","","null","","","null","33","NaN","","","","","","","","","","","","","","",""
"","S2","","html-keyboard-response","219","350762","0.0-1.0-301.0","0","0","95695","","null","","","null","33","","NaN","","","","","","","","","","","","","",""
"","response","","html-keyboard-response","220","351095","0.0-1.0-302.0-0.0","0","0","95695","","322","","","68","33","","","1","33","training","adjacent","AB","1","2","P.jpg","O.jpg","0","1","0","",""
"","feedback","","html-keyboard-response","221","352105","0.0-1.0-303.0-0.0","0","0","95695","","null","","","null","33","","","","","","","","","","","","","","","",""
"","time_out","","html-keyboard-response","222","354117","0.0-1.0-305.0-0.0","0","0","95695","","null","","","null","33","","","","","","","","","","","","","","","",""
"","ITI","","html-keyboard-response","223","355131","0.0-1.0-306.0","0","0","95695","","null","","","null","33","","","","","","","","","","","","","","","NaN",""
"","S1","","html-keyboard-response","224","355393","0.0-1.0-308.0","0","0","95695","","null","","","null","34","","","","","","","","","","","","","","","",""
"","ISI","","html-keyboard-response","225","355907","0.0-1.0-309.0","0","0","95695","","null","","","null","34","NaN","","","","","","","","","","","","","","",""
"","S2","","html-keyboard-response","226","356171","0.0-1.0-310.0","0","0","95695","","null","","","null","34","","NaN","","","","","","","","","","","","","",""
"","response","","html-keyboard-response","227","356456","0.0-1.0-311.0-0.0","0","0","95695","","276","","","75","34","","","1","34","training","adjacent","BA","2","1","O.jpg","P.jpg","1","0","0","",""
"","feedback","","html-keyboard-response","228","357466","0.0-1.0-312.0-0.0","0","0","95695","","null","","","null","34","","","","","","","","","","","","","","","",""
"","time_out","","html-keyboard-response","229","359481","0.0-1.0-314.0-0.0","0","0","95695","","null","","","null","34","","","","","","","","","","","","","","","",""
"","ITI","","html-keyboard-response","230","360494","0.0-1.0-315.0","0","0","95695","","null","","","null","34","","","","","","","","","","","","","","","NaN",""
"","S1","","html-keyboard-response","231","360755","0.0-1.0-317.0","0","0","95695","","null","","","null","35","","","","","","","","","","","","","","","",""
"","ISI","","html-keyboard-response","232","361270","0.0-1.0-318.0","0","0","95695","","null","","","null","35","NaN","","","","","","","","","","","","","","",""
"","S2","","html-keyboard-response","233","361531","0.0-1.0-319.0","0","0","95695","","null","","","null","35","","NaN","","","","","","","","","","","","","",""
"","response","","html-keyboard-response","234","361866","0.0-1.0-320.0-0.0","0","0","95695","","326","","","68","35","","","1","35","training","adjacent","FE","6","5","R.jpg","L.jpg","0","0","1","",""
"","feedback","","html-keyboard-response","235","362880","0.0-1.0-321.0-0.0","0","0","95695","","null","","","null","35","","","","","","","","","","","","","","","",""
"","ITI","","html-keyboard-response","236","363892","0.0-1.0-324.0","0","0","95695","","null","","","null","35","","","","","","","","","","","","","","","NaN",""
"","S1","","html-keyboard-response","237","364155","0.0-1.0-326.0","0","0","95695","","null","","","null","36","","","","","","","","","","","","","","","",""
"","ISI","","html-keyboard-response","238","364666","0.0-1.0-327.0","0","0","95695","","null","","","null","36","NaN","","","","","","","","","","","","","","",""
"","S2","","html-keyboard-response","239","364926","0.0-1.0-328.0","0","0","95695","","null","","","null","36","","NaN","","","","","","","","","","","","","",""
"","response","","html-keyboard-response","240","365635","0.0-1.0-329.0-0.0","0","0","95695","","695","","","68","36","","","1","36","training","adjacent","AB","1","2","P.jpg","O.jpg","0","1","0","",""
"","feedback","","html-keyboard-response","241","366649","0.0-1.0-330.0-0.0","0","0","95695","","null","","","null","36","","","","","","","","","","","","","","","",""
"","time_out","","html-keyboard-response","242","368658","0.0-1.0-332.0-0.0","0","0","95695","","null","","","null","36","","","","","","","","","","","","","","","",""
"","ITI","","html-keyboard-response","243","369670","0.0-1.0-333.0","0","0","95695","","null","","","null","36","","","","","","","","","","","","","","","NaN",""
"","S1","","html-keyboard-response","244","369933","0.0-1.0-335.0","0","0","95695","","null","","","null","37","","","","","","","","","","","","","","","",""
"","ISI","","html-keyboard-response","245","370445","0.0-1.0-336.0","0","0","95695","","null","","","null","37","NaN","","","","","","","","","","","","","","",""
"","S2","","html-keyboard-response","246","370707","0.0-1.0-337.0","0","0","95695","","null","","","null","37","","NaN","","","","","","","","","","","","","",""
"","response","","html-keyboard-response","247","371221","0.0-1.0-338.0-0.0","0","0","95695","","506","","","68","37","","","1","37","training","adjacent","AB","1","2","P.jpg","O.jpg","0","1","0","",""
"","feedback","","html-keyboard-response","248","372231","0.0-1.0-339.0-0.0","0","0","95695","","null","","","null","37","","","","","","","","","","","","","","","",""
"","time_out","","html-keyboard-response","249","374244","0.0-1.0-341.0-0.0","0","0","95695","","null","","","null","37","","","","","","","","","","","","","","","",""
"","ITI","","html-keyboard-response","250","375258","0.0-1.0-342.0","0","0","95695","","593","","","68","37","","","","","","","","","","","","","","","d",""
"","S1","","html-keyboard-response","251","375515","0.0-1.0-344.0","0","0","95695","","null","","","null","38","","","","","","","","","","","","","","","",""
"","ISI","","html-keyboard-response","252","376027","0.0-1.0-345.0","0","0","95695","","null","","","null","38","NaN","","","","","","","","","","","","","","",""
"","S2","","html-keyboard-response","253","376277","0.0-1.0-346.0","0","0","95695","","241","","","68","38","","d","1","38","training","adjacent","FG","6","7","R.jpg","M.jpg","0","1","0","",""
"","feedback","","html-keyboard-response","254","377288","0.0-1.0-348.0-0.0","0","0","95695","","null","","","null","38","","","","","","","","","","","","","","","",""
"","time_out","","html-keyboard-response","255","379301","0.0-1.0-350.0-0.0","0","0","95695","","null","","","null","38","","","","","","","","","","","","","","","",""
"","ITI","","html-keyboard-response","256","380313","0.0-1.0-351.0","0","0","95695","","null","","","null","38","","","","","","","","","","","","","","","NaN",""
"","S1","","html-keyboard-response","257","380574","0.0-1.0-353.0","0","0","95695","","null","","","null","39","","","","","","","","","","","","","","","",""
"","ISI","","html-keyboard-response","258","381087","0.0-1.0-354.0","0","0","95695","","null","","","null","39","NaN","","","","","","","","","","","","","","",""
"","S2","","html-keyboard-response","259","381352","0.0-1.0-355.0","0","0","95695","","null","","","null","39","","NaN","","","","","","","","","","","","","",""
"","response","","html-keyboard-response","260","381689","0.0-1.0-356.0-0.0","0","0","95695","","327","","","68","39","","","1","39","training","adjacent","DC","4","3","Q.jpg","N.jpg","0","0","1","",""
"","feedback","","html-keyboard-response","261","382703","0.0-1.0-357.0-0.0","0","0","95695","","null","","","null","39","","","","","","","","","","","","","","","",""
"","ITI","","html-keyboard-response","262","383712","0.0-1.0-360.0","0","0","95695","","null","","","null","39","","","","","","","","","","","","","","","NaN",""
"","S1","","html-keyboard-response","263","383974","0.0-1.0-362.0","0","0","95695","","null","","","null","40","","","","","","","","","","","","","","","",""
"","ISI","","html-keyboard-response","264","384485","0.0-1.0-363.0","0","0","95695","","null","","","null","40","NaN","","","","","","","","","","","","","","",""
"","S2","","html-keyboard-response","265","384751","0.0-1.0-364.0","0","0","95695","","null","","","null","40","","NaN","","","","","","","","","","","","","",""
"","response","","html-keyboard-response","266","385163","0.0-1.0-365.0-0.0","0","0","95695","","402","","","68","40","","","1","40","training","adjacent","GF","7","6","M.jpg","R.jpg","0","0","1","",""
"","feedback","","html-keyboard-response","267","386173","0.0-1.0-366.0-0.0","0","0","95695","","null","","","null","40","","","","","","","","","","","","","","","",""
"","ITI","","html-keyboard-response","268","387186","0.0-1.0-369.0","0","0","95695","","null","","","null","40","","","","","","","","","","","","","","","NaN",""
"","S1","","html-keyboard-response","269","387447","0.0-1.0-371.0","0","0","95695","","null","","","null","41","","","","","","","","","","","","","","","",""
"","ISI","","html-keyboard-response","270","387959","0.0-1.0-372.0","0","0","95695","","null","","","null","41","NaN","","","","","","","","","","","","","","",""
"","S2","","html-keyboard-response","271","388226","0.0-1.0-373.0","0","0","95695","","null","","","null","41","","NaN","","","","","","","","","","","","","",""
"","response","","html-keyboard-response","272","388691","0.0-1.0-374.0-0.0","0","0","95695","","457","","","68","41","","","1","41","training","adjacent","FE","6","5","R.jpg","L.jpg","0","0","1","",""
"","feedback","","html-keyboard-response","273","389706","0.0-1.0-375.0-0.0","0","0","95695","","null","","","null","41","","","","","","","","","","","","","","","",""
"","ITI","","html-keyboard-response","274","390717","0.0-1.0-378.0","0","0","95695","","null","","","null","41","","","","","","","","","","","","","","","NaN",""
"","S1","","html-keyboard-response","275","390980","0.0-1.0-380.0","0","0","95695","","null","","","null","42","","","","","","","","","","","","","","","",""
"","ISI","","html-keyboard-response","276","391499","0.0-1.0-381.0","0","0","95695","","null","","","null","42","NaN","","","","","","","","","","","","","","",""
"","S2","","html-keyboard-response","277","391758","0.0-1.0-382.0","0","0","95695","","null","","","null","42","","NaN","","","","","","","","","","","","","",""
"","response","","html-keyboard-response","278","392309","0.0-1.0-383.0-0.0","0","0","95695","","543","","","68","42","","","1","42","training","adjacent","CB","3","2","N.jpg","O.jpg","0","0","1","",""
"","feedback","","html-keyboard-response","279","393321","0.0-1.0-384.0-0.0","0","0","95695","","null","","","null","42","","","","","","","","","","","","","","","",""
"","ITI","","html-keyboard-response","280","394334","0.0-1.0-387.0","0","0","95695","","null","","","null","42","","","","","","","","","","","","","","","NaN",""
"","S1","","html-keyboard-response","281","394597","0.0-1.0-389.0","0","0","95695","","null","","","null","43","","","","","","","","","","","","","","","",""
"","ISI","","html-keyboard-response","282","395104","0.0-1.0-390.0","0","0","95695","","null","","","null","43","NaN","","","","","","","","","","","","","","",""
"","S2","","html-keyboard-response","283","395363","0.0-1.0-391.0","0","0","95695","","null","","","null","43","","NaN","","","","","","","","","","","","","",""
"","response","","html-keyboard-response","284","395688","0.0-1.0-392.0-0.0","0","0","95695","","310","","","68","43","","","1","43","training","adjacent","CD","3","4","N.jpg","Q.jpg","0","1","0","",""
"","feedback","","html-keyboard-response","285","396701","0.0-1.0-393.0-0.0","0","0","95695","","null","","","null","43","","","","","","","","","","","","","","","",""
"","time_out","","html-keyboard-response","286","398713","0.0-1.0-395.0-0.0","0","0","95695","","null","","","null","43","","","","","","","","","","","","","","","",""
"","ITI","","html-keyboard-response","287","399727","0.0-1.0-396.0","0","0","95695","","null","","","null","43","","","","","","","","","","","","","","","NaN",""
"","S1","","html-keyboard-response","288","399992","0.0-1.0-398.0","0","0","95695","","null","","","null","44","","","","","","","","","","","","","","","",""
"","ISI","","html-keyboard-response","289","400506","0.0-1.0-399.0","0","0","95695","","null","","","null","44","NaN","","","","","","","","","","","","","","",""
"","S2","","html-keyboard-response","290","400758","0.0-1.0-400.0","0","0","95695","","243","","","68","44","","d","1","44","training","adjacent","GF","7","6","M.jpg","R.jpg","0","0","1","",""
"","feedback","","html-keyboard-response","291","401770","0.0-1.0-402.0-0.0","0","0","95695","","null","","","null","44","","","","","","","","","","","","","","","",""
"","ITI","","html-keyboard-response","292","402783","0.0-1.0-405.0","0","0","95695","","null","","","null","44","","","","","","","","","","","","","","","NaN",""
"","S1","","html-keyboard-response","293","403049","0.0-1.0-407.0","0","0","95695","","null","","","null","45","","","","","","","","","","","","","","","",""
"","ISI","","html-keyboard-response","294","403558","0.0-1.0-408.0","0","0","95695","","null","","","null","45","NaN","","","","","","","","","","","","","","",""
"","S2","","html-keyboard-response","295","403823","0.0-1.0-409.0","0","0","95695","","null","","","null","45","","NaN","","","","","","","","","","","","","",""
"","response","","html-keyboard-response","296","404240","0.0-1.0-410.0-0.0","0","0","95695","","406","","","75","45","","","1","45","training","adjacent","ED","5","4","L.jpg","Q.jpg","1","0","0","",""
"","feedback","","html-keyboard-response","297","405252","0.0-1.0-411.0-0.0","0","0","95695","","null","","","null","45","","","","","","","","","","","","","","","",""
"","time_out","","html-keyboard-response","298","407262","0.0-1.0-413.0-0.0","0","0","95695","","null","","","null","45","","","","","","","","","","","","","","","",""
"","ITI","","html-keyboard-response","299","408277","0.0-1.0-414.0","0","0","95695","","null","","","null","45","","","","","","","","","","","","","","","NaN",""
"","S1","","html-keyboard-response","300","408543","0.0-1.0-416.0","0","0","95695","","null","","","null","46","","","","","","","","","","","","","","","",""
"","ISI","","html-keyboard-response","301","409060","0.0-1.0-417.0","0","0","95695","","null","","","null","46","NaN","","","","","","","","","","","","","","",""
"","S2","","html-keyboard-response","302","409321","0.0-1.0-418.0","0","0","95695","","null","","","null","46","","NaN","","","","","","","","","","","","","",""
"","response","","html-keyboard-response","303","409595","0.0-1.0-419.0-0.0","0","0","95695","","265","","","68","46","","","1","46","training","adjacent","EF","5","6","L.jpg","R.jpg","0","1","0","",""
"","feedback","","html-keyboard-response","304","410607","0.0-1.0-420.0-0.0","0","0","95695","","null","","","null","46","","","","","","","","","","","","","","","",""
"","time_out","","html-keyboard-response","305","412621","0.0-1.0-422.0-0.0","0","0","95695","","null","","","null","46","","","","","","","","","","","","","","","",""
"","ITI","","html-keyboard-response","306","413636","0.0-1.0-423.0","0","0","95695","","null","","","null","46","","","","","","","","","","","","","","","NaN",""
"","S1","","html-keyboard-response","307","413898","0.0-1.0-425.0","0","0","95695","","null","","","null","47","","","","","","","","","","","","","","","",""
"","ISI","","html-keyboard-response","308","414409","0.0-1.0-426.0","0","0","95695","","null","","","null","47","NaN","","","","","","","","","","","","","","",""
"","S2","","html-keyboard-response","309","414673","0.0-1.0-427.0","0","0","95695","","null","","","null","47","","NaN","","","","","","","","","","","","","",""
"","response","","html-keyboard-response","310","415015","0.0-1.0-428.0-0.0","0","0","95695","","331","","","68","47","","","1","47","training","adjacent","FE","6","5","R.jpg","L.jpg","0","0","1","",""
"","feedback","","html-keyboard-response","311","416029","0.0-1.0-429.0-0.0","0","0","95695","","null","","","null","47","","","","","","","","","","","","","","","",""
"","ITI","","html-keyboard-response","312","417039","0.0-1.0-432.0","0","0","95695","","null","","","null","47","","","","","","","","","","","","","","","NaN",""
"","block_over","","html-keyboard-response","313","561373","0.0-1.0-433.0-0.0","0","0","95695","","144321","","","32","47","","","","","","","","","","","","","","","",""
"","S1","","html-keyboard-response","314","561637","0.0-1.0-434.0","0","0","95695","","null","","","null","48","","","","","","","","","","","","","","","",""
"","ISI","","html-keyboard-response","315","562148","0.0-1.0-435.0","0","0","95695","","302","","","75","48","k","","","","","","","","","","","","","","",""
"","S2","","html-keyboard-response","316","562410","0.0-1.0-436.0","0","0","95695","","null","","","null","48","","NaN","","","","","","","","","","","","","",""
"","response","","html-keyboard-response","317","562832","0.0-1.0-437.0-0.0","0","0","95695","","410","","","75","48","","","2","48","training","adjacent","FE","6","5","R.jpg","L.jpg","1","0","0","",""
"","feedback","","html-keyboard-response","318","563847","0.0-1.0-438.0-0.0","0","0","95695","","null","","","null","48","","","","","","","","","","","","","","","",""
"","time_out","","html-keyboard-response","319","565860","0.0-1.0-440.0-0.0","0","0","95695","","null","","","null","48","","","","","","","","","","","","","","","",""
"","ITI","","html-keyboard-response","320","566875","0.0-1.0-441.0","0","0","95695","","null","","","null","48","","","","","","","","","","","","","","","NaN",""
"","S1","","html-keyboard-response","321","567135","0.0-1.0-443.0","0","0","95695","","null","","","null","49","","","","","","","","","","","","","","","",""
"","ISI","","html-keyboard-response","322","567646","0.0-1.0-444.0","0","0","95695","","null","","","null","49","NaN","","","","","","","","","","","","","","",""
"","S2","","html-keyboard-response","323","567911","0.0-1.0-445.0","0","0","95695","","null","","","null","49","","NaN","","","","","","","","","","","","","",""
"","response","","html-keyboard-response","324","568127","0.0-1.0-446.0-0.0","0","0","95695","","207","","","68","49","","","2","49","training","adjacent","FE","6","5","R.jpg","L.jpg","0","0","1","",""
"","feedback","","html-keyboard-response","325","569142","0.0-1.0-447.0-0.0","0","0","95695","","null","","","null","49","","","","","","","","","","","","","","","",""
"","ITI","","html-keyboard-response","326","570157","0.0-1.0-450.0","0","0","95695","","null","","","null","49","","","","","","","","","","","","","","","NaN",""
"","S1","","html-keyboard-response","327","570420","0.0-1.0-452.0","0","0","95695","","null","","","null","50","","","","","","","","","","","","","","","",""
"","ISI","","html-keyboard-response","328","570928","0.0-1.0-453.0","0","0","95695","","null","","","null","50","NaN","","","","","","","","","","","","","","",""
"","S2","","html-keyboard-response","329","571188","0.0-1.0-454.0","0","0","95695","","null","","","null","50","","NaN","","","","","","","","","","","","","",""
"","response","","html-keyboard-response","330","571491","0.0-1.0-455.0-0.0","0","0","95695","","292","","","75","50","","","2","50","training","adjacent","CD","3","4","N.jpg","Q.jpg","1","1","1","",""
"","feedback","","html-keyboard-response","331","572505","0.0-1.0-456.0-0.0","0","0","95695","","null","","","null","50","","","","","","","","","","","","","","","",""
"","ITI","","html-keyboard-response","332","573517","0.0-1.0-459.0","0","0","95695","","null","","","null","50","","","","","","","","","","","","","","","NaN",""
"","S1","","html-keyboard-response","333","573779","0.0-1.0-461.0","0","0","95695","","null","","","null","51","","","","","","","","","","","","","","","",""
"","ISI","","html-keyboard-response","334","574290","0.0-1.0-462.0","0","0","95695","","null","","","null","51","NaN","","","","","","","","","","","","","","",""
"","S2","","html-keyboard-response","335","574513","0.0-1.0-463.0","0","0","95695","","212","","","68","51","","d","2","51","training","adjacent","CD","3","4","N.jpg","Q.jpg","0","1","0","",""
"","feedback","","html-keyboard-response","336","575522","0.0-1.0-465.0-0.0","0","0","95695","","null","","","null","51","","","","","","","","","","","","","","","",""
"","time_out","","html-keyboard-response","337","577535","0.0-1.0-467.0-0.0","0","0","95695","","null","","","null","51","","","","","","","","","","","","","","","",""
"","ITI","","html-keyboard-response","338","578552","0.0-1.0-468.0","0","0","95695","","null","","","null","51","","","","","","","","","","","","","","","NaN",""
"","S1","","html-keyboard-response","339","578815","0.0-1.0-470.0","0","0","95695","","null","","","null","52","","","","","","","","","","","","","","","",""
"","ISI","","html-keyboard-response","340","579326","0.0-1.0-471.0","0","0","95695","","null","","","null","52","NaN","","","","","","","","","","","","","","",""
"","S2","","html-keyboard-response","341","579590","0.0-1.0-472.0","0","0","95695","","null","","","null","52","","NaN","","","","","","","","","","","","","",""
"","response","","html-keyboard-response","342","579874","0.0-1.0-473.0-0.0","0","0","95695","","273","","","75","52","","","2","52","training","adjacent","DE","4","5","Q.jpg","L.jpg","1","1","1","",""
"","feedback","","html-keyboard-response","343","580883","0.0-1.0-474.0-0.0","0","0","95695","","null","","","null","52","","","","","","","","","","","","","","","",""
"","ITI","","html-keyboard-response","344","581895","0.0-1.0-477.0","0","0","95695","","null","","","null","52","","","","","","","","","","","","","","","NaN",""
"","S1","","html-keyboard-response","345","582166","0.0-1.0-479.0","0","0","95695","","null","","","null","53","","","","","","","","","","","","","","","",""
"","ISI","","html-keyboard-response","346","582677","0.0-1.0-480.0","0","0","95695","","null","","","null","53","NaN","","","","","","","","","","","","","","",""
"","S2","","html-keyboard-response","347","582940","0.0-1.0-481.0","0","0","95695","","null","","","null","53","","NaN","","","","","","","","","","","","","",""
"","response","","html-keyboard-response","348","583183","0.0-1.0-482.0-0.0","0","0","95695","","234","","","75","53","","","2","53","training","adjacent","EF","5","6","L.jpg","R.jpg","1","1","1","",""
"","feedback","","html-keyboard-response","349","584195","0.0-1.0-483.0-0.0","0","0","95695","","null","","","null","53","","","","","","","","","","","","","","","",""
"","ITI","","html-keyboard-response","350","585204","0.0-1.0-486.0","0","0","95695","","null","","","null","53","","","","","","","","","","","","","","","NaN",""
"","S1","","html-keyboard-response","351","585467","0.0-1.0-488.0","0","0","95695","","null","","","null","54","","","","","","","","","","","","","","","",""
"","ISI","","html-keyboard-response","352","585980","0.0-1.0-489.0","0","0","95695","","null","","","null","54","NaN","","","","","","","","","","","","","","",""
"","S2","","html-keyboard-response","353","586248","0.0-1.0-490.0","0","0","95695","","null","","","null","54","","NaN","","","","","","","","","","","","","",""
"","response","","html-keyboard-response","354","586433","0.0-1.0-491.0-0.0","0","0","95695","","172","","","68","54","","","2","54","training","adjacent","ED","5","4","L.jpg","Q.jpg","0","0","1","",""
"","feedback","","html-keyboard-response","355","587444","0.0-1.0-492.0-0.0","0","0","95695","","null","","","null","54","","","","","","","","","","","","","","","",""
"","ITI","","html-keyboard-response","356","588460","0.0-1.0-495.0","0","0","95695","","null","","","null","54","","","","","","","","","","","","","","","NaN",""
"","S1","","html-keyboard-response","357","588721","0.0-1.0-497.0","0","0","95695","","null","","","null","55","","","","","","","","","","","","","","","",""
"","ISI","","html-keyboard-response","358","589232","0.0-1.0-498.0","0","0","95695","","null","","","null","55","NaN","","","","","","","","","","","","","","",""
"","S2","","html-keyboard-response","359","589490","0.0-1.0-499.0","0","0","95695","","null","","","null","55","","NaN","","","","","","","","","","","","","",""
"","response","","html-keyboard-response","360","589508","0.0-1.0-500.0-0.0","0","0","95695","","9","","","75","55","","","2","55","training","adjacent","DE","4","5","Q.jpg","L.jpg","1","1","1","",""
"","feedback","","html-keyboard-response","361","590520","0.0-1.0-501.0-0.0","0","0","95695","","null","","","null","55","","","","","","","","","","","","","","","",""
"","ITI","","html-keyboard-response","362","591535","0.0-1.0-504.0","0","0","95695","","null","","","null","55","","","","","","","","","","","","","","","NaN",""
"","S1","","html-keyboard-response","363","591796","0.0-1.0-506.0","0","0","95695","","null","","","null","56","","","","","","","","","","","","","","","",""
"","ISI","","html-keyboard-response","364","592305","0.0-1.0-507.0","0","0","95695","","null","","","null","56","NaN","","","","","","","","","","","","","","",""
"","S2","","html-keyboard-response","365","592558","0.0-1.0-508.0","0","0","95695","","244","","","68","56","","d","2","56","training","adjacent","GF","7","6","M.jpg","R.jpg","0","0","1","",""
"","feedback","","html-keyboard-response","366","593574","0.0-1.0-510.0-0.0","0","0","95695","","null","","","null","56","","","","","","","","","","","","","","","",""
"","ITI","","html-keyboard-response","367","594582","0.0-1.0-513.0","0","0","95695","","null","","","null","56","","","","","","","","","","","","","","","NaN",""
"","S1","","html-keyboard-response","368","594844","0.0-1.0-515.0","0","0","95695","","null","","","null","57","","","","","","","","","","","","","","","",""
"","ISI","","html-keyboard-response","369","595356","0.0-1.0-516.0","0","0","95695","","null","","","null","57","NaN","","","","","","","","","","","","","","",""
"","S2","","html-keyboard-response","370","595616","0.0-1.0-517.0","0","0","95695","","null","","","null","57","","NaN","","","","","","","","","","","","","",""
"","response","","html-keyboard-response","371","595875","0.0-1.0-518.0-0.0","0","0","95695","","249","","","75","57","","","2","57","training","adjacent","AB","1","2","P.jpg","O.jpg","1","1","1","",""
"","feedback","","html-keyboard-response","372","596890","0.0-1.0-519.0-0.0","0","0","95695","","null","","","null","57","","","","","","","","","","","","","","","",""
"","ITI","","html-keyboard-response","373","597903","0.0-1.0-522.0","0","0","95695","","null","","","null","57","","","","","","","","","","","","","","","NaN",""
"","S1","","html-keyboard-response","374","598164","0.0-1.0-524.0","0","0","95695","","null","","","null","58","","","","","","","","","","","","","","","",""
"","ISI","","html-keyboard-response","375","598674","0.0-1.0-525.0","0","0","95695","","null","","","null","58","NaN","","","","","","","","","","","","","","",""
"","S2","","html-keyboard-response","376","598939","0.0-1.0-526.0","0","0","95695","","null","","","null","58","","NaN","","","","","","","","","","","","","",""
"","response","","html-keyboard-response","377","599261","0.0-1.0-527.0-0.0","0","0","95695","","310","","","68","58","","","2","58","training","adjacent","BC","2","3","O.jpg","N.jpg","0","1","0","",""
"","feedback","","html-keyboard-response","378","600272","0.0-1.0-528.0-0.0","0","0","95695","","null","","","null","58","","","","","","","","","","","","","","","",""
"","time_out","","html-keyboard-response","379","602285","0.0-1.0-530.0-0.0","0","0","95695","","null","","","null","58","","","","","","","","","","","","","","","",""
"","ITI","","html-keyboard-response","380","603298","0.0-1.0-531.0","0","0","95695","","null","","","null","58","","","","","","","","","","","","","","","NaN",""
"","S1","","html-keyboard-response","381","603559","0.0-1.0-533.0","0","0","95695","","null","","","null","59","","","","","","","","","","","","","","","",""
"","ISI","","html-keyboard-response","382","604071","0.0-1.0-534.0","0","0","95695","","null","","","null","59","NaN","","","","","","","","","","","","","","",""
"","S2","","html-keyboard-response","383","604334","0.0-1.0-535.0","0","0","95695","","null","","","null","59","","NaN","","","","","","","","","","","","","",""
"","response","","html-keyboard-response","384","604595","0.0-1.0-536.0-0.0","0","0","95695","","251","","","68","59","","","2","59","training","adjacent","DE","4","5","Q.jpg","L.jpg","0","1","0","",""
"","feedback","","html-keyboard-response","385","605607","0.0-1.0-537.0-0.0","0","0","95695","","null","","","null","59","","","","","","","","","","","","","","","",""
"","time_out","","html-keyboard-response","386","607622","0.0-1.0-539.0-0.0","0","0","95695","","null","","","null","59","","","","","","","","","","","","","","","",""
"","ITI","","html-keyboard-response","387","608637","0.0-1.0-540.0","0","0","95695","","null","","","null","59","","","","","","","","","","","","","","","NaN",""
"","S1","","html-keyboard-response","388","608898","0.0-1.0-542.0","0","0","95695","","null","","","null","60","","","","","","","","","","","","","","","",""
"","ISI","","html-keyboard-response","389","609413","0.0-1.0-543.0","0","0","95695","","null","","","null","60","NaN","","","","","","","","","","","","","","",""
"","S2","","html-keyboard-response","390","609675","0.0-1.0-544.0","0","0","95695","","null","","","null","60","","NaN","","","","","","","","","","","","","",""
"","response","","html-keyboard-response","391","609994","0.0-1.0-545.0-0.0","0","0","95695","","306","","","68","60","","","2","60","training","adjacent","EF","5","6","L.jpg","R.jpg","0","1","0","",""
"","feedback","","html-keyboard-response","392","611006","0.0-1.0-546.0-0.0","0","0","95695","","null","","","null","60","","","","","","","","","","","","","","","",""
"","time_out","","html-keyboard-response","393","613020","0.0-1.0-548.0-0.0","0","0","95695","","null","","","null","60","","","","","","","","","","","","","","","",""
"","ITI","","html-keyboard-response","394","614033","0.0-1.0-549.0","0","0","95695","","null","","","null","60","","","","","","","","","","","","","","","NaN",""
"","S1","","html-keyboard-response","395","614292","0.0-1.0-551.0","0","0","95695","","null","","","null","61","","","","","","","","","","","","","","","",""
"","ISI","","html-keyboard-response","396","614803","0.0-1.0-552.0","0","0","95695","","null","","","null","61","NaN","","","","","","","","","","","","","","",""
"","S2","","html-keyboard-response","397","615065","0.0-1.0-553.0","0","0","95695","","null","","","null","61","","NaN","","","","","","","","","","","","","",""
"","response","","html-keyboard-response","398","615210","0.0-1.0-554.0-0.0","0","0","95695","","135","","","68","61","","","2","61","training","adjacent","CD","3","4","N.jpg","Q.jpg","0","1","0","",""
"","feedback","","html-keyboard-response","399","616220","0.0-1.0-555.0-0.0","0","0","95695","","null","","","null","61","","","","","","","","","","","","","","","",""
"","time_out","","html-keyboard-response","400","618235","0.0-1.0-557.0-0.0","0","0","95695","","null","","","null","61","","","","","","","","","","","","","","","",""
"","ITI","","html-keyboard-response","401","619248","0.0-1.0-558.0","0","0","95695","","null","","","null","61","","","","","","","","","","","","","","","NaN",""
"","S1","","html-keyboard-response","402","619512","0.0-1.0-560.0","0","0","95695","","null","","","null","62","","","","","","","","","","","","","","","",""
"","ISI","","html-keyboard-response","403","620025","0.0-1.0-561.0","0","0","95695","","null","","","null","62","NaN","","","","","","","","","","","","","","",""
"","S2","","html-keyboard-response","404","620283","0.0-1.0-562.0","0","0","95695","","null","","","null","62","","NaN","","","","","","","","","","","","","",""
"","response","","html-keyboard-response","405","620536","0.0-1.0-563.0-0.0","0","0","95695","","244","","","68","62","","","2","62","training","adjacent","BA","2","1","O.jpg","P.jpg","0","0","1","",""
"","feedback","","html-keyboard-response","406","621550","0.0-1.0-564.0-0.0","0","0","95695","","null","","","null","62","","","","","","","","","","","","","","","",""
"","ITI","","html-keyboard-response","407","622563","0.0-1.0-567.0","0","0","95695","","null","","","null","62","","","","","","","","","","","","","","","NaN",""
"","S1","","html-keyboard-response","408","622824","0.0-1.0-569.0","0","0","95695","","null","","","null","63","","","","","","","","","","","","","","","",""
"","ISI","","html-keyboard-response","409","623334","0.0-1.0-570.0","0","0","95695","","null","","","null","63","NaN","","","","","","","","","","","","","","",""
"","S2","","html-keyboard-response","410","623597","0.0-1.0-571.0","0","0","95695","","null","","","null","63","","NaN","","","","","","","","","","","","","",""
"","response","","html-keyboard-response","411","623838","0.0-1.0-572.0-0.0","0","0","95695","","229","","","68","63","","","2","63","training","adjacent","CD","3","4","N.jpg","Q.jpg","0","1","0","",""
"","feedback","","html-keyboard-response","412","624851","0.0-1.0-573.0-0.0","0","0","95695","","null","","","null","63","","","","","","","","","","","","","","","",""
"","time_out","","html-keyboard-response","413","626865","0.0-1.0-575.0-0.0","0","0","95695","","null","","","null","63","","","","","","","","","","","","","","","",""
"","ITI","","html-keyboard-response","414","627875","0.0-1.0-576.0","0","0","95695","","null","","","null","63","","","","","","","","","","","","","","","NaN",""
"","S1","","html-keyboard-response","415","628135","0.0-1.0-578.0","0","0","95695","","null","","","null","64","","","","","","","","","","","","","","","",""
"","ISI","","html-keyboard-response","416","628647","0.0-1.0-579.0","0","0","95695","","null","","","null","64","NaN","","","","","","","","","","","","","","",""
"","S2","","html-keyboard-response","417","628912","0.0-1.0-580.0","0","0","95695","","null","","","null","64","","NaN","","","","","","","","","","","","","",""
"","response","","html-keyboard-response","418","628953","0.0-1.0-581.0-0.0","0","0","95695","","32","","","75","64","","","2","64","training","adjacent","BC","2","3","O.jpg","N.jpg","1","1","1","",""
"","feedback","","html-keyboard-response","419","629965","0.0-1.0-582.0-0.0","0","0","95695","","null","","","null","64","","","","","","","","","","","","","","","",""
"","ITI","","html-keyboard-response","420","630980","0.0-1.0-585.0","0","0","95695","","null","","","null","64","","","","","","","","","","","","","","","NaN",""
"","S1","","html-keyboard-response","421","631240","0.0-1.0-587.0","0","0","95695","","null","","","null","65","","","","","","","","","","","","","","","",""
"","ISI","","html-keyboard-response","422","631754","0.0-1.0-588.0","0","0","95695","","null","","","null","65","NaN","","","","","","","","","","","","","","",""
"","S2","","html-keyboard-response","423","631997","0.0-1.0-589.0","0","0","95695","","234","","","75","65","","k","2","65","training","adjacent","GF","7","6","M.jpg","R.jpg","1","0","0","",""
"","feedback","","html-keyboard-response","424","633009","0.0-1.0-591.0-0.0","0","0","95695","","null","","","null","65","","","","","","","","","","","","","","","",""
"","time_out","","html-keyboard-response","425","635023","0.0-1.0-593.0-0.0","0","0","95695","","null","","","null","65","","","","","","","","","","","","","","","",""
"","ITI","","html-keyboard-response","426","636033","0.0-1.0-594.0","0","0","95695","","25","","","68","65","","","","","","","","","","","","","","","d",""
"","S1","","html-keyboard-response","427","636295","0.0-1.0-596.0","0","0","95695","","null","","","null","66","","","","","","","","","","","","","","","",""
"","ISI","","html-keyboard-response","428","636806","0.0-1.0-597.0","0","0","95695","","null","","","null","66","NaN","","","","","","","","","","","","","","",""
"","S2","","html-keyboard-response","429","637070","0.0-1.0-598.0","0","0","95695","","null","","","null","66","","NaN","","","","","","","","","","","","","",""
"","response","","html-keyboard-response","430","637077","0.0-1.0-599.0-0.0","0","0","95695","","0","","","68","66","","","2","66","training","adjacent","BC","2","3","O.jpg","N.jpg","0","1","0","",""
"","feedback","","html-keyboard-response","431","638091","0.0-1.0-600.0-0.0","0","0","95695","","null","","","null","66","","","","","","","","","","","","","","","",""
"","time_out","","html-keyboard-response","432","640101","0.0-1.0-602.0-0.0","0","0","95695","","null","","","null","66","","","","","","","","","","","","","","","",""
"","ITI","","html-keyboard-response","433","641112","0.0-1.0-603.0","0","0","95695","","null","","","null","66","","","","","","","","","","","","","","","NaN",""
"","S1","","html-keyboard-response","434","641373","0.0-1.0-605.0","0","0","95695","","null","","","null","67","","","","","","","","","","","","","","","",""
"","ISI","","html-keyboard-response","435","641882","0.0-1.0-606.0","0","0","95695","","null","","","null","67","NaN","","","","","","","","","","","","","","",""
"","S2","","html-keyboard-response","436","642145","0.0-1.0-607.0","0","0","95695","","null","","","null","67","","NaN","","","","","","","","","","","","","",""
"","response","","html-keyboard-response","437","642414","0.0-1.0-608.0-0.0","0","0","95695","","255","","","68","67","","","2","67","training","adjacent","GF","7","6","M.jpg","R.jpg","0","0","1","",""
"","feedback","","html-keyboard-response","438","643430","0.0-1.0-609.0-0.0","0","0","95695","","null","","","null","67","","","","","","","","","","","","","","","",""
"","ITI","","html-keyboard-response","439","644442","0.0-1.0-612.0","0","0","95695","","null","","","null","67","","","","","","","","","","","","","","","NaN",""
"","S1","","html-keyboard-response","440","644703","0.0-1.0-614.0","0","0","95695","","null","","","null","68","","","","","","","","","","","","","","","",""
"","ISI","","html-keyboard-response","441","645212","0.0-1.0-615.0","0","0","95695","","null","","","null","68","NaN","","","","","","","","","","","","","","",""
"","S2","","html-keyboard-response","442","645477","0.0-1.0-616.0","0","0","95695","","null","","","null","68","","NaN","","","","","","","","","","","","","",""
"","response","","html-keyboard-response","443","645726","0.0-1.0-617.0-0.0","0","0","95695","","239","","","75","68","","","2","68","training","adjacent","DC","4","3","Q.jpg","N.jpg","1","0","0","",""
"","feedback","","html-keyboard-response","444","646737","0.0-1.0-618.0-0.0","0","0","95695","","null","","","null","68","","","","","","","","","","","","","","","",""
"","time_out","","html-keyboard-response","445","648751","0.0-1.0-620.0-0.0","0","0","95695","","null","","","null","68","","","","","","","","","","","","","","","",""
"","ITI","","html-keyboard-response","446","649764","0.0-1.0-621.0","0","0","95695","","null","","","null","68","","","","","","","","","","","","","","","NaN",""
"","S1","","html-keyboard-response","447","650027","0.0-1.0-623.0","0","0","95695","","null","","","null","69","","","","","","","","","","","","","","","",""
"","ISI","","html-keyboard-response","448","650535","0.0-1.0-624.0","0","0","95695","","null","","","null","69","NaN","","","","","","","","","","","","","","",""
"","S2","","html-keyboard-response","449","650797","0.0-1.0-625.0","0","0","95695","","null","","","null","69","","NaN","","","","","","","","","","","","","",""
"","response","","html-keyboard-response","450","650822","0.0-1.0-626.0-0.0","0","0","95695","","16","","","68","69","","","2","69","training","adjacent","ED","5","4","L.jpg","Q.jpg","0","0","1","",""
"","feedback","","html-keyboard-response","451","651835","0.0-1.0-627.0-0.0","0","0","95695","","null","","","null","69","","","","","","","","","","","","","","","",""
"","ITI","","html-keyboard-response","452","652851","0.0-1.0-630.0","0","0","95695","","null","","","null","69","","","","","","","","","","","","","","","NaN",""
"","S1","","html-keyboard-response","453","653109","0.0-1.0-632.0","0","0","95695","","null","","","null","70","","","","","","","","","","","","","","","",""
"","ISI","","html-keyboard-response","454","653620","0.0-1.0-633.0","0","0","95695","","null","","","null","70","NaN","","","","","","","","","","","","","","",""
"","S2","","html-keyboard-response","455","653883","0.0-1.0-634.0","0","0","95695","","null","","","null","70","","NaN","","","","","","","","","","","","","",""
"","response","","html-keyboard-response","456","654449","0.0-1.0-635.0-0.0","0","0","95695","","555","","","75","70","","","2","70","training","adjacent","BA","2","1","O.jpg","P.jpg","1","0","0","",""
"","feedback","","html-keyboard-response","457","655461","0.0-1.0-636.0-0.0","0","0","95695","","null","","","null","70","","","","","","","","","","","","","","","",""
"","time_out","","html-keyboard-response","458","657470","0.0-1.0-638.0-0.0","0","0","95695","","null","","","null","70","","","","","","","","","","","","","","","",""
"","ITI","","html-keyboard-response","459","658481","0.0-1.0-639.0","0","0","95695","","null","","","null","70","","","","","","","","","","","","","","","NaN",""
"","S1","","html-keyboard-response","460","658745","0.0-1.0-641.0","0","0","95695","","null","","","null","71","","","","","","","","","","","","","","","",""
"","ISI","","html-keyboard-response","461","659258","0.0-1.0-642.0","0","0","95695","","null","","","null","71","NaN","","","","","","","","","","","","","","",""
"","S2","","html-keyboard-response","462","659518","0.0-1.0-643.0","0","0","95695","","null","","","null","71","","NaN","","","","","","","","","","","","","",""
"","response","","html-keyboard-response","463","659724","0.0-1.0-644.0-0.0","0","0","95695","","196","","","68","71","","","2","71","training","adjacent","DC","4","3","Q.jpg","N.jpg","0","0","1","",""
"","feedback","","html-keyboard-response","464","660740","0.0-1.0-645.0-0.0","0","0","95695","","null","","","null","71","","","","","","","","","","","","","","","",""
"","ITI","","html-keyboard-response","465","661753","0.0-1.0-648.0","0","0","95695","","null","","","null","71","","","","","","","","","","","","","","","NaN",""
"","S1","","html-keyboard-response","466","662015","0.0-1.0-650.0","0","0","95695","","null","","","null","72","","","","","","","","","","","","","","","",""
"","ISI","","html-keyboard-response","467","662526","0.0-1.0-651.0","0","0","95695","","null","","","null","72","NaN","","","","","","","","","","","","","","",""
"","S2","","html-keyboard-response","468","662789","0.0-1.0-652.0","0","0","95695","","null","","","null","72","","NaN","","","","","","","","","","","","","",""
"","response","","html-keyboard-response","469","663225","0.0-1.0-653.0-0.0","0","0","95695","","424","","","75","72","","","2","72","training","adjacent","EF","5","6","L.jpg","R.jpg","1","1","1","",""
"","feedback","","html-keyboard-response","470","664236","0.0-1.0-654.0-0.0","0","0","95695","","null","","","null","72","","","","","","","","","","","","","","","",""
"","ITI","","html-keyboard-response","471","665247","0.0-1.0-657.0","0","0","95695","","null","","","null","72","","","","","","","","","","","","","","","NaN",""
"","S1","","html-keyboard-response","472","665510","0.0-1.0-659.0","0","0","95695","","null","","","null","73","","","","","","","","","","","","","","","",""
"","ISI","","html-keyboard-response","473","666022","0.0-1.0-660.0","0","0","95695","","null","","","null","73","NaN","","","","","","","","","","","","","","",""
"","S2","","html-keyboard-response","474","666283","0.0-1.0-661.0","0","0","95695","","null","","","null","73","","NaN","","","","","","","","","","","","","",""
"","response","","html-keyboard-response","475","666563","0.0-1.0-662.0-0.0","0","0","95695","","271","","","75","73","","","2","73","training","adjacent","AB","1","2","P.jpg","O.jpg","1","1","1","",""
"","feedback","","html-keyboard-response","476","667573","0.0-1.0-663.0-0.0","0","0","95695","","null","","","null","73","","","","","","","","","","","","","","","",""
"","ITI","","html-keyboard-response","477","668584","0.0-1.0-666.0","0","0","95695","","null","","","null","73","","","","","","","","","","","","","","","NaN",""
"","S1","","html-keyboard-response","478","668846","0.0-1.0-668.0","0","0","95695","","null","","","null","74","","","","","","","","","","","","","","","",""
"","ISI","","html-keyboard-response","479","669358","0.0-1.0-669.0","0","0","95695","","null","","","null","74","NaN","","","","","","","","","","","","","","",""
"","S2","","html-keyboard-response","480","669618","0.0-1.0-670.0","0","0","95695","","null","","","null","74","","NaN","","","","","","","","","","","","","",""
"","response","","html-keyboard-response","481","670048","0.0-1.0-671.0-0.0","0","0","95695","","421","","","68","74","","","2","74","training","adjacent","FG","6","7","R.jpg","M.jpg","0","1","0","",""
"","feedback","","html-keyboard-response","482","671057","0.0-1.0-672.0-0.0","0","0","95695","","null","","","null","74","","","","","","","","","","","","","","","",""
"","time_out","","html-keyboard-response","483","673071","0.0-1.0-674.0-0.0","0","0","95695","","null","","","null","74","","","","","","","","","","","","","","","",""
"","ITI","","html-keyboard-response","484","674083","0.0-1.0-675.0","0","0","95695","","null","","","null","74","","","","","","","","","","","","","","","NaN",""
"","S1","","html-keyboard-response","485","674350","0.0-1.0-677.0","0","0","95695","","null","","","null","75","","","","","","","","","","","","","","","",""
"","ISI","","html-keyboard-response","486","674862","0.0-1.0-678.0","0","0","95695","","null","","","null","75","NaN","","","","","","","","","","","","","","",""
"","S2","","html-keyboard-response","487","675093","0.0-1.0-679.0","0","0","95695","","222","","","68","75","","d","2","75","training","adjacent","AB","1","2","P.jpg","O.jpg","0","1","0","",""
"","feedback","","html-keyboard-response","488","676103","0.0-1.0-681.0-0.0","0","0","95695","","null","","","null","75","","","","","","","","","","","","","","","",""
"","time_out","","html-keyboard-response","489","678115","0.0-1.0-683.0-0.0","0","0","95695","","null","","","null","75","","","","","","","","","","","","","","","",""
"","ITI","","html-keyboard-response","490","679129","0.0-1.0-684.0","0","0","95695","","null","","","null","75","","","","","","","","","","","","","","","NaN",""
"","S1","","html-keyboard-response","491","679391","0.0-1.0-686.0","0","0","95695","","null","","","null","76","","","","","","","","","","","","","","","",""
"","ISI","","html-keyboard-response","492","679902","0.0-1.0-687.0","0","0","95695","","null","","","null","76","NaN","","","","","","","","","","","","","","",""
"","S2","","html-keyboard-response","493","680147","0.0-1.0-688.0","0","0","95695","","233","","","75","76","","k","2","76","training","adjacent","FE","6","5","R.jpg","L.jpg","1","0","0","",""
"","feedback","","html-keyboard-response","494","681158","0.0-1.0-690.0-0.0","0","0","95695","","null","","","null","76","","","","","","","","","","","","","","","",""
"","time_out","","html-keyboard-response","495","683172","0.0-1.0-692.0-0.0","0","0","95695","","null","","","null","76","","","","","","","","","","","","","","","",""
"","ITI","","html-keyboard-response","496","684180","0.0-1.0-693.0","0","0","95695","","null","","","null","76","","","","","","","","","","","","","","","NaN",""
"","S1","","html-keyboard-response","497","684440","0.0-1.0-695.0","0","0","95695","","null","","","null","77","","","","","","","","","","","","","","","",""
"","ISI","","html-keyboard-response","498","684951","0.0-1.0-696.0","0","0","95695","","null","","","null","77","NaN","","","","","","","","","","","","","","",""
"","S2","","html-keyboard-response","499","685042","0.0-1.0-697.0","0","0","95695","","79","","","75","77","","k","2","77","training","adjacent","GF","7","6","M.jpg","R.jpg","1","0","0","",""
"","feedback","","html-keyboard-response","500","686055","0.0-1.0-699.0-0.0","0","0","95695","","null","","","null","77","","","","","","","","","","","","","","","",""
"","time_out","","html-keyboard-response","501","688063","0.0-1.0-701.0-0.0","0","0","95695","","null","","","null","77","","","","","","","","","","","","","","","",""
"","ITI","","html-keyboard-response","502","689074","0.0-1.0-702.0","0","0","95695","","null","","","null","77","","","","","","","","","","","","","","","NaN",""
"","S1","","html-keyboard-response","503","689337","0.0-1.0-704.0","0","0","95695","","null","","","null","78","","","","","","","","","","","","","","","",""
"","ISI","","html-keyboard-response","504","689847","0.0-1.0-705.0","0","0","95695","","null","","","null","78","NaN","","","","","","","","","","","","","","",""
"","S2","","html-keyboard-response","505","690106","0.0-1.0-706.0","0","0","95695","","null","","","null","78","","NaN","","","","","","","","","","","","","",""
"","response","","html-keyboard-response","506","690204","0.0-1.0-707.0-0.0","0","0","95695","","89","","","75","78","","","2","78","training","adjacent","CB","3","2","N.jpg","O.jpg","1","0","0","",""
"","feedback","","html-keyboard-response","507","691216","0.0-1.0-708.0-0.0","0","0","95695","","null","","","null","78","","","","","","","","","","","","","","","",""
"","time_out","","html-keyboard-response","508","693229","0.0-1.0-710.0-0.0","0","0","95695","","null","","","null","78","","","","","","","","","","","","","","","",""
"","ITI","","html-keyboard-response","509","694245","0.0-1.0-711.0","0","0","95695","","null","","","null","78","","","","","","","","","","","","","","","NaN",""
"","S1","","html-keyboard-response","510","694503","0.0-1.0-713.0","0","0","95695","","null","","","null","79","","","","","","","","","","","","","","","",""
"","ISI","","html-keyboard-response","511","695013","0.0-1.0-714.0","0","0","95695","","null","","","null","79","NaN","","","","","","","","","","","","","","",""
"","S2","","html-keyboard-response","512","695274","0.0-1.0-715.0","0","0","95695","","null","","","null","79","","NaN","","","","","","","","","","","","","",""
"","response","","html-keyboard-response","513","695376","0.0-1.0-716.0-0.0","0","0","95695","","90","","","75","79","","","2","79","training","adjacent","FE","6","5","R.jpg","L.jpg","1","0","0","",""
"","feedback","","html-keyboard-response","514","696389","0.0-1.0-717.0-0.0","0","0","95695","","null","","","null","79","","","","","","","","","","","","","","","",""
"","time_out","","html-keyboard-response","515","698400","0.0-1.0-719.0-0.0","0","0","95695","","null","","","null","79","","","","","","","","","","","","","","","",""
"","ITI","","html-keyboard-response","516","699412","0.0-1.0-720.0","0","0","95695","","null","","","null","79","","","","","","","","","","","","","","","NaN",""
"","S1","","html-keyboard-response","517","699676","0.0-1.0-722.0","0","0","95695","","null","","","null","80","","","","","","","","","","","","","","","",""
"","ISI","","html-keyboard-response","518","700184","0.0-1.0-723.0","0","0","95695","","null","","","null","80","NaN","","","","","","","","","","","","","","",""
"","S2","","html-keyboard-response","519","700443","0.0-1.0-724.0","0","0","95695","","null","","","null","80","","NaN","","","","","","","","","","","","","",""
"","response","","html-keyboard-response","520","700693","0.0-1.0-725.0-0.0","0","0","95695","","242","","","68","80","","","2","80","training","adjacent","CB","3","2","N.jpg","O.jpg","0","0","1","",""
"","feedback","","html-keyboard-response","521","701705","0.0-1.0-726.0-0.0","0","0","95695","","null","","","null","80","","","","","","","","","","","","","","","",""
"","ITI","","html-keyboard-response","522","702715","0.0-1.0-729.0","0","0","95695","","null","","","null","80","","","","","","","","","","","","","","","NaN",""
"","S1","","html-keyboard-response","523","702979","0.0-1.0-731.0","0","0","95695","","null","","","null","81","","","","","","","","","","","","","","","",""
"","ISI","","html-keyboard-response","524","703491","0.0-1.0-732.0","0","0","95695","","null","","","null","81","NaN","","","","","","","","","","","","","","",""
"","S2","","html-keyboard-response","525","703742","0.0-1.0-733.0","0","0","95695","","240","","","75","81","","k","2","81","training","adjacent","CB","3","2","N.jpg","O.jpg","1","0","0","",""
"","feedback","","html-keyboard-response","526","704754","0.0-1.0-735.0-0.0","0","0","95695","","null","","","null","81","","","","","","","","","","","","","","","",""
"","time_out","","html-keyboard-response","527","706767","0.0-1.0-737.0-0.0","0","0","95695","","null","","","null","81","","","","","","","","","","","","","","","",""
"","ITI","","html-keyboard-response","528","707779","0.0-1.0-738.0","0","0","95695","","null","","","null","81","","","","","","","","","","","","","","","NaN",""
"","S1","","html-keyboard-response","529","708040","0.0-1.0-740.0","0","0","95695","","null","","","null","82","","","","","","","","","","","","","","","",""
"","ISI","","html-keyboard-response","530","708551","0.0-1.0-741.0","0","0","95695","","null","","","null","82","NaN","","","","","","","","","","","","","","",""
"","S2","","html-keyboard-response","531","708816","0.0-1.0-742.0","0","0","95695","","null","","","null","82","","NaN","","","","","","","","","","","","","",""
"","response","","html-keyboard-response","532","709057","0.0-1.0-743.0-0.0","0","0","95695","","230","","","68","82","","","2","82","training","adjacent","BC","2","3","O.jpg","N.jpg","0","1","0","",""
"","feedback","","html-keyboard-response","533","710074","0.0-1.0-744.0-0.0","0","0","95695","","null","","","null","82","","","","","","","","","","","","","","","",""
"","time_out","","html-keyboard-response","534","712086","0.0-1.0-746.0-0.0","0","0","95695","","null","","","null","82","","","","","","","","","","","","","","","",""
"","ITI","","html-keyboard-response","535","713097","0.0-1.0-747.0","0","0","95695","","null","","","null","82","","","","","","","","","","","","","","","NaN",""
"","S1","","html-keyboard-response","536","713361","0.0-1.0-749.0","0","0","95695","","null","","","null","83","","","","","","","","","","","","","","","",""
"","ISI","","html-keyboard-response","537","713873","0.0-1.0-750.0","0","0","95695","","null","","","null","83","NaN","","","","","","","","","","","","","","",""
"","S2","","html-keyboard-response","538","714133","0.0-1.0-751.0","0","0","95695","","null","","","null","83","","NaN","","","","","","","","","","","","","",""
"","response","","html-keyboard-response","539","714368","0.0-1.0-752.0-0.0","0","0","95695","","227","","","75","83","","","2","83","training","adjacent","BA","2","1","O.jpg","P.jpg","1","0","0","",""
"","feedback","","html-keyboard-response","540","715380","0.0-1.0-753.0-0.0","0","0","95695","","null","","","null","83","","","","","","","","","","","","","","","",""
"","time_out","","html-keyboard-response","541","717391","0.0-1.0-755.0-0.0","0","0","95695","","null","","","null","83","","","","","","","","","","","","","","","",""
"","ITI","","html-keyboard-response","542","718404","0.0-1.0-756.0","0","0","95695","","null","","","null","83","","","","","","","","","","","","","","","NaN",""
"","S1","","html-keyboard-response","543","718669","0.0-1.0-758.0","0","0","95695","","null","","","null","84","","","","","","","","","","","","","","","",""
"","ISI","","html-keyboard-response","544","719177","0.0-1.0-759.0","0","0","95695","","null","","","null","84","NaN","","","","","","","","","","","","","","",""
"","S2","","html-keyboard-response","545","719436","0.0-1.0-760.0","0","0","95695","","null","","","null","84","","NaN","","","","","","","","","","","","","",""
"","response","","html-keyboard-response","546","719555","0.0-1.0-761.0-0.0","0","0","95695","","112","","","75","84","","","2","84","training","adjacent","EF","5","6","L.jpg","R.jpg","1","1","1","",""
"","feedback","","html-keyboard-response","547","720569","0.0-1.0-762.0-0.0","0","0","95695","","null","","","null","84","","","","","","","","","","","","","","","",""
"","ITI","","html-keyboard-response","548","721578","0.0-1.0-765.0","0","0","95695","","null","","","null","84","","","","","","","","","","","","","","","NaN",""
"","S1","","html-keyboard-response","549","721840","0.0-1.0-767.0","0","0","95695","","null","","","null","85","","","","","","","","","","","","","","","",""
"","ISI","","html-keyboard-response","550","722355","0.0-1.0-768.0","0","0","95695","","null","","","null","85","NaN","","","","","","","","","","","","","","",""
"","S2","","html-keyboard-response","551","722619","0.0-1.0-769.0","0","0","95695","","null","","","null","85","","NaN","","","","","","","","","","","","","",""
"","response","","html-keyboard-response","552","722949","0.0-1.0-770.0-0.0","0","0","95695","","319","","","75","85","","","2","85","training","adjacent","DC","4","3","Q.jpg","N.jpg","1","0","0","",""
"","feedback","","html-keyboard-response","553","723964","0.0-1.0-771.0-0.0","0","0","95695","","null","","","null","85","","","","","","","","","","","","","","","",""
"","time_out","","html-keyboard-response","554","725978","0.0-1.0-773.0-0.0","0","0","95695","","null","","","null","85","","","","","","","","","","","","","","","",""
"","ITI","","html-keyboard-response","555","726990","0.0-1.0-774.0","0","0","95695","","null","","","null","85","","","","","","","","","","","","","","","NaN",""
"","S1","","html-keyboard-response","556","727250","0.0-1.0-776.0","0","0","95695","","null","","","null","86","","","","","","","","","","","","","","","",""
"","ISI","","html-keyboard-response","557","727763","0.0-1.0-777.0","0","0","95695","","null","","","null","86","NaN","","","","","","","","","","","","","","",""
"","S2","","html-keyboard-response","558","728028","0.0-1.0-778.0","0","0","95695","","null","","","null","86","","NaN","","","","","","","","","","","","","",""
"","response","","html-keyboard-response","559","728366","0.0-1.0-779.0-0.0","0","0","95695","","326","","","75","86","","","2","86","training","adjacent","CB","3","2","N.jpg","O.jpg","1","0","0","",""
"","feedback","","html-keyboard-response","560","729380","0.0-1.0-780.0-0.0","0","0","95695","","null","","","null","86","","","","","","","","","","","","","","","",""
"","time_out","","html-keyboard-response","561","731392","0.0-1.0-782.0-0.0","0","0","95695","","null","","","null","86","","","","","","","","","","","","","","","",""
"","ITI","","html-keyboard-response","562","732402","0.0-1.0-783.0","0","0","95695","","871","","","75","86","","","","","","","","","","","","","","","k",""
"","S1","","html-keyboard-response","563","732661","0.0-1.0-785.0","0","0","95695","","null","","","null","87","","","","","","","","","","","","","","","",""
"","ISI","","html-keyboard-response","564","733173","0.0-1.0-786.0","0","0","95695","","null","","","null","87","NaN","","","","","","","","","","","","","","",""
"","S2","","html-keyboard-response","565","733435","0.0-1.0-787.0","0","0","95695","","null","","","null","87","","NaN","","","","","","","","","","","","","",""
"","response","","html-keyboard-response","566","733645","0.0-1.0-788.0-0.0","0","0","95695","","198","","","75","87","","","2","87","training","adjacent","DE","4","5","Q.jpg","L.jpg","1","1","1","",""
"","feedback","","html-keyboard-response","567","734660","0.0-1.0-789.0-0.0","0","0","95695","","null","","","null","87","","","","","","","","","","","","","","","",""
"","ITI","","html-keyboard-response","568","735674","0.0-1.0-792.0","0","0","95695","","null","","","null","87","","","","","","","","","","","","","","","NaN",""
"","S1","","html-keyboard-response","569","735939","0.0-1.0-794.0","0","0","95695","","null","","","null","88","","","","","","","","","","","","","","","",""
"","ISI","","html-keyboard-response","570","736449","0.0-1.0-795.0","0","0","95695","","null","","","null","88","NaN","","","","","","","","","","","","","","",""
"","S2","","html-keyboard-response","571","736561","0.0-1.0-796.0","0","0","95695","","103","","","75","88","","k","2","88","training","adjacent","DC","4","3","Q.jpg","N.jpg","1","0","0","",""
"","feedback","","html-keyboard-response","572","737573","0.0-1.0-798.0-0.0","0","0","95695","","null","","","null","88","","","","","","","","","","","","","","","",""
"","time_out","","html-keyboard-response","573","739590","0.0-1.0-800.0-0.0","0","0","95695","","null","","","null","88","","","","","","","","","","","","","","","",""
"","ITI","","html-keyboard-response","574","740602","0.0-1.0-801.0","0","0","95695","","null","","","null","88","","","","","","","","","","","","","","","NaN",""
"","S1","","html-keyboard-response","575","740866","0.0-1.0-803.0","0","0","95695","","null","","","null","89","","","","","","","","","","","","","","","",""
"","ISI","","html-keyboard-response","576","741377","0.0-1.0-804.0","0","0","95695","","null","","","null","89","NaN","","","","","","","","","","","","","","",""
"","S2","","html-keyboard-response","577","741640","0.0-1.0-805.0","0","0","95695","","null","","","null","89","","NaN","","","","","","","","","","","","","",""
"","response","","html-keyboard-response","578","741659","0.0-1.0-806.0-0.0","0","0","95695","","9","","","75","89","","","2","89","training","adjacent","FG","6","7","R.jpg","M.jpg","1","1","1","",""
"","feedback","","html-keyboard-response","579","742671","0.0-1.0-807.0-0.0","0","0","95695","","null","","","null","89","","","","","","","","","","","","","","","",""
"","ITI","","html-keyboard-response","580","743685","0.0-1.0-810.0","0","0","95695","","null","","","null","89","","","","","","","","","","","","","","","NaN",""
"","S1","","html-keyboard-response","581","743949","0.0-1.0-812.0","0","0","95695","","null","","","null","90","","","","","","","","","","","","","","","",""
"","ISI","","html-keyboard-response","582","744463","0.0-1.0-813.0","0","0","95695","","null","","","null","90","NaN","","","","","","","","","","","","","","",""
"","S2","","html-keyboard-response","583","744727","0.0-1.0-814.0","0","0","95695","","null","","","null","90","","NaN","","","","","","","","","","","","","",""
