"success","ttype","start_time","trial_type","trial_index","time_elapsed","internal_node_id","warning","missed_checkup","PID","view_history","rt","responses","repeat_instructions","key_press","index","keypress_isi","keypress_S2","block","trial_num","phase","group_type","pair_type","S1_stim","S2_stim","S1_img","S2_img","S1_chosen","S1_higher","accuracy","keypress_iti","total_bonus_tally"
"true","full_screen","d03082023hr1445","fullscreen","0","23568","0.0-0.0","0","0","36844","","","","","","","","","","","","","","","","","","","","","",""
"","instructions","","instructions","1","66599","0.0-1.0-0.0-0.0","0","0","36844","[{""page_index"":0,""viewing_time"":6644},{""page_index"":1,""viewing_time"":18998},{""page_index"":2,""viewing_time"":14587},{""page_index"":3,""viewing_time"":2800}]","43029","","","","","","","","","","","","","","","","","","","",""
"","comprehension_check","","survey-multi-choice","2","94771","0.0-1.0-0.0-1.0","0","0","36844","","28168","{""Q0"":""True"",""Q1"":""D"",""Q2"":""Once the second image appears and while the screen 'MAKE A CHOICE' is shown"",""Q3"":""Green mark"",""Q4"":""either D or K""}","0","","","","","","","","","","","","","","","","","",""
"","start_exp","","html-keyboard-response","3","97548","0.0-1.0-1.0","0","0","36844","","2772","","","32","","","","","","","","","","","","","","","","",""
"","S1","","html-keyboard-response","4","97815","0.0-1.0-2.0","0","0","36844","","null","","","null","0","","","","","","","","","","","","","","","",""
"","ISI","","html-keyboard-response","5","97973","0.0-1.0-3.0","0","0","36844","","null","","","null","0","NaN","","","","","","","","","","","","","","",""
"","S2","","html-keyboard-response","6","98231","0.0-1.0-4.0","0","0","36844","","null","","","null","0","","NaN","","","","","","","","","","","","","",""
"","response","","html-keyboard-response","7","99990","0.0-1.0-5.0-0.0","0","0","36844","","null","","","null","0","","","1","0","training","adjacent","EF","5","6","O.jpg","P.jpg","NaN","1","0","",""
"","too_slow_prompt","","html-keyboard-response","8","100999","0.0-1.0-7.0-0.0","1","0","36844","","null","","","null","","","","","","","","","","","","","","","","",""
"","time_out","","html-keyboard-response","9","103014","0.0-1.0-8.0-0.0","0","0","36844","","null","","","null","0","","","","","","","","","","","","","","","",""
"","ITI","","html-keyboard-response","10","104020","0.0-1.0-9.0","0","0","36844","","null","","","null","0","","","","","","","","","","","","","","","NaN",""
"","S1","","html-keyboard-response","11","104278","0.0-1.0-11.0","0","0","36844","","null","","","null","1","","","","","","","","","","","","","","","",""
"","ISI","","html-keyboard-response","12","104437","0.0-1.0-12.0","0","0","36844","","null","","","null","1","NaN","","","","","","","","","","","","","","",""
"","S2","","html-keyboard-response","13","104703","0.0-1.0-13.0","0","0","36844","","null","","","null","1","","NaN","","","","","","","","","","","","","",""
"","response","","html-keyboard-response","14","105325","0.0-1.0-14.0-0.0","0","0","36844","","619","","","68","1","","","1","1","training","adjacent","FE","6","5","P.jpg","O.jpg","1","0","0","",""
"","feedback","","html-keyboard-response","15","106331","0.0-1.0-15.0-0.0","0","0","36844","","null","","","null","1","","","","","","","","","","","","","","","",""
"","time_out","","html-keyboard-response","16","108336","0.0-1.0-17.0-0.0","0","0","36844","","null","","","null","1","","","","","","","","","","","","","","","",""
"","ITI","","html-keyboard-response","17","109347","0.0-1.0-18.0","0","0","36844","","null","","","null","1","","","","","","","","","","","","","","","NaN",""
"","S1","","html-keyboard-response","18","109604","0.0-1.0-20.0","0","0","36844","","null","","","null","2","","","","","","","","","","","","","","","",""
"","ISI","","html-keyboard-response","19","109767","0.0-1.0-21.0","0","0","36844","","null","","","null","2","NaN","","","","","","","","","","","","","","",""
"","S2","","html-keyboard-response","20","110024","0.0-1.0-22.0","0","0","36844","","null","","","null","2","","NaN","","","","","","","","","","","","","",""
"","response","","html-keyboard-response","21","110915","0.0-1.0-23.0-0.0","0","0","36844","","887","","","75","2","","","1","2","training","adjacent","BA","2","1","N.jpg","R.jpg","0","0","1","",""
"","feedback","","html-keyboard-response","22","111926","0.0-1.0-24.0-0.0","0","0","36844","","null","","","null","2","","","","","","","","","","","","","","","",""
"","ITI","","html-keyboard-response","23","112934","0.0-1.0-27.0","0","0","36844","","null","","","null","2","","","","","","","","","","","","","","","NaN",""
"","S1","","html-keyboard-response","24","113192","0.0-1.0-29.0","0","0","36844","","null","","","null","3","","","","","","","","","","","","","","","",""
"","ISI","","html-keyboard-response","25","113347","0.0-1.0-30.0","0","0","36844","","null","","","null","3","NaN","","","","","","","","","","","","","","",""
"","S2","","html-keyboard-response","26","113604","0.0-1.0-31.0","0","0","36844","","null","","","null","3","","NaN","","","","","","","","","","","","","",""
"","response","","html-keyboard-response","27","114077","0.0-1.0-32.0-0.0","0","0","36844","","470","","","68","3","","","1","3","training","adjacent","CB","3","2","M.jpg","N.jpg","1","0","0","",""
"","feedback","","html-keyboard-response","28","115083","0.0-1.0-33.0-0.0","0","0","36844","","null","","","null","3","","","","","","","","","","","","","","","",""
"","time_out","","html-keyboard-response","29","117086","0.0-1.0-35.0-0.0","0","0","36844","","null","","","null","3","","","","","","","","","","","","","","","",""
"","ITI","","html-keyboard-response","30","118094","0.0-1.0-36.0","0","0","36844","","null","","","null","3","","","","","","","","","","","","","","","NaN",""
"","S1","","html-keyboard-response","31","118353","0.0-1.0-38.0","0","0","36844","","null","","","null","4","","","","","","","","","","","","","","","",""
"","ISI","","html-keyboard-response","32","118519","0.0-1.0-39.0","0","0","36844","","null","","","null","4","NaN","","","","","","","","","","","","","","",""
"","S2","","html-keyboard-response","33","118787","0.0-1.0-40.0","0","0","36844","","null","","","null","4","","NaN","","","","","","","","","","","","","",""
"","response","","html-keyboard-response","34","119109","0.0-1.0-41.0-0.0","0","0","36844","","319","","","75","4","","","1","4","training","adjacent","EF","5","6","O.jpg","P.jpg","0","1","0","",""
"","feedback","","html-keyboard-response","35","120119","0.0-1.0-42.0-0.0","0","0","36844","","null","","","null","4","","","","","","","","","","","","","","","",""
"","time_out","","html-keyboard-response","36","122132","0.0-1.0-44.0-0.0","0","0","36844","","null","","","null","4","","","","","","","","","","","","","","","",""
"","ITI","","html-keyboard-response","37","123139","0.0-1.0-45.0","0","0","36844","","null","","","null","4","","","","","","","","","","","","","","","NaN",""
"","S1","","html-keyboard-response","38","123398","0.0-1.0-47.0","0","0","36844","","null","","","null","5","","","","","","","","","","","","","","","",""
"","ISI","","html-keyboard-response","39","123556","0.0-1.0-48.0","0","0","36844","","null","","","null","5","NaN","","","","","","","","","","","","","","",""
"","S2","","html-keyboard-response","40","123823","0.0-1.0-49.0","0","0","36844","","null","","","null","5","","NaN","","","","","","","","","","","","","",""
"","response","","html-keyboard-response","41","124161","0.0-1.0-50.0-0.0","0","0","36844","","335","","","75","5","","","1","5","training","adjacent","FE","6","5","P.jpg","O.jpg","0","0","1","",""
"","feedback","","html-keyboard-response","42","125173","0.0-1.0-51.0-0.0","0","0","36844","","null","","","null","5","","","","","","","","","","","","","","","",""
"","ITI","","html-keyboard-response","43","126185","0.0-1.0-54.0","0","0","36844","","null","","","null","5","","","","","","","","","","","","","","","NaN",""
"","S1","","html-keyboard-response","44","126444","0.0-1.0-56.0","0","0","36844","","null","","","null","6","","","","","","","","","","","","","","","",""
"","ISI","","html-keyboard-response","45","126598","0.0-1.0-57.0","0","0","36844","","null","","","null","6","NaN","","","","","","","","","","","","","","",""
"","S2","","html-keyboard-response","46","126856","0.0-1.0-58.0","0","0","36844","","null","","","null","6","","NaN","","","","","","","","","","","","","",""
"","response","","html-keyboard-response","47","127079","0.0-1.0-59.0-0.0","0","0","36844","","220","","","68","6","","","1","6","training","adjacent","AB","1","2","R.jpg","N.jpg","1","1","1","",""
"","feedback","","html-keyboard-response","48","128098","0.0-1.0-60.0-0.0","0","0","36844","","null","","","null","6","","","","","","","","","","","","","","","",""
"","ITI","","html-keyboard-response","49","129112","0.0-1.0-63.0","0","0","36844","","null","","","null","6","","","","","","","","","","","","","","","NaN",""
"","S1","","html-keyboard-response","50","129370","0.0-1.0-65.0","0","0","36844","","null","","","null","7","","","","","","","","","","","","","","","",""
"","ISI","","html-keyboard-response","51","129528","0.0-1.0-66.0","0","0","36844","","null","","","null","7","NaN","","","","","","","","","","","","","","",""
"","S2","","html-keyboard-response","52","129793","0.0-1.0-67.0","0","0","36844","","null","","","null","7","","NaN","","","","","","","","","","","","","",""
"","response","","html-keyboard-response","53","129980","0.0-1.0-68.0-0.0","0","0","36844","","186","","","68","7","","","1","7","training","adjacent","CD","3","4","M.jpg","Q.jpg","1","1","1","",""
"","feedback","","html-keyboard-response","54","130998","0.0-1.0-69.0-0.0","0","0","36844","","null","","","null","7","","","","","","","","","","","","","","","",""
"","ITI","","html-keyboard-response","55","132006","0.0-1.0-72.0","0","0","36844","","null","","","null","7","","","","","","","","","","","","","","","NaN",""
"","S1","","html-keyboard-response","56","132273","0.0-1.0-74.0","0","0","36844","","null","","","null","8","","","","","","","","","","","","","","","",""
"","ISI","","html-keyboard-response","57","132439","0.0-1.0-75.0","0","0","36844","","null","","","null","8","NaN","","","","","","","","","","","","","","",""
"","S2","","html-keyboard-response","58","132698","0.0-1.0-76.0","0","0","36844","","null","","","null","8","","NaN","","","","","","","","","","","","","",""
"","response","","html-keyboard-response","59","132994","0.0-1.0-77.0-0.0","0","0","36844","","293","","","68","8","","","1","8","training","adjacent","DC","4","3","Q.jpg","M.jpg","1","0","0","",""
"","feedback","","html-keyboard-response","60","134004","0.0-1.0-78.0-0.0","0","0","36844","","null","","","null","8","","","","","","","","","","","","","","","",""
"","time_out","","html-keyboard-response","61","136010","0.0-1.0-80.0-0.0","0","0","36844","","null","","","null","8","","","","","","","","","","","","","","","",""
"","ITI","","html-keyboard-response","62","137028","0.0-1.0-81.0","0","0","36844","","null","","","null","8","","","","","","","","","","","","","","","NaN",""
"","S1","","html-keyboard-response","63","137286","0.0-1.0-83.0","0","0","36844","","null","","","null","9","","","","","","","","","","","","","","","",""
"","ISI","","html-keyboard-response","64","137444","0.0-1.0-84.0","0","0","36844","","null","","","null","9","NaN","","","","","","","","","","","","","","",""
"","S2","","html-keyboard-response","65","137711","0.0-1.0-85.0","0","0","36844","","null","","","null","9","","NaN","","","","","","","","","","","","","",""
"","response","","html-keyboard-response","66","138026","0.0-1.0-86.0-0.0","0","0","36844","","312","","","75","9","","","1","9","training","adjacent","GF","7","6","L.jpg","P.jpg","0","0","1","",""
"","feedback","","html-keyboard-response","67","139036","0.0-1.0-87.0-0.0","0","0","36844","","null","","","null","9","","","","","","","","","","","","","","","",""
"","ITI","","html-keyboard-response","68","140054","0.0-1.0-90.0","0","0","36844","","null","","","null","9","","","","","","","","","","","","","","","NaN",""
"","S1","","html-keyboard-response","69","140314","0.0-1.0-92.0","0","0","36844","","null","","","null","10","","","","","","","","","","","","","","","",""
"","ISI","","html-keyboard-response","70","140472","0.0-1.0-93.0","0","0","36844","","null","","","null","10","NaN","","","","","","","","","","","","","","",""
"","S2","","html-keyboard-response","71","140733","0.0-1.0-94.0","0","0","36844","","null","","","null","10","","NaN","","","","","","","","","","","","","",""
"","response","","html-keyboard-response","72","141120","0.0-1.0-95.0-0.0","0","0","36844","","385","","","75","10","","","1","10","training","adjacent","FG","6","7","P.jpg","L.jpg","0","1","0","",""
"","feedback","","html-keyboard-response","73","142136","0.0-1.0-96.0-0.0","0","0","36844","","null","","","null","10","","","","","","","","","","","","","","","",""
"","time_out","","html-keyboard-response","74","144139","0.0-1.0-98.0-0.0","0","0","36844","","null","","","null","10","","","","","","","","","","","","","","","",""
"","ITI","","html-keyboard-response","75","145143","0.0-1.0-99.0","0","0","36844","","null","","","null","10","","","","","","","","","","","","","","","NaN",""
"","S1","","html-keyboard-response","76","145403","0.0-1.0-101.0","0","0","36844","","null","","","null","11","","","","","","","","","","","","","","","",""
"","ISI","","html-keyboard-response","77","145561","0.0-1.0-102.0","0","0","36844","","null","","","null","11","NaN","","","","","","","","","","","","","","",""
"","S2","","html-keyboard-response","78","145818","0.0-1.0-103.0","0","0","36844","","null","","","null","11","","NaN","","","","","","","","","","","","","",""
"","response","","html-keyboard-response","79","146181","0.0-1.0-104.0-0.0","0","0","36844","","361","","","68","11","","","1","11","training","adjacent","BA","2","1","N.jpg","R.jpg","1","0","0","",""
"","feedback","","html-keyboard-response","80","147194","0.0-1.0-105.0-0.0","0","0","36844","","null","","","null","11","","","","","","","","","","","","","","","",""
"","time_out","","html-keyboard-response","81","149200","0.0-1.0-107.0-0.0","0","0","36844","","null","","","null","11","","","","","","","","","","","","","","","",""
"","ITI","","html-keyboard-response","82","150203","0.0-1.0-108.0","0","0","36844","","null","","","null","11","","","","","","","","","","","","","","","NaN",""
"","S1","","html-keyboard-response","83","150464","0.0-1.0-110.0","0","0","36844","","null","","","null","12","","","","","","","","","","","","","","","",""
"","ISI","","html-keyboard-response","84","150631","0.0-1.0-111.0","0","0","36844","","null","","","null","12","NaN","","","","","","","","","","","","","","",""
"","S2","","html-keyboard-response","85","150889","0.0-1.0-112.0","0","0","36844","","null","","","null","12","","NaN","","","","","","","","","","","","","",""
"","response","","html-keyboard-response","86","151258","0.0-1.0-113.0-0.0","0","0","36844","","366","","","75","12","","","1","12","training","adjacent","DE","4","5","Q.jpg","O.jpg","0","1","0","",""
"","feedback","","html-keyboard-response","87","152264","0.0-1.0-114.0-0.0","0","0","36844","","null","","","null","12","","","","","","","","","","","","","","","",""
"","time_out","","html-keyboard-response","88","154272","0.0-1.0-116.0-0.0","0","0","36844","","null","","","null","12","","","","","","","","","","","","","","","",""
"","ITI","","html-keyboard-response","89","155278","0.0-1.0-117.0","0","0","36844","","null","","","null","12","","","","","","","","","","","","","","","NaN",""
"","S1","","html-keyboard-response","90","155534","0.0-1.0-119.0","0","0","36844","","null","","","null","13","","","","","","","","","","","","","","","",""
"","ISI","","html-keyboard-response","91","155694","0.0-1.0-120.0","0","0","36844","","null","","","null","13","NaN","","","","","","","","","","","","","","",""
"","S2","","html-keyboard-response","92","155956","0.0-1.0-121.0","0","0","36844","","null","","","null","13","","NaN","","","","","","","","","","","","","",""
"","response","","html-keyboard-response","93","156048","0.0-1.0-122.0-0.0","0","0","36844","","89","","","75","13","","","1","13","training","adjacent","BC","2","3","N.jpg","M.jpg","0","1","0","",""
"","feedback","","html-keyboard-response","94","157056","0.0-1.0-123.0-0.0","0","0","36844","","null","","","null","13","","","","","","","","","","","","","","","",""
"","time_out","","html-keyboard-response","95","159064","0.0-1.0-125.0-0.0","0","0","36844","","null","","","null","13","","","","","","","","","","","","","","","",""
"","ITI","","html-keyboard-response","96","160072","0.0-1.0-126.0","0","0","36844","","null","","","null","13","","","","","","","","","","","","","","","NaN",""
"","S1","","html-keyboard-response","97","160329","0.0-1.0-128.0","0","0","36844","","null","","","null","14","","","","","","","","","","","","","","","",""
"","ISI","","html-keyboard-response","98","160488","0.0-1.0-129.0","0","0","36844","","null","","","null","14","NaN","","","","","","","","","","","","","","",""
"","S2","","html-keyboard-response","99","160702","0.0-1.0-130.0","0","0","36844","","212","","","75","14","","k","1","14","training","adjacent","FG","6","7","P.jpg","L.jpg","0","1","0","",""
"","feedback","","html-keyboard-response","100","161714","0.0-1.0-132.0-0.0","0","0","36844","","null","","","null","14","","","","","","","","","","","","","","","",""
"","time_out","","html-keyboard-response","101","163721","0.0-1.0-134.0-0.0","0","0","36844","","null","","","null","14","","","","","","","","","","","","","","","",""
"","ITI","","html-keyboard-response","102","164731","0.0-1.0-135.0","0","0","36844","","null","","","null","14","","","","","","","","","","","","","","","NaN",""
"","S1","","html-keyboard-response","103","164995","0.0-1.0-137.0","0","0","36844","","null","","","null","15","","","","","","","","","","","","","","","",""
"","ISI","","html-keyboard-response","104","165156","0.0-1.0-138.0","0","0","36844","","null","","","null","15","NaN","","","","","","","","","","","","","","",""
"","S2","","html-keyboard-response","105","165404","0.0-1.0-139.0","0","0","36844","","245","","","68","15","","d","1","15","training","adjacent","ED","5","4","O.jpg","Q.jpg","1","0","0","",""
"","feedback","","html-keyboard-response","106","166411","0.0-1.0-141.0-0.0","0","0","36844","","null","","","null","15","","","","","","","","","","","","","","","",""
"","time_out","","html-keyboard-response","107","168414","0.0-1.0-143.0-0.0","0","0","36844","","null","","","null","15","","","","","","","","","","","","","","","",""
"","ITI","","html-keyboard-response","108","169419","0.0-1.0-144.0","0","0","36844","","null","","","null","15","","","","","","","","","","","","","","","NaN",""
"","S1","","html-keyboard-response","109","169680","0.0-1.0-146.0","0","0","36844","","null","","","null","16","","","","","","","","","","","","","","","",""
"","ISI","","html-keyboard-response","110","169840","0.0-1.0-147.0","0","0","36844","","null","","","null","16","NaN","","","","","","","","","","","","","","",""
"","S2","","html-keyboard-response","111","170103","0.0-1.0-148.0","0","0","36844","","null","","","null","16","","NaN","","","","","","","","","","","","","",""
"","response","","html-keyboard-response","112","170445","0.0-1.0-149.0-0.0","0","0","36844","","340","","","68","16","","","1","16","training","adjacent","DE","4","5","Q.jpg","O.jpg","1","1","1","",""
"","feedback","","html-keyboard-response","113","171451","0.0-1.0-150.0-0.0","0","0","36844","","null","","","null","16","","","","","","","","","","","","","","","",""
"","ITI","","html-keyboard-response","114","172460","0.0-1.0-153.0","0","0","36844","","null","","","null","16","","","","","","","","","","","","","","","NaN",""
"","S1","","html-keyboard-response","115","172725","0.0-1.0-155.0","0","0","36844","","null","","","null","17","","","","","","","","","","","","","","","",""
"","ISI","","html-keyboard-response","116","172884","0.0-1.0-156.0","0","0","36844","","null","","","null","17","NaN","","","","","","","","","","","","","","",""
"","S2","","html-keyboard-response","117","173151","0.0-1.0-157.0","0","0","36844","","null","","","null","17","","NaN","","","","","","","","","","","","","",""
"","response","","html-keyboard-response","118","173965","0.0-1.0-158.0-0.0","0","0","36844","","812","","","68","17","","","1","17","training","adjacent","BA","2","1","N.jpg","R.jpg","1","0","0","",""
"","feedback","","html-keyboard-response","119","174970","0.0-1.0-159.0-0.0","0","0","36844","","null","","","null","17","","","","","","","","","","","","","","","",""
"","time_out","","html-keyboard-response","120","176973","0.0-1.0-161.0-0.0","0","0","36844","","null","","","null","17","","","","","","","","","","","","","","","",""
"","ITI","","html-keyboard-response","121","177981","0.0-1.0-162.0","0","0","36844","","null","","","null","17","","","","","","","","","","","","","","","NaN",""
"","S1","","html-keyboard-response","122","178248","0.0-1.0-164.0","0","0","36844","","null","","","null","18","","","","","","","","","","","","","","","",""
"","ISI","","html-keyboard-response","123","178405","0.0-1.0-165.0","0","0","36844","","null","","","null","18","NaN","","","","","","","","","","","","","","",""
"","S2","","html-keyboard-response","124","178664","0.0-1.0-166.0","0","0","36844","","null","","","null","18","","NaN","","","","","","","","","","","","","",""
"","response","","html-keyboard-response","125","178774","0.0-1.0-167.0-0.0","0","0","36844","","109","","","75","18","","","1","18","training","adjacent","EF","5","6","O.jpg","P.jpg","0","1","0","",""
"","feedback","","html-keyboard-response","126","179778","0.0-1.0-168.0-0.0","0","0","36844","","null","","","null","18","","","","","","","","","","","","","","","",""
"","time_out","","html-keyboard-response","127","181788","0.0-1.0-170.0-0.0","0","0","36844","","null","","","null","18","","","","","","","","","","","","","","","",""
"","ITI","","html-keyboard-response","128","182798","0.0-1.0-171.0","0","0","36844","","null","","","null","18","","","","","","","","","","","","","","","NaN",""
"","S1","","html-keyboard-response","129","183056","0.0-1.0-173.0","0","0","36844","","null","","","null","19","","","","","","","","","","","","","","","",""
"","ISI","","html-keyboard-response","130","183221","0.0-1.0-174.0","0","0","36844","","null","","","null","19","NaN","","","","","","","","","","","","","","",""
"","S2","","html-keyboard-response","131","183484","0.0-1.0-175.0","0","0","36844","","null","","","null","19","","NaN","","","","","","","","","","","","","",""
"","response","","html-keyboard-response","132","184007","0.0-1.0-176.0-0.0","0","0","36844","","522","","","68","19","","","1","19","training","adjacent","DE","4","5","Q.jpg","O.jpg","1","1","1","",""
"","feedback","","html-keyboard-response","133","185013","0.0-1.0-177.0-0.0","0","0","36844","","null","","","null","19","","","","","","","","","","","","","","","",""
"","ITI","","html-keyboard-response","134","186022","0.0-1.0-180.0","0","0","36844","","null","","","null","19","","","","","","","","","","","","","","","NaN",""
"","S1","","html-keyboard-response","135","186281","0.0-1.0-182.0","0","0","36844","","null","","","null","20","","","","","","","","","","","","","","","",""
"","ISI","","html-keyboard-response","136","186439","0.0-1.0-183.0","0","0","36844","","null","","","null","20","NaN","","","","","","","","","","","","","","",""
"","S2","","html-keyboard-response","137","186697","0.0-1.0-184.0","0","0","36844","","null","","","null","20","","NaN","","","","","","","","","","","","","",""
"","response","","html-keyboard-response","138","187172","0.0-1.0-185.0-0.0","0","0","36844","","473","","","68","20","","","1","20","training","adjacent","CB","3","2","M.jpg","N.jpg","1","0","0","",""
"","feedback","","html-keyboard-response","139","188181","0.0-1.0-186.0-0.0","0","0","36844","","null","","","null","20","","","","","","","","","","","","","","","",""
"","time_out","","html-keyboard-response","140","190189","0.0-1.0-188.0-0.0","0","0","36844","","null","","","null","20","","","","","","","","","","","","","","","",""
"","ITI","","html-keyboard-response","141","191194","0.0-1.0-189.0","0","0","36844","","null","","","null","20","","","","","","","","","","","","","","","NaN",""
"","S1","","html-keyboard-response","142","191461","0.0-1.0-191.0","0","0","36844","","null","","","null","21","","","","","","","","","","","","","","","",""
"","ISI","","html-keyboard-response","143","191616","0.0-1.0-192.0","0","0","36844","","null","","","null","21","NaN","","","","","","","","","","","","","","",""
"","S2","","html-keyboard-response","144","191873","0.0-1.0-193.0","0","0","36844","","null","","","null","21","","NaN","","","","","","","","","","","","","",""
"","response","","html-keyboard-response","145","192179","0.0-1.0-194.0-0.0","0","0","36844","","303","","","75","21","","","1","21","training","adjacent","BC","2","3","N.jpg","M.jpg","0","1","0","",""
"","feedback","","html-keyboard-response","146","193189","0.0-1.0-195.0-0.0","0","0","36844","","null","","","null","21","","","","","","","","","","","","","","","",""
"","time_out","","html-keyboard-response","147","195207","0.0-1.0-197.0-0.0","0","0","36844","","null","","","null","21","","","","","","","","","","","","","","","",""
"","ITI","","html-keyboard-response","148","196218","0.0-1.0-198.0","0","0","36844","","null","","","null","21","","","","","","","","","","","","","","","NaN",""
"","S1","","html-keyboard-response","149","196478","0.0-1.0-200.0","0","0","36844","","null","","","null","22","","","","","","","","","","","","","","","",""
"","ISI","","html-keyboard-response","150","196639","0.0-1.0-201.0","0","0","36844","","null","","","null","22","NaN","","","","","","","","","","","","","","",""
"","S2","","html-keyboard-response","151","196904","0.0-1.0-202.0","0","0","36844","","null","","","null","22","","NaN","","","","","","","","","","","","","",""
"","response","","html-keyboard-response","152","197501","0.0-1.0-203.0-0.0","0","0","36844","","594","","","68","22","","","1","22","training","adjacent","BA","2","1","N.jpg","R.jpg","1","0","0","",""
"","feedback","","html-keyboard-response","153","198511","0.0-1.0-204.0-0.0","0","0","36844","","null","","","null","22","","","","","","","","","","","","","","","",""
"","time_out","","html-keyboard-response","154","200519","0.0-1.0-206.0-0.0","0","0","36844","","null","","","null","22","","","","","","","","","","","","","","","",""
"","ITI","","html-keyboard-response","155","201528","0.0-1.0-207.0","0","0","36844","","null","","","null","22","","","","","","","","","","","","","","","NaN",""
"","S1","","html-keyboard-response","156","201781","0.0-1.0-209.0","0","0","36844","","null","","","null","23","","","","","","","","","","","","","","","",""
"","ISI","","html-keyboard-response","157","201939","0.0-1.0-210.0","0","0","36844","","null","","","null","23","NaN","","","","","","","","","","","","","","",""
"","S2","","html-keyboard-response","158","202205","0.0-1.0-211.0","0","0","36844","","null","","","null","23","","NaN","","","","","","","","","","","","","",""
"","response","","html-keyboard-response","159","202483","0.0-1.0-212.0-0.0","0","0","36844","","275","","","68","23","","","1","23","training","adjacent","DC","4","3","Q.jpg","M.jpg","1","0","0","",""
"","feedback","","html-keyboard-response","160","203489","0.0-1.0-213.0-0.0","0","0","36844","","null","","","null","23","","","","","","","","","","","","","","","",""
"","time_out","","html-keyboard-response","161","205498","0.0-1.0-215.0-0.0","0","0","36844","","null","","","null","23","","","","","","","","","","","","","","","",""
"","ITI","","html-keyboard-response","162","206503","0.0-1.0-216.0","0","0","36844","","null","","","null","23","","","","","","","","","","","","","","","NaN",""
"","S1","","html-keyboard-response","163","206769","0.0-1.0-218.0","0","0","36844","","null","","","null","24","","","","","","","","","","","","","","","",""
"","ISI","","html-keyboard-response","164","206928","0.0-1.0-219.0","0","0","36844","","null","","","null","24","NaN","","","","","","","","","","","","","","",""
"","S2","","html-keyboard-response","165","207195","0.0-1.0-220.0","0","0","36844","","null","","","null","24","","NaN","","","","","","","","","","","","","",""
"","response","","html-keyboard-response","166","207254","0.0-1.0-221.0-0.0","0","0","36844","","57","","","75","24","","","1","24","training","adjacent","ED","5","4","O.jpg","Q.jpg","0","0","1","",""
"","feedback","","html-keyboard-response","167","208270","0.0-1.0-222.0-0.0","0","0","36844","","null","","","null","24","","","","","","","","","","","","","","","",""
"","ITI","","html-keyboard-response","168","209285","0.0-1.0-225.0","0","0","36844","","null","","","null","24","","","","","","","","","","","","","","","NaN",""
"","S1","","html-keyboard-response","169","209544","0.0-1.0-227.0","0","0","36844","","null","","","null","25","","","","","","","","","","","","","","","",""
"","ISI","","html-keyboard-response","170","209711","0.0-1.0-228.0","0","0","36844","","null","","","null","25","NaN","","","","","","","","","","","","","","",""
"","S2","","html-keyboard-response","171","209966","0.0-1.0-229.0","0","0","36844","","null","","","null","25","","NaN","","","","","","","","","","","","","",""
"","response","","html-keyboard-response","172","210286","0.0-1.0-230.0-0.0","0","0","36844","","318","","","75","25","","","1","25","training","adjacent","GF","7","6","L.jpg","P.jpg","0","0","1","",""
"","feedback","","html-keyboard-response","173","211297","0.0-1.0-231.0-0.0","0","0","36844","","null","","","null","25","","","","","","","","","","","","","","","",""
"","ITI","","html-keyboard-response","174","212304","0.0-1.0-234.0","0","0","36844","","null","","","null","25","","","","","","","","","","","","","","","NaN",""
"","S1","","html-keyboard-response","175","212564","0.0-1.0-236.0","0","0","36844","","null","","","null","26","","","","","","","","","","","","","","","",""
"","ISI","","html-keyboard-response","176","212731","0.0-1.0-237.0","0","0","36844","","null","","","null","26","NaN","","","","","","","","","","","","","","",""
"","S2","","html-keyboard-response","177","212988","0.0-1.0-238.0","0","0","36844","","null","","","null","26","","NaN","","","","","","","","","","","","","",""
"","response","","html-keyboard-response","178","213280","0.0-1.0-239.0-0.0","0","0","36844","","290","","","75","26","","","1","26","training","adjacent","EF","5","6","O.jpg","P.jpg","0","1","0","",""
"","feedback","","html-keyboard-response","179","214288","0.0-1.0-240.0-0.0","0","0","36844","","null","","","null","26","","","","","","","","","","","","","","","",""
"","time_out","","html-keyboard-response","180","216306","0.0-1.0-242.0-0.0","0","0","36844","","null","","","null","26","","","","","","","","","","","","","","","",""
"","ITI","","html-keyboard-response","181","217315","0.0-1.0-243.0","0","0","36844","","null","","","null","26","","","","","","","","","","","","","","","NaN",""
"","S1","","html-keyboard-response","182","217581","0.0-1.0-245.0","0","0","36844","","null","","","null","27","","","","","","","","","","","","","","","",""
"","ISI","","html-keyboard-response","183","217739","0.0-1.0-246.0","0","0","36844","","null","","","null","27","NaN","","","","","","","","","","","","","","",""
"","S2","","html-keyboard-response","184","217998","0.0-1.0-247.0","0","0","36844","","null","","","null","27","","NaN","","","","","","","","","","","","","",""
"","response","","html-keyboard-response","185","218010","0.0-1.0-248.0-0.0","0","0","36844","","10","","","68","27","","","1","27","training","adjacent","FE","6","5","P.jpg","O.jpg","1","0","0","",""
"","feedback","","html-keyboard-response","186","219015","0.0-1.0-249.0-0.0","0","0","36844","","null","","","null","27","","","","","","","","","","","","","","","",""
"","time_out","","html-keyboard-response","187","221024","0.0-1.0-251.0-0.0","0","0","36844","","null","","","null","27","","","","","","","","","","","","","","","",""
"","ITI","","html-keyboard-response","188","222039","0.0-1.0-252.0","0","0","36844","","null","","","null","27","","","","","","","","","","","","","","","NaN",""
"","S1","","html-keyboard-response","189","222306","0.0-1.0-254.0","0","0","36844","","null","","","null","28","","","","","","","","","","","","","","","",""
"","ISI","","html-keyboard-response","190","222464","0.0-1.0-255.0","0","0","36844","","null","","","null","28","NaN","","","","","","","","","","","","","","",""
"","S2","","html-keyboard-response","191","222731","0.0-1.0-256.0","0","0","36844","","null","","","null","28","","NaN","","","","","","","","","","","","","",""
"","response","","html-keyboard-response","192","223293","0.0-1.0-257.0-0.0","0","0","36844","","559","","","68","28","","","1","28","training","adjacent","GF","7","6","L.jpg","P.jpg","1","0","0","",""
"","feedback","","html-keyboard-response","193","224298","0.0-1.0-258.0-0.0","0","0","36844","","null","","","null","28","","","","","","","","","","","","","","","",""
"","time_out","","html-keyboard-response","194","226301","0.0-1.0-260.0-0.0","0","0","36844","","null","","","null","28","","","","","","","","","","","","","","","",""
"","ITI","","html-keyboard-response","195","227308","0.0-1.0-261.0","0","0","36844","","null","","","null","28","","","","","","","","","","","","","","","NaN",""
"","S1","","html-keyboard-response","196","227564","0.0-1.0-263.0","0","0","36844","","null","","","null","29","","","","","","","","","","","","","","","",""
"","ISI","","html-keyboard-response","197","227733","0.0-1.0-264.0","0","0","36844","","null","","","null","29","NaN","","","","","","","","","","","","","","",""
"","S2","","html-keyboard-response","198","227989","0.0-1.0-265.0","0","0","36844","","null","","","null","29","","NaN","","","","","","","","","","","","","",""
"","response","","html-keyboard-response","199","228434","0.0-1.0-266.0-0.0","0","0","36844","","443","","","75","29","","","1","29","training","adjacent","AB","1","2","R.jpg","N.jpg","0","1","0","",""
"","feedback","","html-keyboard-response","200","229441","0.0-1.0-267.0-0.0","0","0","36844","","null","","","null","29","","","","","","","","","","","","","","","",""
"","time_out","","html-keyboard-response","201","231458","0.0-1.0-269.0-0.0","0","0","36844","","null","","","null","29","","","","","","","","","","","","","","","",""
"","ITI","","html-keyboard-response","202","232469","0.0-1.0-270.0","0","0","36844","","null","","","null","29","","","","","","","","","","","","","","","NaN",""
"","S1","","html-keyboard-response","203","232730","0.0-1.0-272.0","0","0","36844","","null","","","null","30","","","","","","","","","","","","","","","",""
"","ISI","","html-keyboard-response","204","232888","0.0-1.0-273.0","0","0","36844","","null","","","null","30","NaN","","","","","","","","","","","","","","",""
"","S2","","html-keyboard-response","205","233148","0.0-1.0-274.0","0","0","36844","","null","","","null","30","","NaN","","","","","","","","","","","","","",""
"","response","","html-keyboard-response","206","233576","0.0-1.0-275.0-0.0","0","0","36844","","426","","","75","30","","","1","30","training","adjacent","ED","5","4","O.jpg","Q.jpg","0","0","1","",""
"","feedback","","html-keyboard-response","207","234580","0.0-1.0-276.0-0.0","0","0","36844","","null","","","null","30","","","","","","","","","","","","","","","",""
"","ITI","","html-keyboard-response","208","235588","0.0-1.0-279.0","0","0","36844","","null","","","null","30","","","","","","","","","","","","","","","NaN",""
"","S1","","html-keyboard-response","209","235848","0.0-1.0-281.0","0","0","36844","","null","","","null","31","","","","","","","","","","","","","","","",""
"","ISI","","html-keyboard-response","210","236004","0.0-1.0-282.0","0","0","36844","","null","","","null","31","NaN","","","","","","","","","","","","","","",""
"","S2","","html-keyboard-response","211","236261","0.0-1.0-283.0","0","0","36844","","null","","","null","31","","NaN","","","","","","","","","","","","","",""
"","response","","html-keyboard-response","212","236770","0.0-1.0-284.0-0.0","0","0","36844","","507","","","75","31","","","1","31","training","adjacent","DC","4","3","Q.jpg","M.jpg","0","0","1","",""
"","feedback","","html-keyboard-response","213","237779","0.0-1.0-285.0-0.0","0","0","36844","","null","","","null","31","","","","","","","","","","","","","","","",""
"","ITI","","html-keyboard-response","214","238791","0.0-1.0-288.0","0","0","36844","","null","","","null","31","","","","","","","","","","","","","","","NaN",""
"","S1","","html-keyboard-response","215","239050","0.0-1.0-290.0","0","0","36844","","null","","","null","32","","","","","","","","","","","","","","","",""
"","ISI","","html-keyboard-response","216","239208","0.0-1.0-291.0","0","0","36844","","null","","","null","32","NaN","","","","","","","","","","","","","","",""
"","S2","","html-keyboard-response","217","239467","0.0-1.0-292.0","0","0","36844","","null","","","null","32","","NaN","","","","","","","","","","","","","",""
"","response","","html-keyboard-response","218","239870","0.0-1.0-293.0-0.0","0","0","36844","","400","","","75","32","","","1","32","training","adjacent","BC","2","3","N.jpg","M.jpg","0","1","0","",""
"","feedback","","html-keyboard-response","219","240881","0.0-1.0-294.0-0.0","0","0","36844","","null","","","null","32","","","","","","","","","","","","","","","",""
"","time_out","","html-keyboard-response","220","242892","0.0-1.0-296.0-0.0","0","0","36844","","null","","","null","32","","","","","","","","","","","","","","","",""
"","ITI","","html-keyboard-response","221","243897","0.0-1.0-297.0","0","0","36844","","null","","","null","32","","","","","","","","","","","","","","","NaN",""
"","S1","","html-keyboard-response","222","244154","0.0-1.0-299.0","0","0","36844","","null","","","null","33","","","","","","","","","","","","","","","",""
"","ISI","","html-keyboard-response","223","244314","0.0-1.0-300.0","0","0","36844","","null","","","null","33","NaN","","","","","","","","","","","","","","",""
"","S2","","html-keyboard-response","224","244573","0.0-1.0-301.0","0","0","36844","","null","","","null","33","","NaN","","","","","","","","","","","","","",""
"","response","","html-keyboard-response","225","245058","0.0-1.0-302.0-0.0","0","0","36844","","482","","","68","33","","","1","33","training","adjacent","AB","1","2","R.jpg","N.jpg","1","1","1","",""
"","feedback","","html-keyboard-response","226","246070","0.0-1.0-303.0-0.0","0","0","36844","","null","","","null","33","","","","","","","","","","","","","","","",""
"","ITI","","html-keyboard-response","227","247084","0.0-1.0-306.0","0","0","36844","","null","","","null","33","","","","","","","","","","","","","","","NaN",""
"","S1","","html-keyboard-response","228","247344","0.0-1.0-308.0","0","0","36844","","null","","","null","34","","","","","","","","","","","","","","","",""
"","ISI","","html-keyboard-response","229","247511","0.0-1.0-309.0","0","0","36844","","null","","","null","34","NaN","","","","","","","","","","","","","","",""
"","S2","","html-keyboard-response","230","247778","0.0-1.0-310.0","0","0","36844","","null","","","null","34","","NaN","","","","","","","","","","","","","",""
"","response","","html-keyboard-response","231","248427","0.0-1.0-311.0-0.0","0","0","36844","","646","","","68","34","","","1","34","training","adjacent","DE","4","5","Q.jpg","O.jpg","1","1","1","",""
"","feedback","","html-keyboard-response","232","249431","0.0-1.0-312.0-0.0","0","0","36844","","null","","","null","34","","","","","","","","","","","","","","","",""
"","ITI","","html-keyboard-response","233","250439","0.0-1.0-315.0","0","0","36844","","null","","","null","34","","","","","","","","","","","","","","","NaN",""
"","S1","","html-keyboard-response","234","250700","0.0-1.0-317.0","0","0","36844","","null","","","null","35","","","","","","","","","","","","","","","",""
"","ISI","","html-keyboard-response","235","250858","0.0-1.0-318.0","0","0","36844","","null","","","null","35","NaN","","","","","","","","","","","","","","",""
"","S2","","html-keyboard-response","236","251125","0.0-1.0-319.0","0","0","36844","","null","","","null","35","","NaN","","","","","","","","","","","","","",""
"","response","","html-keyboard-response","237","251439","0.0-1.0-320.0-0.0","0","0","36844","","312","","","68","35","","","1","35","training","adjacent","CD","3","4","M.jpg","Q.jpg","1","1","1","",""
"","feedback","","html-keyboard-response","238","252454","0.0-1.0-321.0-0.0","0","0","36844","","null","","","null","35","","","","","","","","","","","","","","","",""
"","ITI","","html-keyboard-response","239","253473","0.0-1.0-324.0","0","0","36844","","null","","","null","35","","","","","","","","","","","","","","","NaN",""
"","S1","","html-keyboard-response","240","253728","0.0-1.0-326.0","0","0","36844","","null","","","null","36","","","","","","","","","","","","","","","",""
"","ISI","","html-keyboard-response","241","253886","0.0-1.0-327.0","0","0","36844","","null","","","null","36","NaN","","","","","","","","","","","","","","",""
"","S2","","html-keyboard-response","242","254144","0.0-1.0-328.0","0","0","36844","","null","","","null","36","","NaN","","","","","","","","","","","","","",""
"","response","","html-keyboard-response","243","254492","0.0-1.0-329.0-0.0","0","0","36844","","346","","","75","36","","","1","36","training","adjacent","BC","2","3","N.jpg","M.jpg","0","1","0","",""
"","feedback","","html-keyboard-response","244","255498","0.0-1.0-330.0-0.0","0","0","36844","","null","","","null","36","","","","","","","","","","","","","","","",""
"","time_out","","html-keyboard-response","245","257503","0.0-1.0-332.0-0.0","0","0","36844","","null","","","null","36","","","","","","","","","","","","","","","",""
"","ITI","","html-keyboard-response","246","258507","0.0-1.0-333.0","0","0","36844","","null","","","null","36","","","","","","","","","","","","","","","NaN",""
"","S1","","html-keyboard-response","247","258772","0.0-1.0-335.0","0","0","36844","","null","","","null","37","","","","","","","","","","","","","","","",""
"","ISI","","html-keyboard-response","248","258940","0.0-1.0-336.0","0","0","36844","","null","","","null","37","NaN","","","","","","","","","","","","","","",""
"","S2","","html-keyboard-response","249","259197","0.0-1.0-337.0","0","0","36844","","null","","","null","37","","NaN","","","","","","","","","","","","","",""
"","response","","html-keyboard-response","250","259514","0.0-1.0-338.0-0.0","0","0","36844","","314","","","68","37","","","1","37","training","adjacent","CD","3","4","M.jpg","Q.jpg","1","1","1","",""
"","feedback","","html-keyboard-response","251","260523","0.0-1.0-339.0-0.0","0","0","36844","","null","","","null","37","","","","","","","","","","","","","","","",""
"","ITI","","html-keyboard-response","252","261531","0.0-1.0-342.0","0","0","36844","","null","","","null","37","","","","","","","","","","","","","","","NaN",""
"","S1","","html-keyboard-response","253","261789","0.0-1.0-344.0","0","0","36844","","null","","","null","38","","","","","","","","","","","","","","","",""
"","ISI","","html-keyboard-response","254","261949","0.0-1.0-345.0","0","0","36844","","null","","","null","38","NaN","","","","","","","","","","","","","","",""
"","S2","","html-keyboard-response","255","262204","0.0-1.0-346.0","0","0","36844","","null","","","null","38","","NaN","","","","","","","","","","","","","",""
"","response","","html-keyboard-response","256","262552","0.0-1.0-347.0-0.0","0","0","36844","","346","","","68","38","","","1","38","training","adjacent","FG","6","7","P.jpg","L.jpg","1","1","1","",""
"","feedback","","html-keyboard-response","257","263566","0.0-1.0-348.0-0.0","0","0","36844","","null","","","null","38","","","","","","","","","","","","","","","",""
"","ITI","","html-keyboard-response","258","264573","0.0-1.0-351.0","0","0","36844","","null","","","null","38","","","","","","","","","","","","","","","NaN",""
"","S1","","html-keyboard-response","259","264831","0.0-1.0-353.0","0","0","36844","","null","","","null","39","","","","","","","","","","","","","","","",""
"","ISI","","html-keyboard-response","260","264989","0.0-1.0-354.0","0","0","36844","","null","","","null","39","NaN","","","","","","","","","","","","","","",""
"","S2","","html-keyboard-response","261","265256","0.0-1.0-355.0","0","0","36844","","null","","","null","39","","NaN","","","","","","","","","","","","","",""
"","response","","html-keyboard-response","262","265704","0.0-1.0-356.0-0.0","0","0","36844","","445","","","68","39","","","1","39","training","adjacent","CB","3","2","M.jpg","N.jpg","1","0","0","",""
"","feedback","","html-keyboard-response","263","266714","0.0-1.0-357.0-0.0","0","0","36844","","null","","","null","39","","","","","","","","","","","","","","","",""
"","time_out","","html-keyboard-response","264","268719","0.0-1.0-359.0-0.0","0","0","36844","","null","","","null","39","","","","","","","","","","","","","","","",""
"","ITI","","html-keyboard-response","265","269726","0.0-1.0-360.0","0","0","36844","","null","","","null","39","","","","","","","","","","","","","","","NaN",""
"","S1","","html-keyboard-response","266","269986","0.0-1.0-362.0","0","0","36844","","null","","","null","40","","","","","","","","","","","","","","","",""
"","ISI","","html-keyboard-response","267","270145","0.0-1.0-363.0","0","0","36844","","null","","","null","40","NaN","","","","","","","","","","","","","","",""
"","S2","","html-keyboard-response","268","270403","0.0-1.0-364.0","0","0","36844","","null","","","null","40","","NaN","","","","","","","","","","","","","",""
"","response","","html-keyboard-response","269","270638","0.0-1.0-365.0-0.0","0","0","36844","","232","","","75","40","","","1","40","training","adjacent","ED","5","4","O.jpg","Q.jpg","0","0","1","",""
"","feedback","","html-keyboard-response","270","271656","0.0-1.0-366.0-0.0","0","0","36844","","null","","","null","40","","","","","","","","","","","","","","","",""
"","ITI","","html-keyboard-response","271","272670","0.0-1.0-369.0","0","0","36844","","null","","","null","40","","","","","","","","","","","","","","","NaN",""
"","S1","","html-keyboard-response","272","272938","0.0-1.0-371.0","0","0","36844","","null","","","null","41","","","","","","","","","","","","","","","",""
"","ISI","","html-keyboard-response","273","273098","0.0-1.0-372.0","0","0","36844","","null","","","null","41","NaN","","","","","","","","","","","","","","",""
"","S2","","html-keyboard-response","274","273355","0.0-1.0-373.0","0","0","36844","","null","","","null","41","","NaN","","","","","","","","","","","","","",""
"","response","","html-keyboard-response","275","273670","0.0-1.0-374.0-0.0","0","0","36844","","313","","","75","41","","","1","41","training","adjacent","CB","3","2","M.jpg","N.jpg","0","0","1","",""
"","feedback","","html-keyboard-response","276","274681","0.0-1.0-375.0-0.0","0","0","36844","","null","","","null","41","","","","","","","","","","","","","","","",""
"","ITI","","html-keyboard-response","277","275691","0.0-1.0-378.0","0","0","36844","","null","","","null","41","","","","","","","","","","","","","","","NaN",""
"","S1","","html-keyboard-response","278","275951","0.0-1.0-380.0","0","0","36844","","null","","","null","42","","","","","","","","","","","","","","","",""
"","ISI","","html-keyboard-response","279","276111","0.0-1.0-381.0","0","0","36844","","null","","","null","42","NaN","","","","","","","","","","","","","","",""
"","S2","","html-keyboard-response","280","276373","0.0-1.0-382.0","0","0","36844","","null","","","null","42","","NaN","","","","","","","","","","","","","",""
"","response","","html-keyboard-response","281","276678","0.0-1.0-383.0-0.0","0","0","36844","","303","","","75","42","","","1","42","training","adjacent","GF","7","6","L.jpg","P.jpg","0","0","1","",""
"","feedback","","html-keyboard-response","282","277694","0.0-1.0-384.0-0.0","0","0","36844","","null","","","null","42","","","","","","","","","","","","","","","",""
"","ITI","","html-keyboard-response","283","278711","0.0-1.0-387.0","0","0","36844","","null","","","null","42","","","","","","","","","","","","","","","NaN",""
"","S1","","html-keyboard-response","284","278969","0.0-1.0-389.0","0","0","36844","","null","","","null","43","","","","","","","","","","","","","","","",""
"","ISI","","html-keyboard-response","285","279127","0.0-1.0-390.0","0","0","36844","","null","","","null","43","NaN","","","","","","","","","","","","","","",""
"","S2","","html-keyboard-response","286","279394","0.0-1.0-391.0","0","0","36844","","null","","","null","43","","NaN","","","","","","","","","","","","","",""
"","response","","html-keyboard-response","287","279701","0.0-1.0-392.0-0.0","0","0","36844","","304","","","75","43","","","1","43","training","adjacent","FE","6","5","P.jpg","O.jpg","0","0","1","",""
"","feedback","","html-keyboard-response","288","280711","0.0-1.0-393.0-0.0","0","0","36844","","null","","","null","43","","","","","","","","","","","","","","","",""
"","ITI","","html-keyboard-response","289","281722","0.0-1.0-396.0","0","0","36844","","null","","","null","43","","","","","","","","","","","","","","","NaN",""
"","S1","","html-keyboard-response","290","281977","0.0-1.0-398.0","0","0","36844","","null","","","null","44","","","","","","","","","","","","","","","",""
"","ISI","","html-keyboard-response","291","282141","0.0-1.0-399.0","0","0","36844","","null","","","null","44","NaN","","","","","","","","","","","","","","",""
"","S2","","html-keyboard-response","292","282400","0.0-1.0-400.0","0","0","36844","","null","","","null","44","","NaN","","","","","","","","","","","","","",""
"","response","","html-keyboard-response","293","282709","0.0-1.0-401.0-0.0","0","0","36844","","306","","","75","44","","","1","44","training","adjacent","AB","1","2","R.jpg","N.jpg","0","1","0","",""
"","feedback","","html-keyboard-response","294","283719","0.0-1.0-402.0-0.0","0","0","36844","","null","","","null","44","","","","","","","","","","","","","","","",""
"","time_out","","html-keyboard-response","295","285723","0.0-1.0-404.0-0.0","0","0","36844","","null","","","null","44","","","","","","","","","","","","","","","",""
"","ITI","","html-keyboard-response","296","286734","0.0-1.0-405.0","0","0","36844","","null","","","null","44","","","","","","","","","","","","","","","NaN",""
"","S1","","html-keyboard-response","297","286993","0.0-1.0-407.0","0","0","36844","","null","","","null","45","","","","","","","","","","","","","","","",""
"","ISI","","html-keyboard-response","298","287151","0.0-1.0-408.0","0","0","36844","","null","","","null","45","NaN","","","","","","","","","","","","","","",""
"","S2","","html-keyboard-response","299","287411","0.0-1.0-409.0","0","0","36844","","null","","","null","45","","NaN","","","","","","","","","","","","","",""
"","response","","html-keyboard-response","300","287444","0.0-1.0-410.0-0.0","0","0","36844","","30","","","75","45","","","1","45","training","adjacent","DC","4","3","Q.jpg","M.jpg","0","0","1","",""
"","feedback","","html-keyboard-response","301","288455","0.0-1.0-411.0-0.0","0","0","36844","","null","","","null","45","","","","","","","","","","","","","","","",""
"","ITI","","html-keyboard-response","302","289465","0.0-1.0-414.0","0","0","36844","","null","","","null","45","","","","","","","","","","","","","","","NaN",""
"","S1","","html-keyboard-response","303","289731","0.0-1.0-416.0","0","0","36844","","null","","","null","46","","","","","","","","","","","","","","","",""
"","ISI","","html-keyboard-response","304","289890","0.0-1.0-417.0","0","0","36844","","null","","","null","46","NaN","","","","","","","","","","","","","","",""
"","S2","","html-keyboard-response","305","290148","0.0-1.0-418.0","0","0","36844","","null","","","null","46","","NaN","","","","","","","","","","","","","",""
"","response","","html-keyboard-response","306","290341","0.0-1.0-419.0-0.0","0","0","36844","","190","","","68","46","","","1","46","training","adjacent","FG","6","7","P.jpg","L.jpg","1","1","1","",""
"","feedback","","html-keyboard-response","307","291344","0.0-1.0-420.0-0.0","0","0","36844","","null","","","null","46","","","","","","","","","","","","","","","",""
"","ITI","","html-keyboard-response","308","292353","0.0-1.0-423.0","0","0","36844","","null","","","null","46","","","","","","","","","","","","","","","NaN",""
"","S1","","html-keyboard-response","309","292611","0.0-1.0-425.0","0","0","36844","","null","","","null","47","","","","","","","","","","","","","","","",""
"","ISI","","html-keyboard-response","310","292778","0.0-1.0-426.0","0","0","36844","","null","","","null","47","NaN","","","","","","","","","","","","","","",""
"","S2","","html-keyboard-response","311","293035","0.0-1.0-427.0","0","0","36844","","null","","","null","47","","NaN","","","","","","","","","","","","","",""
"","response","","html-keyboard-response","312","293468","0.0-1.0-428.0-0.0","0","0","36844","","431","","","68","47","","","1","47","training","adjacent","CD","3","4","M.jpg","Q.jpg","1","1","1","",""
"","feedback","","html-keyboard-response","313","294471","0.0-1.0-429.0-0.0","0","0","36844","","null","","","null","47","","","","","","","","","","","","","","","",""
"","ITI","","html-keyboard-response","314","295483","0.0-1.0-432.0","0","0","36844","","null","","","null","47","","","","","","","","","","","","","","","NaN",""
"","block_over","","html-keyboard-response","315","313095","0.0-1.0-433.0-0.0","0","0","36844","","17608","","","32","47","","","","","","","","","","","","","","","",""
"","S1","","html-keyboard-response","316","313356","0.0-1.0-434.0","0","0","36844","","null","","","null","48","","","","","","","","","","","","","","","",""
"","ISI","","html-keyboard-response","317","313514","0.0-1.0-435.0","0","0","36844","","null","","","null","48","NaN","","","","","","","","","","","","","","",""
"","S2","","html-keyboard-response","318","313773","0.0-1.0-436.0","0","0","36844","","null","","","null","48","","NaN","","","","","","","","","","","","","",""
"","response","","html-keyboard-response","319","314480","0.0-1.0-437.0-0.0","0","0","36844","","706","","","75","48","","","2","48","training","adjacent","BA","2","1","N.jpg","R.jpg","0","0","1","",""
"","feedback","","html-keyboard-response","320","315484","0.0-1.0-438.0-0.0","0","0","36844","","null","","","null","48","","","","","","","","","","","","","","","",""
"","ITI","","html-keyboard-response","321","316494","0.0-1.0-441.0","0","0","36844","","null","","","null","48","","","","","","","","","","","","","","","NaN",""
"","S1","","html-keyboard-response","322","316753","0.0-1.0-443.0","0","0","36844","","null","","","null","49","","","","","","","","","","","","","","","",""
"","ISI","","html-keyboard-response","323","316911","0.0-1.0-444.0","0","0","36844","","null","","","null","49","NaN","","","","","","","","","","","","","","",""
"","S2","","html-keyboard-response","324","317178","0.0-1.0-445.0","0","0","36844","","null","","","null","49","","NaN","","","","","","","","","","","","","",""
"","response","","html-keyboard-response","325","317615","0.0-1.0-446.0-0.0","0","0","36844","","434","","","75","49","","","2","49","training","adjacent","BC","2","3","N.jpg","M.jpg","0","1","0","",""
"","feedback","","html-keyboard-response","326","318619","0.0-1.0-447.0-0.0","0","0","36844","","null","","","null","49","","","","","","","","","","","","","","","",""
"","time_out","","html-keyboard-response","327","320622","0.0-1.0-449.0-0.0","0","0","36844","","null","","","null","49","","","","","","","","","","","","","","","",""
"","ITI","","html-keyboard-response","328","321634","0.0-1.0-450.0","0","0","36844","","null","","","null","49","","","","","","","","","","","","","","","NaN",""
"","S1","","html-keyboard-response","329","321894","0.0-1.0-452.0","0","0","36844","","null","","","null","50","","","","","","","","","","","","","","","",""
"","ISI","","html-keyboard-response","330","322061","0.0-1.0-453.0","0","0","36844","","null","","","null","50","NaN","","","","","","","","","","","","","","",""
"","S2","","html-keyboard-response","331","322319","0.0-1.0-454.0","0","0","36844","","null","","","null","50","","NaN","","","","","","","","","","","","","",""
"","response","","html-keyboard-response","332","322657","0.0-1.0-455.0-0.0","0","0","36844","","335","","","68","50","","","2","50","training","adjacent","BA","2","1","N.jpg","R.jpg","1","0","0","",""
"","feedback","","html-keyboard-response","333","323669","0.0-1.0-456.0-0.0","0","0","36844","","null","","","null","50","","","","","","","","","","","","","","","",""
"","time_out","","html-keyboard-response","334","325672","0.0-1.0-458.0-0.0","0","0","36844","","null","","","null","50","","","","","","","","","","","","","","","",""
"","ITI","","html-keyboard-response","335","326678","0.0-1.0-459.0","0","0","36844","","null","","","null","50","","","","","","","","","","","","","","","NaN",""
"","S1","","html-keyboard-response","336","326938","0.0-1.0-461.0","0","0","36844","","null","","","null","51","","","","","","","","","","","","","","","",""
"","ISI","","html-keyboard-response","337","327096","0.0-1.0-462.0","0","0","36844","","null","","","null","51","NaN","","","","","","","","","","","","","","",""
"","S2","","html-keyboard-response","338","327362","0.0-1.0-463.0","0","0","36844","","null","","","null","51","","NaN","","","","","","","","","","","","","",""
"","response","","html-keyboard-response","339","327463","0.0-1.0-464.0-0.0","0","0","36844","","98","","","75","51","","","2","51","training","adjacent","BC","2","3","N.jpg","M.jpg","0","1","0","",""
"","feedback","","html-keyboard-response","340","328481","0.0-1.0-465.0-0.0","0","0","36844","","null","","","null","51","","","","","","","","","","","","","","","",""
"","time_out","","html-keyboard-response","341","330489","0.0-1.0-467.0-0.0","0","0","36844","","null","","","null","51","","","","","","","","","","","","","","","",""
"","ITI","","html-keyboard-response","342","331506","0.0-1.0-468.0","0","0","36844","","null","","","null","51","","","","","","","","","","","","","","","NaN",""
"","S1","","html-keyboard-response","343","331765","0.0-1.0-470.0","0","0","36844","","null","","","null","52","","","","","","","","","","","","","","","",""
"","ISI","","html-keyboard-response","344","331922","0.0-1.0-471.0","0","0","36844","","null","","","null","52","NaN","","","","","","","","","","","","","","",""
"","S2","","html-keyboard-response","345","332183","0.0-1.0-472.0","0","0","36844","","null","","","null","52","","NaN","","","","","","","","","","","","","",""
"","response","","html-keyboard-response","346","332469","0.0-1.0-473.0-0.0","0","0","36844","","283","","","68","52","","","2","52","training","adjacent","DE","4","5","Q.jpg","O.jpg","1","1","1","",""
"","feedback","","html-keyboard-response","347","333477","0.0-1.0-474.0-0.0","0","0","36844","","null","","","null","52","","","","","","","","","","","","","","","",""
"","ITI","","html-keyboard-response","348","334489","0.0-1.0-477.0","0","0","36844","","null","","","null","52","","","","","","","","","","","","","","","NaN",""
"","S1","","html-keyboard-response","349","334748","0.0-1.0-479.0","0","0","36844","","null","","","null","53","","","","","","","","","","","","","","","",""
"","ISI","","html-keyboard-response","350","334906","0.0-1.0-480.0","0","0","36844","","null","","","null","53","NaN","","","","","","","","","","","","","","",""
"","S2","","html-keyboard-response","351","335164","0.0-1.0-481.0","0","0","36844","","null","","","null","53","","NaN","","","","","","","","","","","","","",""
"","response","","html-keyboard-response","352","336217","0.0-1.0-482.0-0.0","0","0","36844","","1049","","","75","53","","","2","53","training","adjacent","FE","6","5","P.jpg","O.jpg","0","0","1","",""
"","feedback","","html-keyboard-response","353","337223","0.0-1.0-483.0-0.0","0","0","36844","","null","","","null","53","","","","","","","","","","","","","","","",""
"","ITI","","html-keyboard-response","354","338234","0.0-1.0-486.0","0","0","36844","","null","","","null","53","","","","","","","","","","","","","","","NaN",""
"","S1","","html-keyboard-response","355","338494","0.0-1.0-488.0","0","0","36844","","null","","","null","54","","","","","","","","","","","","","","","",""
"","ISI","","html-keyboard-response","356","338661","0.0-1.0-489.0","0","0","36844","","null","","","null","54","NaN","","","","","","","","","","","","","","",""
"","S2","","html-keyboard-response","357","338920","0.0-1.0-490.0","0","0","36844","","null","","","null","54","","NaN","","","","","","","","","","","","","",""
"","response","","html-keyboard-response","358","339576","0.0-1.0-491.0-0.0","0","0","36844","","654","","","75","54","","","2","54","training","adjacent","CD","3","4","M.jpg","Q.jpg","0","1","0","",""
"","feedback","","html-keyboard-response","359","340581","0.0-1.0-492.0-0.0","0","0","36844","","null","","","null","54","","","","","","","","","","","","","","","",""
"","time_out","","html-keyboard-response","360","342591","0.0-1.0-494.0-0.0","0","0","36844","","null","","","null","54","","","","","","","","","","","","","","","",""
"","ITI","","html-keyboard-response","361","343600","0.0-1.0-495.0","0","0","36844","","null","","","null","54","","","","","","","","","","","","","","","NaN",""
"","S1","","html-keyboard-response","362","343861","0.0-1.0-497.0","0","0","36844","","null","","","null","55","","","","","","","","","","","","","","","",""
"","ISI","","html-keyboard-response","363","344019","0.0-1.0-498.0","0","0","36844","","null","","","null","55","NaN","","","","","","","","","","","","","","",""
"","S2","","html-keyboard-response","364","344278","0.0-1.0-499.0","0","0","36844","","null","","","null","55","","NaN","","","","","","","","","","","","","",""
"","response","","html-keyboard-response","365","344607","0.0-1.0-500.0-0.0","0","0","36844","","327","","","68","55","","","2","55","training","adjacent","ED","5","4","O.jpg","Q.jpg","1","0","0","",""
"","feedback","","html-keyboard-response","366","345614","0.0-1.0-501.0-0.0","0","0","36844","","null","","","null","55","","","","","","","","","","","","","","","",""
"","time_out","","html-keyboard-response","367","347622","0.0-1.0-503.0-0.0","0","0","36844","","null","","","null","55","","","","","","","","","","","","","","","",""
"","ITI","","html-keyboard-response","368","348629","0.0-1.0-504.0","0","0","36844","","null","","","null","55","","","","","","","","","","","","","","","NaN",""
"","S1","","html-keyboard-response","369","348893","0.0-1.0-506.0","0","0","36844","","null","","","null","56","","","","","","","","","","","","","","","",""
"","ISI","","html-keyboard-response","370","349061","0.0-1.0-507.0","0","0","36844","","null","","","null","56","NaN","","","","","","","","","","","","","","",""
"","S2","","html-keyboard-response","371","349320","0.0-1.0-508.0","0","0","36844","","null","","","null","56","","NaN","","","","","","","","","","","","","",""
"","response","","html-keyboard-response","372","349755","0.0-1.0-509.0-0.0","0","0","36844","","434","","","75","56","","","2","56","training","adjacent","DE","4","5","Q.jpg","O.jpg","0","1","0","",""
"","feedback","","html-keyboard-response","373","350758","0.0-1.0-510.0-0.0","0","0","36844","","null","","","null","56","","","","","","","","","","","","","","","",""
"","time_out","","html-keyboard-response","374","352768","0.0-1.0-512.0-0.0","0","0","36844","","null","","","null","56","","","","","","","","","","","","","","","",""
"","ITI","","html-keyboard-response","375","353772","0.0-1.0-513.0","0","0","36844","","null","","","null","56","","","","","","","","","","","","","","","NaN",""
"","S1","","html-keyboard-response","376","354040","0.0-1.0-515.0","0","0","36844","","null","","","null","57","","","","","","","","","","","","","","","",""
"","ISI","","html-keyboard-response","377","354208","0.0-1.0-516.0","0","0","36844","","null","","","null","57","NaN","","","","","","","","","","","","","","",""
"","S2","","html-keyboard-response","378","354469","0.0-1.0-517.0","0","0","36844","","null","","","null","57","","NaN","","","","","","","","","","","","","",""
"","response","","html-keyboard-response","379","354898","0.0-1.0-518.0-0.0","0","0","36844","","426","","","68","57","","","2","57","training","adjacent","AB","1","2","R.jpg","N.jpg","1","1","1","",""
"","feedback","","html-keyboard-response","380","355902","0.0-1.0-519.0-0.0","0","0","36844","","null","","","null","57","","","","","","","","","","","","","","","",""
"","ITI","","html-keyboard-response","381","356910","0.0-1.0-522.0","0","0","36844","","null","","","null","57","","","","","","","","","","","","","","","NaN",""
"","S1","","html-keyboard-response","382","357170","0.0-1.0-524.0","0","0","36844","","null","","","null","58","","","","","","","","","","","","","","","",""
"","ISI","","html-keyboard-response","383","357328","0.0-1.0-525.0","0","0","36844","","null","","","null","58","NaN","","","","","","","","","","","","","","",""
"","S2","","html-keyboard-response","384","357586","0.0-1.0-526.0","0","0","36844","","null","","","null","58","","NaN","","","","","","","","","","","","","",""
"","response","","html-keyboard-response","385","358092","0.0-1.0-527.0-0.0","0","0","36844","","504","","","68","58","","","2","58","training","adjacent","AB","1","2","R.jpg","N.jpg","1","1","1","",""
"","feedback","","html-keyboard-response","386","359096","0.0-1.0-528.0-0.0","0","0","36844","","null","","","null","58","","","","","","","","","","","","","","","",""
"","ITI","","html-keyboard-response","387","360104","0.0-1.0-531.0","0","0","36844","","null","","","null","58","","","","","","","","","","","","","","","NaN",""
"","S1","","html-keyboard-response","388","360371","0.0-1.0-533.0","0","0","36844","","null","","","null","59","","","","","","","","","","","","","","","",""
"","ISI","","html-keyboard-response","389","360531","0.0-1.0-534.0","0","0","36844","","null","","","null","59","NaN","","","","","","","","","","","","","","",""
"","S2","","html-keyboard-response","390","360789","0.0-1.0-535.0","0","0","36844","","null","","","null","59","","NaN","","","","","","","","","","","","","",""
"","response","","html-keyboard-response","391","361332","0.0-1.0-536.0-0.0","0","0","36844","","540","","","75","59","","","2","59","training","adjacent","CD","3","4","M.jpg","Q.jpg","0","1","0","",""
"","feedback","","html-keyboard-response","392","362344","0.0-1.0-537.0-0.0","0","0","36844","","null","","","null","59","","","","","","","","","","","","","","","",""
"","time_out","","html-keyboard-response","393","364347","0.0-1.0-539.0-0.0","0","0","36844","","null","","","null","59","","","","","","","","","","","","","","","",""
"","ITI","","html-keyboard-response","394","365354","0.0-1.0-540.0","0","0","36844","","null","","","null","59","","","","","","","","","","","","","","","NaN",""
"","S1","","html-keyboard-response","395","365613","0.0-1.0-542.0","0","0","36844","","null","","","null","60","","","","","","","","","","","","","","","",""
"","ISI","","html-keyboard-response","396","365773","0.0-1.0-543.0","0","0","36844","","null","","","null","60","NaN","","","","","","","","","","","","","","",""
"","S2","","html-keyboard-response","397","366029","0.0-1.0-544.0","0","0","36844","","null","","","null","60","","NaN","","","","","","","","","","","","","",""
"","response","","html-keyboard-response","398","366383","0.0-1.0-545.0-0.0","0","0","36844","","351","","","68","60","","","2","60","training","adjacent","BC","2","3","N.jpg","M.jpg","1","1","1","",""
"","feedback","","html-keyboard-response","399","367389","0.0-1.0-546.0-0.0","0","0","36844","","null","","","null","60","","","","","","","","","","","","","","","",""
"","ITI","","html-keyboard-response","400","368400","0.0-1.0-549.0","0","0","36844","","null","","","null","60","","","","","","","","","","","","","","","NaN",""
"","S1","","html-keyboard-response","401","368656","0.0-1.0-551.0","0","0","36844","","null","","","null","61","","","","","","","","","","","","","","","",""
"","ISI","","html-keyboard-response","402","368812","0.0-1.0-552.0","0","0","36844","","null","","","null","61","NaN","","","","","","","","","","","","","","",""
"","S2","","html-keyboard-response","403","369071","0.0-1.0-553.0","0","0","36844","","null","","","null","61","","NaN","","","","","","","","","","","","","",""
"","response","","html-keyboard-response","404","369566","0.0-1.0-554.0-0.0","0","0","36844","","493","","","68","61","","","2","61","training","adjacent","FG","6","7","P.jpg","L.jpg","1","1","1","",""
"","feedback","","html-keyboard-response","405","370584","0.0-1.0-555.0-0.0","0","0","36844","","null","","","null","61","","","","","","","","","","","","","","","",""
"","ITI","","html-keyboard-response","406","371597","0.0-1.0-558.0","0","0","36844","","null","","","null","61","","","","","","","","","","","","","","","NaN",""
"","S1","","html-keyboard-response","407","371857","0.0-1.0-560.0","0","0","36844","","null","","","null","62","","","","","","","","","","","","","","","",""
"","ISI","","html-keyboard-response","408","372011","0.0-1.0-561.0","0","0","36844","","null","","","null","62","NaN","","","","","","","","","","","","","","",""
"","S2","","html-keyboard-response","409","372270","0.0-1.0-562.0","0","0","36844","","null","","","null","62","","NaN","","","","","","","","","","","","","",""
"","response","","html-keyboard-response","410","372550","0.0-1.0-563.0-0.0","0","0","36844","","278","","","68","62","","","2","62","training","adjacent","DC","4","3","Q.jpg","M.jpg","1","0","0","",""
"","feedback","","html-keyboard-response","411","373554","0.0-1.0-564.0-0.0","0","0","36844","","null","","","null","62","","","","","","","","","","","","","","","",""
"","time_out","","html-keyboard-response","412","375558","0.0-1.0-566.0-0.0","0","0","36844","","null","","","null","62","","","","","","","","","","","","","","","",""
"","ITI","","html-keyboard-response","413","376564","0.0-1.0-567.0","0","0","36844","","null","","","null","62","","","","","","","","","","","","","","","NaN",""
"","S1","","html-keyboard-response","414","376824","0.0-1.0-569.0","0","0","36844","","null","","","null","63","","","","","","","","","","","","","","","",""
"","ISI","","html-keyboard-response","415","376991","0.0-1.0-570.0","0","0","36844","","null","","","null","63","NaN","","","","","","","","","","","","","","",""
"","S2","","html-keyboard-response","416","377259","0.0-1.0-571.0","0","0","36844","","null","","","null","63","","NaN","","","","","","","","","","","","","",""
"","response","","html-keyboard-response","417","377542","0.0-1.0-572.0-0.0","0","0","36844","","281","","","75","63","","","2","63","training","adjacent","DC","4","3","Q.jpg","M.jpg","0","0","1","",""
"","feedback","","html-keyboard-response","418","378554","0.0-1.0-573.0-0.0","0","0","36844","","null","","","null","63","","","","","","","","","","","","","","","",""
"","ITI","","html-keyboard-response","419","379563","0.0-1.0-576.0","0","0","36844","","null","","","null","63","","","","","","","","","","","","","","","NaN",""
"","S1","","html-keyboard-response","420","379824","0.0-1.0-578.0","0","0","36844","","null","","","null","64","","","","","","","","","","","","","","","",""
"","ISI","","html-keyboard-response","421","379979","0.0-1.0-579.0","0","0","36844","","null","","","null","64","NaN","","","","","","","","","","","","","","",""
"","S2","","html-keyboard-response","422","380238","0.0-1.0-580.0","0","0","36844","","null","","","null","64","","NaN","","","","","","","","","","","","","",""
"","response","","html-keyboard-response","423","380649","0.0-1.0-581.0-0.0","0","0","36844","","409","","","75","64","","","2","64","training","adjacent","CB","3","2","M.jpg","N.jpg","0","0","1","",""
"","feedback","","html-keyboard-response","424","381655","0.0-1.0-582.0-0.0","0","0","36844","","null","","","null","64","","","","","","","","","","","","","","","",""
"","ITI","","html-keyboard-response","425","382665","0.0-1.0-585.0","0","0","36844","","null","","","null","64","","","","","","","","","","","","","","","NaN",""
"","S1","","html-keyboard-response","426","382926","0.0-1.0-587.0","0","0","36844","","null","","","null","65","","","","","","","","","","","","","","","",""
"","ISI","","html-keyboard-response","427","383084","0.0-1.0-588.0","0","0","36844","","null","","","null","65","NaN","","","","","","","","","","","","","","",""
"","S2","","html-keyboard-response","428","383351","0.0-1.0-589.0","0","0","36844","","null","","","null","65","","NaN","","","","","","","","","","","","","",""
"","response","","html-keyboard-response","429","383714","0.0-1.0-590.0-0.0","0","0","36844","","361","","","75","65","","","2","65","training","adjacent","BA","2","1","N.jpg","R.jpg","0","0","1","",""
"","feedback","","html-keyboard-response","430","384731","0.0-1.0-591.0-0.0","0","0","36844","","null","","","null","65","","","","","","","","","","","","","","","",""
"","ITI","","html-keyboard-response","431","385739","0.0-1.0-594.0","0","0","36844","","null","","","null","65","","","","","","","","","","","","","","","NaN",""
"","S1","","html-keyboard-response","432","385997","0.0-1.0-596.0","0","0","36844","","null","","","null","66","","","","","","","","","","","","","","","",""
"","ISI","","html-keyboard-response","433","386156","0.0-1.0-597.0","0","0","36844","","null","","","null","66","NaN","","","","","","","","","","","","","","",""
"","S2","","html-keyboard-response","434","386422","0.0-1.0-598.0","0","0","36844","","null","","","null","66","","NaN","","","","","","","","","","","","","",""
"","response","","html-keyboard-response","435","386761","0.0-1.0-599.0-0.0","0","0","36844","","337","","","75","66","","","2","66","training","adjacent","EF","5","6","O.jpg","P.jpg","0","1","0","",""
"","feedback","","html-keyboard-response","436","387768","0.0-1.0-600.0-0.0","0","0","36844","","null","","","null","66","","","","","","","","","","","","","","","",""
"","time_out","","html-keyboard-response","437","389772","0.0-1.0-602.0-0.0","0","0","36844","","null","","","null","66","","","","","","","","","","","","","","","",""
"","ITI","","html-keyboard-response","438","390776","0.0-1.0-603.0","0","0","36844","","null","","","null","66","","","","","","","","","","","","","","","NaN",""
"","S1","","html-keyboard-response","439","391044","0.0-1.0-605.0","0","0","36844","","null","","","null","67","","","","","","","","","","","","","","","",""
"","ISI","","html-keyboard-response","440","391211","0.0-1.0-606.0","0","0","36844","","null","","","null","67","NaN","","","","","","","","","","","","","","",""
"","S2","","html-keyboard-response","441","391469","0.0-1.0-607.0","0","0","36844","","null","","","null","67","","NaN","","","","","","","","","","","","","",""
"","response","","html-keyboard-response","442","391860","0.0-1.0-608.0-0.0","0","0","36844","","388","","","68","67","","","2","67","training","adjacent","FG","6","7","P.jpg","L.jpg","1","1","1","",""
"","feedback","","html-keyboard-response","443","392878","0.0-1.0-609.0-0.0","0","0","36844","","null","","","null","67","","","","","","","","","","","","","","","",""
"","ITI","","html-keyboard-response","444","393894","0.0-1.0-612.0","0","0","36844","","null","","","null","67","","","","","","","","","","","","","","","NaN",""
"","S1","","html-keyboard-response","445","394153","0.0-1.0-614.0","0","0","36844","","null","","","null","68","","","","","","","","","","","","","","","",""
"","ISI","","html-keyboard-response","446","394310","0.0-1.0-615.0","0","0","36844","","null","","","null","68","NaN","","","","","","","","","","","","","","",""
"","S2","","html-keyboard-response","447","394569","0.0-1.0-616.0","0","0","36844","","null","","","null","68","","NaN","","","","","","","","","","","","","",""
"","response","","html-keyboard-response","448","394954","0.0-1.0-617.0-0.0","0","0","36844","","382","","","68","68","","","2","68","training","adjacent","FG","6","7","P.jpg","L.jpg","1","1","1","",""
"","feedback","","html-keyboard-response","449","395962","0.0-1.0-618.0-0.0","0","0","36844","","null","","","null","68","","","","","","","","","","","","","","","",""
"","ITI","","html-keyboard-response","450","396980","0.0-1.0-621.0","0","0","36844","","null","","","null","68","","","","","","","","","","","","","","","NaN",""
"","S1","","html-keyboard-response","451","397239","0.0-1.0-623.0","0","0","36844","","null","","","null","69","","","","","","","","","","","","","","","",""
"","ISI","","html-keyboard-response","452","397398","0.0-1.0-624.0","0","0","36844","","null","","","null","69","NaN","","","","","","","","","","","","","","",""
"","S2","","html-keyboard-response","453","397656","0.0-1.0-625.0","0","0","36844","","null","","","null","69","","NaN","","","","","","","","","","","","","",""
"","response","","html-keyboard-response","454","397710","0.0-1.0-626.0-0.0","0","0","36844","","52","","","68","69","","","2","69","training","adjacent","FE","6","5","P.jpg","O.jpg","1","0","0","",""
"","feedback","","html-keyboard-response","455","398714","0.0-1.0-627.0-0.0","0","0","36844","","null","","","null","69","","","","","","","","","","","","","","","",""
"","time_out","","html-keyboard-response","456","400719","0.0-1.0-629.0-0.0","0","0","36844","","null","","","null","69","","","","","","","","","","","","","","","",""
"","ITI","","html-keyboard-response","457","401736","0.0-1.0-630.0","0","0","36844","","null","","","null","69","","","","","","","","","","","","","","","NaN",""
"","S1","","html-keyboard-response","458","401997","0.0-1.0-632.0","0","0","36844","","null","","","null","70","","","","","","","","","","","","","","","",""
"","ISI","","html-keyboard-response","459","402164","0.0-1.0-633.0","0","0","36844","","null","","","null","70","NaN","","","","","","","","","","","","","","",""
"","S2","","html-keyboard-response","460","402420","0.0-1.0-634.0","0","0","36844","","null","","","null","70","","NaN","","","","","","","","","","","","","",""
"","response","","html-keyboard-response","461","402630","0.0-1.0-635.0-0.0","0","0","36844","","208","","","75","70","","","2","70","training","adjacent","FE","6","5","P.jpg","O.jpg","0","0","1","",""
"","feedback","","html-keyboard-response","462","403633","0.0-1.0-636.0-0.0","0","0","36844","","null","","","null","70","","","","","","","","","","","","","","","",""
"","ITI","","html-keyboard-response","463","404642","0.0-1.0-639.0","0","0","36844","","null","","","null","70","","","","","","","","","","","","","","","NaN",""
"","S1","","html-keyboard-response","464","404897","0.0-1.0-641.0","0","0","36844","","null","","","null","71","","","","","","","","","","","","","","","",""
"","ISI","","html-keyboard-response","465","405061","0.0-1.0-642.0","0","0","36844","","null","","","null","71","NaN","","","","","","","","","","","","","","",""
"","S2","","html-keyboard-response","466","405316","0.0-1.0-643.0","0","0","36844","","null","","","null","71","","NaN","","","","","","","","","","","","","",""
"","response","","html-keyboard-response","467","405937","0.0-1.0-644.0-0.0","0","0","36844","","618","","","75","71","","","2","71","training","adjacent","CD","3","4","M.jpg","Q.jpg","0","1","0","",""
"","feedback","","html-keyboard-response","468","406944","0.0-1.0-645.0-0.0","0","0","36844","","null","","","null","71","","","","","","","","","","","","","","","",""
"","time_out","","html-keyboard-response","469","408948","0.0-1.0-647.0-0.0","0","0","36844","","null","","","null","71","","","","","","","","","","","","","","","",""
"","ITI","","html-keyboard-response","470","409957","0.0-1.0-648.0","0","0","36844","","null","","","null","71","","","","","","","","","","","","","","","NaN",""
"","S1","","html-keyboard-response","471","410217","0.0-1.0-650.0","0","0","36844","","null","","","null","72","","","","","","","","","","","","","","","",""
"","ISI","","html-keyboard-response","472","410373","0.0-1.0-651.0","0","0","36844","","null","","","null","72","NaN","","","","","","","","","","","","","","",""
"","S2","","html-keyboard-response","473","410634","0.0-1.0-652.0","0","0","36844","","null","","","null","72","","NaN","","","","","","","","","","","","","",""
"","response","","html-keyboard-response","474","410927","0.0-1.0-653.0-0.0","0","0","36844","","291","","","68","72","","","2","72","training","adjacent","DC","4","3","Q.jpg","M.jpg","1","0","0","",""
"","feedback","","html-keyboard-response","475","411931","0.0-1.0-654.0-0.0","0","0","36844","","null","","","null","72","","","","","","","","","","","","","","","",""
"","time_out","","html-keyboard-response","476","413938","0.0-1.0-656.0-0.0","0","0","36844","","null","","","null","72","","","","","","","","","","","","","","","",""
"","ITI","","html-keyboard-response","477","414943","0.0-1.0-657.0","0","0","36844","","null","","","null","72","","","","","","","","","","","","","","","NaN",""
"","S1","","html-keyboard-response","478","415196","0.0-1.0-659.0","0","0","36844","","null","","","null","73","","","","","","","","","","","","","","","",""
"","ISI","","html-keyboard-response","479","415352","0.0-1.0-660.0","0","0","36844","","null","","","null","73","NaN","","","","","","","","","","","","","","",""
"","S2","","html-keyboard-response","480","415613","0.0-1.0-661.0","0","0","36844","","null","","","null","73","","NaN","","","","","","","","","","","","","",""
"","response","","html-keyboard-response","481","415768","0.0-1.0-662.0-0.0","0","0","36844","","154","","","75","73","","","2","73","training","adjacent","GF","7","6","L.jpg","P.jpg","0","0","1","",""
"","feedback","","html-keyboard-response","482","416774","0.0-1.0-663.0-0.0","0","0","36844","","null","","","null","73","","","","","","","","","","","","","","","",""
"","ITI","","html-keyboard-response","483","417785","0.0-1.0-666.0","0","0","36844","","null","","","null","73","","","","","","","","","","","","","","","NaN",""
"","S1","","html-keyboard-response","484","418044","0.0-1.0-668.0","0","0","36844","","null","","","null","74","","","","","","","","","","","","","","","",""
"","ISI","","html-keyboard-response","485","418203","0.0-1.0-669.0","0","0","36844","","null","","","null","74","NaN","","","","","","","","","","","","","","",""
"","S2","","html-keyboard-response","486","418469","0.0-1.0-670.0","0","0","36844","","null","","","null","74","","NaN","","","","","","","","","","","","","",""
"","response","","html-keyboard-response","487","418763","0.0-1.0-671.0-0.0","0","0","36844","","291","","","68","74","","","2","74","training","adjacent","FG","6","7","P.jpg","L.jpg","1","1","1","",""
"","feedback","","html-keyboard-response","488","419769","0.0-1.0-672.0-0.0","0","0","36844","","null","","","null","74","","","","","","","","","","","","","","","",""
"","ITI","","html-keyboard-response","489","420781","0.0-1.0-675.0","0","0","36844","","null","","","null","74","","","","","","","","","","","","","","","NaN",""
"","S1","","html-keyboard-response","490","421039","0.0-1.0-677.0","0","0","36844","","null","","","null","75","","","","","","","","","","","","","","","",""
"","ISI","","html-keyboard-response","491","421197","0.0-1.0-678.0","0","0","36844","","null","","","null","75","NaN","","","","","","","","","","","","","","",""
"","S2","","html-keyboard-response","492","421464","0.0-1.0-679.0","0","0","36844","","null","","","null","75","","NaN","","","","","","","","","","","","","",""
"","response","","html-keyboard-response","493","421550","0.0-1.0-680.0-0.0","0","0","36844","","82","","","75","75","","","2","75","training","adjacent","CD","3","4","M.jpg","Q.jpg","0","1","0","",""
"","feedback","","html-keyboard-response","494","422556","0.0-1.0-681.0-0.0","0","0","36844","","null","","","null","75","","","","","","","","","","","","","","","",""
"","time_out","","html-keyboard-response","495","424564","0.0-1.0-683.0-0.0","0","0","36844","","null","","","null","75","","","","","","","","","","","","","","","",""
"","ITI","","html-keyboard-response","496","425577","0.0-1.0-684.0","0","0","36844","","null","","","null","75","","","","","","","","","","","","","","","NaN",""
"","S1","","html-keyboard-response","497","425834","0.0-1.0-686.0","0","0","36844","","null","","","null","76","","","","","","","","","","","","","","","",""
"","ISI","","html-keyboard-response","498","426002","0.0-1.0-687.0","0","0","36844","","null","","","null","76","NaN","","","","","","","","","","","","","","",""
"","S2","","html-keyboard-response","499","426261","0.0-1.0-688.0","0","0","36844","","null","","","null","76","","NaN","","","","","","","","","","","","","",""
"","response","","html-keyboard-response","500","426327","0.0-1.0-689.0-0.0","0","0","36844","","63","","","68","76","","","2","76","training","adjacent","BA","2","1","N.jpg","R.jpg","1","0","0","",""
"","feedback","","html-keyboard-response","501","427335","0.0-1.0-690.0-0.0","0","0","36844","","null","","","null","76","","","","","","","","","","","","","","","",""
"","time_out","","html-keyboard-response","502","429339","0.0-1.0-692.0-0.0","0","0","36844","","null","","","null","76","","","","","","","","","","","","","","","",""
"","ITI","","html-keyboard-response","503","430354","0.0-1.0-693.0","0","0","36844","","null","","","null","76","","","","","","","","","","","","","","","NaN",""
"","S1","","html-keyboard-response","504","430609","0.0-1.0-695.0","0","0","36844","","null","","","null","77","","","","","","","","","","","","","","","",""
"","ISI","","html-keyboard-response","505","430766","0.0-1.0-696.0","0","0","36844","","58","","","75","77","k","","","","","","","","","","","","","","",""
"","S2","","html-keyboard-response","506","431026","0.0-1.0-697.0","0","0","36844","","null","","","null","77","","NaN","","","","","","","","","","","","","",""
"","response","","html-keyboard-response","507","431451","0.0-1.0-698.0-0.0","0","0","36844","","424","","","75","77","","","2","77","training","adjacent","ED","5","4","O.jpg","Q.jpg","0","0","1","",""
"","feedback","","html-keyboard-response","508","432458","0.0-1.0-699.0-0.0","0","0","36844","","null","","","null","77","","","","","","","","","","","","","","","",""
"","ITI","","html-keyboard-response","509","433467","0.0-1.0-702.0","0","0","36844","","null","","","null","77","","","","","","","","","","","","","","","NaN",""
"","S1","","html-keyboard-response","510","433728","0.0-1.0-704.0","0","0","36844","","null","","","null","78","","","","","","","","","","","","","","","",""
"","ISI","","html-keyboard-response","511","433886","0.0-1.0-705.0","0","0","36844","","null","","","null","78","NaN","","","","","","","","","","","","","","",""
"","S2","","html-keyboard-response","512","434139","0.0-1.0-706.0","0","0","36844","","null","","","null","78","","NaN","","","","","","","","","","","","","",""
"","response","","html-keyboard-response","513","434296","0.0-1.0-707.0-0.0","0","0","36844","","154","","","75","78","","","2","78","training","adjacent","DE","4","5","Q.jpg","O.jpg","0","1","0","",""
"","feedback","","html-keyboard-response","514","435314","0.0-1.0-708.0-0.0","0","0","36844","","null","","","null","78","","","","","","","","","","","","","","","",""
"","time_out","","html-keyboard-response","515","437322","0.0-1.0-710.0-0.0","0","0","36844","","null","","","null","78","","","","","","","","","","","","","","","",""
"","ITI","","html-keyboard-response","516","438325","0.0-1.0-711.0","0","0","36844","","null","","","null","78","","","","","","","","","","","","","","","NaN",""
"","S1","","html-keyboard-response","517","438584","0.0-1.0-713.0","0","0","36844","","null","","","null","79","","","","","","","","","","","","","","","",""
"","ISI","","html-keyboard-response","518","438744","0.0-1.0-714.0","0","0","36844","","null","","","null","79","NaN","","","","","","","","","","","","","","",""
"","S2","","html-keyboard-response","519","439002","0.0-1.0-715.0","0","0","36844","","null","","","null","79","","NaN","","","","","","","","","","","","","",""
"","response","","html-keyboard-response","520","439309","0.0-1.0-716.0-0.0","0","0","36844","","302","","","68","79","","","2","79","training","adjacent","GF","7","6","L.jpg","P.jpg","1","0","0","",""
"","feedback","","html-keyboard-response","521","440327","0.0-1.0-717.0-0.0","0","0","36844","","null","","","null","79","","","","","","","","","","","","","","","",""
"","time_out","","html-keyboard-response","522","442342","0.0-1.0-719.0-0.0","0","0","36844","","null","","","null","79","","","","","","","","","","","","","","","",""
"","ITI","","html-keyboard-response","523","443347","0.0-1.0-720.0","0","0","36844","","null","","","null","79","","","","","","","","","","","","","","","NaN",""
"","S1","","html-keyboard-response","524","443609","0.0-1.0-722.0","0","0","36844","","null","","","null","80","","","","","","","","","","","","","","","",""
"","ISI","","html-keyboard-response","525","443774","0.0-1.0-723.0","0","0","36844","","null","","","null","80","NaN","","","","","","","","","","","","","","",""
"","S2","","html-keyboard-response","526","444032","0.0-1.0-724.0","0","0","36844","","null","","","null","80","","NaN","","","","","","","","","","","","","",""
"","response","","html-keyboard-response","527","444112","0.0-1.0-725.0-0.0","0","0","36844","","79","","","68","80","","","2","80","training","adjacent","CB","3","2","M.jpg","N.jpg","1","0","0","",""
"","feedback","","html-keyboard-response","528","445123","0.0-1.0-726.0-0.0","0","0","36844","","null","","","null","80","","","","","","","","","","","","","","","",""
"","time_out","","html-keyboard-response","529","447127","0.0-1.0-728.0-0.0","0","0","36844","","null","","","null","80","","","","","","","","","","","","","","","",""
"","ITI","","html-keyboard-response","530","448134","0.0-1.0-729.0","0","0","36844","","null","","","null","80","","","","","","","","","","","","","","","NaN",""
"","S1","","html-keyboard-response","531","448394","0.0-1.0-731.0","0","0","36844","","null","","","null","81","","","","","","","","","","","","","","","",""
"","ISI","","html-keyboard-response","532","448552","0.0-1.0-732.0","0","0","36844","","null","","","null","81","NaN","","","","","","","","","","","","","","",""
"","S2","","html-keyboard-response","533","448811","0.0-1.0-733.0","0","0","36844","","null","","","null","81","","NaN","","","","","","","","","","","","","",""
"","response","","html-keyboard-response","534","448969","0.0-1.0-734.0-0.0","0","0","36844","","155","","","75","81","","","2","81","training","adjacent","EF","5","6","O.jpg","P.jpg","0","1","0","",""
"","feedback","","html-keyboard-response","535","449981","0.0-1.0-735.0-0.0","0","0","36844","","null","","","null","81","","","","","","","","","","","","","","","",""
"","time_out","","html-keyboard-response","536","451989","0.0-1.0-737.0-0.0","0","0","36844","","null","","","null","81","","","","","","","","","","","","","","","",""
"","ITI","","html-keyboard-response","537","452992","0.0-1.0-738.0","0","0","36844","","null","","","null","81","","","","","","","","","","","","","","","NaN",""
"","S1","","html-keyboard-response","538","453251","0.0-1.0-740.0","0","0","36844","","null","","","null","82","","","","","","","","","","","","","","","",""
"","ISI","","html-keyboard-response","539","453407","0.0-1.0-741.0","0","0","36844","","null","","","null","82","NaN","","","","","","","","","","","","","","",""
"","S2","","html-keyboard-response","540","453669","0.0-1.0-742.0","0","0","36844","","null","","","null","82","","NaN","","","","","","","","","","","","","",""
"","response","","html-keyboard-response","541","454061","0.0-1.0-743.0-0.0","0","0","36844","","389","","","75","82","","","2","82","training","adjacent","EF","5","6","O.jpg","P.jpg","0","1","0","",""
"","feedback","","html-keyboard-response","542","455068","0.0-1.0-744.0-0.0","0","0","36844","","null","","","null","82","","","","","","","","","","","","","","","",""
"","time_out","","html-keyboard-response","543","457077","0.0-1.0-746.0-0.0","0","0","36844","","null","","","null","82","","","","","","","","","","","","","","","",""
"","ITI","","html-keyboard-response","544","458084","0.0-1.0-747.0","0","0","36844","","null","","","null","82","","","","","","","","","","","","","","","NaN",""
"","S1","","html-keyboard-response","545","458344","0.0-1.0-749.0","0","0","36844","","null","","","null","83","","","","","","","","","","","","","","","",""
"","ISI","","html-keyboard-response","546","458502","0.0-1.0-750.0","0","0","36844","","null","","","null","83","NaN","","","","","","","","","","","","","","",""
"","S2","","html-keyboard-response","547","458768","0.0-1.0-751.0","0","0","36844","","null","","","null","83","","NaN","","","","","","","","","","","","","",""
"","response","","html-keyboard-response","548","459245","0.0-1.0-752.0-0.0","0","0","36844","","474","","","68","83","","","2","83","training","adjacent","BC","2","3","N.jpg","M.jpg","1","1","1","",""
"","feedback","","html-keyboard-response","549","460256","0.0-1.0-753.0-0.0","0","0","36844","","null","","","null","83","","","","","","","","","","","","","","","",""
"","ITI","","html-keyboard-response","550","461265","0.0-1.0-756.0","0","0","36844","","null","","","null","83","","","","","","","","","","","","","","","NaN",""
"","S1","","html-keyboard-response","551","461526","0.0-1.0-758.0","0","0","36844","","null","","","null","84","","","","","","","","","","","","","","","",""
"","ISI","","html-keyboard-response","552","461682","0.0-1.0-759.0","0","0","36844","","null","","","null","84","NaN","","","","","","","","","","","","","","",""
"","S2","","html-keyboard-response","553","461951","0.0-1.0-760.0","0","0","36844","","null","","","null","84","","NaN","","","","","","","","","","","","","",""
"","response","","html-keyboard-response","554","462322","0.0-1.0-761.0-0.0","0","0","36844","","368","","","68","84","","","2","84","training","adjacent","ED","5","4","O.jpg","Q.jpg","1","0","0","",""
"","feedback","","html-keyboard-response","555","463328","0.0-1.0-762.0-0.0","0","0","36844","","null","","","null","84","","","","","","","","","","","","","","","",""
"","time_out","","html-keyboard-response","556","465339","0.0-1.0-764.0-0.0","0","0","36844","","null","","","null","84","","","","","","","","","","","","","","","",""
"","ITI","","html-keyboard-response","557","466347","0.0-1.0-765.0","0","0","36844","","null","","","null","84","","","","","","","","","","","","","","","NaN",""
"","S1","","html-keyboard-response","558","466606","0.0-1.0-767.0","0","0","36844","","null","","","null","85","","","","","","","","","","","","","","","",""
"","ISI","","html-keyboard-response","559","466764","0.0-1.0-768.0","0","0","36844","","null","","","null","85","NaN","","","","","","","","","","","","","","",""
"","S2","","html-keyboard-response","560","467032","0.0-1.0-769.0","0","0","36844","","null","","","null","85","","NaN","","","","","","","","","","","","","",""
"","response","","html-keyboard-response","561","467370","0.0-1.0-770.0-0.0","0","0","36844","","335","","","75","85","","","2","85","training","adjacent","GF","7","6","L.jpg","P.jpg","0","0","1","",""
"","feedback","","html-keyboard-response","562","468378","0.0-1.0-771.0-0.0","0","0","36844","","null","","","null","85","","","","","","","","","","","","","","","",""
"","ITI","","html-keyboard-response","563","469390","0.0-1.0-774.0","0","0","36844","","null","","","null","85","","","","","","","","","","","","","","","NaN",""
"","S1","","html-keyboard-response","564","469648","0.0-1.0-776.0","0","0","36844","","null","","","null","86","","","","","","","","","","","","","","","",""
"","ISI","","html-keyboard-response","565","469804","0.0-1.0-777.0","0","0","36844","","null","","","null","86","NaN","","","","","","","","","","","","","","",""
"","S2","","html-keyboard-response","566","470061","0.0-1.0-778.0","0","0","36844","","null","","","null","86","","NaN","","","","","","","","","","","","","",""
"","response","","html-keyboard-response","567","470560","0.0-1.0-779.0-0.0","0","0","36844","","497","","","68","86","","","2","86","training","adjacent","DE","4","5","Q.jpg","O.jpg","1","1","1","",""
"","feedback","","html-keyboard-response","568","471572","0.0-1.0-780.0-0.0","0","0","36844","","null","","","null","86","","","","","","","","","","","","","","","",""
"","ITI","","html-keyboard-response","569","472577","0.0-1.0-783.0","0","0","36844","","null","","","null","86","","","","","","","","","","","","","","","NaN",""
"","S1","","html-keyboard-response","570","472834","0.0-1.0-785.0","0","0","36844","","null","","","null","87","","","","","","","","","","","","","","","",""
"","ISI","","html-keyboard-response","571","473002","0.0-1.0-786.0","0","0","36844","","null","","","null","87","NaN","","","","","","","","","","","","","","",""
"","S2","","html-keyboard-response","572","473259","0.0-1.0-787.0","0","0","36844","","null","","","null","87","","NaN","","","","","","","","","","","","","",""
"","response","","html-keyboard-response","573","473602","0.0-1.0-788.0-0.0","0","0","36844","","342","","","75","87","","","2","87","training","adjacent","AB","1","2","R.jpg","N.jpg","0","1","0","",""
"","feedback","","html-keyboard-response","574","474607","0.0-1.0-789.0-0.0","0","0","36844","","null","","","null","87","","","","","","","","","","","","","","","",""
"","time_out","","html-keyboard-response","575","476618","0.0-1.0-791.0-0.0","0","0","36844","","null","","","null","87","","","","","","","","","","","","","","","",""
"","ITI","","html-keyboard-response","576","477623","0.0-1.0-792.0","0","0","36844","","null","","","null","87","","","","","","","","","","","","","","","NaN",""
"","S1","","html-keyboard-response","577","477881","0.0-1.0-794.0","0","0","36844","","null","","","null","88","","","","","","","","","","","","","","","",""
"","ISI","","html-keyboard-response","578","478039","0.0-1.0-795.0","0","0","36844","","null","","","null","88","NaN","","","","","","","","","","","","","","",""
"","S2","","html-keyboard-response","579","478306","0.0-1.0-796.0","0","0","36844","","null","","","null","88","","NaN","","","","","","","","","","","","","",""
"","response","","html-keyboard-response","580","478650","0.0-1.0-797.0-0.0","0","0","36844","","341","","","68","88","","","2","88","training","adjacent","CB","3","2","M.jpg","N.jpg","1","0","0","",""
"","feedback","","html-keyboard-response","581","479661","0.0-1.0-798.0-0.0","0","0","36844","","null","","","null","88","","","","","","","","","","","","","","","",""
"","time_out","","html-keyboard-response","582","481672","0.0-1.0-800.0-0.0","0","0","36844","","null","","","null","88","","","","","","","","","","","","","","","",""
