"success","ttype","start_time","trial_type","trial_index","time_elapsed","internal_node_id","warning","missed_checkup","PID","view_history","rt","responses","repeat_instructions","key_press","index","keypress_isi","keypress_S2","block","trial_num","phase","group_type","pair_type","S1_stim","S2_stim","S1_img","S2_img","S1_chosen","S1_higher","accuracy","keypress_iti","total_bonus_tally"
"true","full_screen","d03082023hr1430","fullscreen","0","6913","0.0-0.0","0","0","29114","","","","","","","","","","","","","","","","","","","","","",""
"","instructions","","instructions","1","26424","0.0-1.0-0.0-0.0","0","0","29114","[{""page_index"":0,""viewing_time"":4566},{""page_index"":1,""viewing_time"":8200},{""page_index"":2,""viewing_time"":5568},{""page_index"":3,""viewing_time"":1176}]","19510","","","","","","","","","","","","","","","","","","","",""
"","comprehension_check","","survey-multi-choice","2","38177","0.0-1.0-0.0-1.0","0","0","29114","","11749","{""Q0"":""True"",""Q1"":""D"",""Q2"":""Once the second image appears and while the screen 'MAKE A CHOICE' is shown"",""Q3"":""Green mark"",""Q4"":""either D or K""}","0","","","","","","","","","","","","","","","","","",""
"","start_exp","","html-keyboard-response","3","40024","0.0-1.0-1.0","0","0","29114","","1845","","","32","","","","","","","","","","","","","","","","",""
"","S1","","html-keyboard-response","4","40287","0.0-1.0-2.0","0","0","29114","","null","","","null","0","","","","","","","","","","","","","","","",""
"","ISI","","html-keyboard-response","5","40441","0.0-1.0-3.0","0","0","29114","","null","","","null","0","NaN","","","","","","","","","","","","","","",""
"","S2","","html-keyboard-response","6","40696","0.0-1.0-4.0","0","0","29114","","null","","","null","0","","NaN","","","","","","","","","","","","","",""
"","response","","html-keyboard-response","7","41274","0.0-1.0-5.0-0.0","0","0","29114","","575","","","68","0","","","1","0","training","adjacent","CD","3","4","Q.jpg","N.jpg","1","1","1","",""
"","feedback","","html-keyboard-response","8","42286","0.0-1.0-6.0-0.0","0","0","29114","","null","","","null","0","","","","","","","","","","","","","","","",""
"","ITI","","html-keyboard-response","9","43289","0.0-1.0-9.0","0","0","29114","","null","","","null","0","","","","","","","","","","","","","","","NaN",""
"","S1","","html-keyboard-response","10","43543","0.0-1.0-11.0","0","0","29114","","null","","","null","1","","","","","","","","","","","","","","","",""
"","ISI","","html-keyboard-response","11","43697","0.0-1.0-12.0","0","0","29114","","null","","","null","1","NaN","","","","","","","","","","","","","","",""
"","S2","","html-keyboard-response","12","43949","0.0-1.0-13.0","0","0","29114","","null","","","null","1","","NaN","","","","","","","","","","","","","",""
"","response","","html-keyboard-response","13","44539","0.0-1.0-14.0-0.0","0","0","29114","","587","","","75","1","","","1","1","training","adjacent","FG","6","7","R.jpg","M.jpg","0","1","0","",""
"","feedback","","html-keyboard-response","14","45542","0.0-1.0-15.0-0.0","0","0","29114","","null","","","null","1","","","","","","","","","","","","","","","",""
"","time_out","","html-keyboard-response","15","47547","0.0-1.0-17.0-0.0","0","0","29114","","null","","","null","1","","","","","","","","","","","","","","","",""
"","ITI","","html-keyboard-response","16","48550","0.0-1.0-18.0","0","0","29114","","null","","","null","1","","","","","","","","","","","","","","","NaN",""
"","S1","","html-keyboard-response","17","48803","0.0-1.0-20.0","0","0","29114","","null","","","null","2","","","","","","","","","","","","","","","",""
"","ISI","","html-keyboard-response","18","48957","0.0-1.0-21.0","0","0","29114","","null","","","null","2","NaN","","","","","","","","","","","","","","",""
"","S2","","html-keyboard-response","19","49210","0.0-1.0-22.0","0","0","29114","","null","","","null","2","","NaN","","","","","","","","","","","","","",""
"","response","","html-keyboard-response","20","49835","0.0-1.0-23.0-0.0","0","0","29114","","622","","","68","2","","","1","2","training","adjacent","FG","6","7","R.jpg","M.jpg","1","1","1","",""
"","feedback","","html-keyboard-response","21","50841","0.0-1.0-24.0-0.0","0","0","29114","","null","","","null","2","","","","","","","","","","","","","","","",""
"","ITI","","html-keyboard-response","22","51845","0.0-1.0-27.0","0","0","29114","","null","","","null","2","","","","","","","","","","","","","","","NaN",""
"","S1","","html-keyboard-response","23","52098","0.0-1.0-29.0","0","0","29114","","null","","","null","3","","","","","","","","","","","","","","","",""
"","ISI","","html-keyboard-response","24","52251","0.0-1.0-30.0","0","0","29114","","null","","","null","3","NaN","","","","","","","","","","","","","","",""
"","S2","","html-keyboard-response","25","52504","0.0-1.0-31.0","0","0","29114","","null","","","null","3","","NaN","","","","","","","","","","","","","",""
"","response","","html-keyboard-response","26","53085","0.0-1.0-32.0-0.0","0","0","29114","","578","","","75","3","","","1","3","training","adjacent","AB","1","2","P.jpg","L.jpg","0","1","0","",""
"","feedback","","html-keyboard-response","27","54088","0.0-1.0-33.0-0.0","0","0","29114","","null","","","null","3","","","","","","","","","","","","","","","",""
"","time_out","","html-keyboard-response","28","56092","0.0-1.0-35.0-0.0","0","0","29114","","null","","","null","3","","","","","","","","","","","","","","","",""
"","ITI","","html-keyboard-response","29","57095","0.0-1.0-36.0","0","0","29114","","null","","","null","3","","","","","","","","","","","","","","","NaN",""
"","S1","","html-keyboard-response","30","57349","0.0-1.0-38.0","0","0","29114","","null","","","null","4","","","","","","","","","","","","","","","",""
"","ISI","","html-keyboard-response","31","57501","0.0-1.0-39.0","0","0","29114","","null","","","null","4","NaN","","","","","","","","","","","","","","",""
"","S2","","html-keyboard-response","32","57756","0.0-1.0-40.0","0","0","29114","","null","","","null","4","","NaN","","","","","","","","","","","","","",""
"","response","","html-keyboard-response","33","58509","0.0-1.0-41.0-0.0","0","0","29114","","750","","","75","4","","","1","4","training","adjacent","ED","5","4","O.jpg","N.jpg","0","0","1","",""
"","feedback","","html-keyboard-response","34","59512","0.0-1.0-42.0-0.0","0","0","29114","","null","","","null","4","","","","","","","","","","","","","","","",""
"","ITI","","html-keyboard-response","35","60516","0.0-1.0-45.0","0","0","29114","","null","","","null","4","","","","","","","","","","","","","","","NaN",""
"","S1","","html-keyboard-response","36","60770","0.0-1.0-47.0","0","0","29114","","null","","","null","5","","","","","","","","","","","","","","","",""
"","ISI","","html-keyboard-response","37","60924","0.0-1.0-48.0","0","0","29114","","null","","","null","5","NaN","","","","","","","","","","","","","","",""
"","S2","","html-keyboard-response","38","61177","0.0-1.0-49.0","0","0","29114","","null","","","null","5","","NaN","","","","","","","","","","","","","",""
"","response","","html-keyboard-response","39","61540","0.0-1.0-50.0-0.0","0","0","29114","","361","","","68","5","","","1","5","training","adjacent","DE","4","5","N.jpg","O.jpg","1","1","1","",""
"","feedback","","html-keyboard-response","40","62544","0.0-1.0-51.0-0.0","0","0","29114","","null","","","null","5","","","","","","","","","","","","","","","",""
"","ITI","","html-keyboard-response","41","63549","0.0-1.0-54.0","0","0","29114","","null","","","null","5","","","","","","","","","","","","","","","NaN",""
"","S1","","html-keyboard-response","42","63803","0.0-1.0-56.0","0","0","29114","","null","","","null","6","","","","","","","","","","","","","","","",""
"","ISI","","html-keyboard-response","43","63956","0.0-1.0-57.0","0","0","29114","","null","","","null","6","NaN","","","","","","","","","","","","","","",""
"","S2","","html-keyboard-response","44","64210","0.0-1.0-58.0","0","0","29114","","null","","","null","6","","NaN","","","","","","","","","","","","","",""
"","response","","html-keyboard-response","45","64941","0.0-1.0-59.0-0.0","0","0","29114","","729","","","68","6","","","1","6","training","adjacent","FG","6","7","R.jpg","M.jpg","1","1","1","",""
"","feedback","","html-keyboard-response","46","65945","0.0-1.0-60.0-0.0","0","0","29114","","null","","","null","6","","","","","","","","","","","","","","","",""
"","ITI","","html-keyboard-response","47","66950","0.0-1.0-63.0","0","0","29114","","null","","","null","6","","","","","","","","","","","","","","","NaN",""
"","S1","","html-keyboard-response","48","67203","0.0-1.0-65.0","0","0","29114","","null","","","null","7","","","","","","","","","","","","","","","",""
"","ISI","","html-keyboard-response","49","67356","0.0-1.0-66.0","0","0","29114","","null","","","null","7","NaN","","","","","","","","","","","","","","",""
"","S2","","html-keyboard-response","50","67609","0.0-1.0-67.0","0","0","29114","","null","","","null","7","","NaN","","","","","","","","","","","","","",""
"","response","","html-keyboard-response","51","68053","0.0-1.0-68.0-0.0","0","0","29114","","442","","","75","7","","","1","7","training","adjacent","GF","7","6","M.jpg","R.jpg","0","0","1","",""
"","feedback","","html-keyboard-response","52","69057","0.0-1.0-69.0-0.0","0","0","29114","","null","","","null","7","","","","","","","","","","","","","","","",""
"","ITI","","html-keyboard-response","53","70059","0.0-1.0-72.0","0","0","29114","","null","","","null","7","","","","","","","","","","","","","","","NaN",""
"","S1","","html-keyboard-response","54","70312","0.0-1.0-74.0","0","0","29114","","null","","","null","8","","","","","","","","","","","","","","","",""
"","ISI","","html-keyboard-response","55","70466","0.0-1.0-75.0","0","0","29114","","null","","","null","8","NaN","","","","","","","","","","","","","","",""
"","S2","","html-keyboard-response","56","70720","0.0-1.0-76.0","0","0","29114","","null","","","null","8","","NaN","","","","","","","","","","","","","",""
"","response","","html-keyboard-response","57","71342","0.0-1.0-77.0-0.0","0","0","29114","","618","","","75","8","","","1","8","training","adjacent","EF","5","6","O.jpg","R.jpg","0","1","0","",""
"","feedback","","html-keyboard-response","58","72347","0.0-1.0-78.0-0.0","0","0","29114","","null","","","null","8","","","","","","","","","","","","","","","",""
"","time_out","","html-keyboard-response","59","74350","0.0-1.0-80.0-0.0","0","0","29114","","null","","","null","8","","","","","","","","","","","","","","","",""
"","ITI","","html-keyboard-response","60","75354","0.0-1.0-81.0","0","0","29114","","null","","","null","8","","","","","","","","","","","","","","","NaN",""
"","S1","","html-keyboard-response","61","75620","0.0-1.0-83.0","0","0","29114","","null","","","null","9","","","","","","","","","","","","","","","",""
"","ISI","","html-keyboard-response","62","75774","0.0-1.0-84.0","0","0","29114","","null","","","null","9","NaN","","","","","","","","","","","","","","",""
"","S2","","html-keyboard-response","63","76036","0.0-1.0-85.0","0","0","29114","","null","","","null","9","","NaN","","","","","","","","","","","","","",""
"","response","","html-keyboard-response","64","76630","0.0-1.0-86.0-0.0","0","0","29114","","591","","","68","9","","","1","9","training","adjacent","DE","4","5","N.jpg","O.jpg","1","1","1","",""
"","feedback","","html-keyboard-response","65","77634","0.0-1.0-87.0-0.0","0","0","29114","","null","","","null","9","","","","","","","","","","","","","","","",""
"","ITI","","html-keyboard-response","66","78646","0.0-1.0-90.0","0","0","29114","","null","","","null","9","","","","","","","","","","","","","","","NaN",""
"","S1","","html-keyboard-response","67","78900","0.0-1.0-92.0","0","0","29114","","null","","","null","10","","","","","","","","","","","","","","","",""
"","ISI","","html-keyboard-response","68","79054","0.0-1.0-93.0","0","0","29114","","null","","","null","10","NaN","","","","","","","","","","","","","","",""
"","S2","","html-keyboard-response","69","79307","0.0-1.0-94.0","0","0","29114","","null","","","null","10","","NaN","","","","","","","","","","","","","",""
"","response","","html-keyboard-response","70","80141","0.0-1.0-95.0-0.0","0","0","29114","","832","","","68","10","","","1","10","training","adjacent","AB","1","2","P.jpg","L.jpg","1","1","1","",""
"","feedback","","html-keyboard-response","71","81144","0.0-1.0-96.0-0.0","0","0","29114","","null","","","null","10","","","","","","","","","","","","","","","",""
"","ITI","","html-keyboard-response","72","82158","0.0-1.0-99.0","0","0","29114","","null","","","null","10","","","","","","","","","","","","","","","NaN",""
"","S1","","html-keyboard-response","73","82412","0.0-1.0-101.0","0","0","29114","","null","","","null","11","","","","","","","","","","","","","","","",""
"","ISI","","html-keyboard-response","74","82565","0.0-1.0-102.0","0","0","29114","","null","","","null","11","NaN","","","","","","","","","","","","","","",""
"","S2","","html-keyboard-response","75","82820","0.0-1.0-103.0","0","0","29114","","null","","","null","11","","NaN","","","","","","","","","","","","","",""
"","response","","html-keyboard-response","76","83373","0.0-1.0-104.0-0.0","0","0","29114","","550","","","75","11","","","1","11","training","adjacent","BC","2","3","L.jpg","Q.jpg","0","1","0","",""
"","feedback","","html-keyboard-response","77","84376","0.0-1.0-105.0-0.0","0","0","29114","","null","","","null","11","","","","","","","","","","","","","","","",""
"","time_out","","html-keyboard-response","78","86379","0.0-1.0-107.0-0.0","0","0","29114","","null","","","null","11","","","","","","","","","","","","","","","",""
"","ITI","","html-keyboard-response","79","87382","0.0-1.0-108.0","0","0","29114","","null","","","null","11","","","","","","","","","","","","","","","NaN",""
"","S1","","html-keyboard-response","80","87635","0.0-1.0-110.0","0","0","29114","","null","","","null","12","","","","","","","","","","","","","","","",""
"","ISI","","html-keyboard-response","81","87798","0.0-1.0-111.0","0","0","29114","","null","","","null","12","NaN","","","","","","","","","","","","","","",""
"","S2","","html-keyboard-response","82","88051","0.0-1.0-112.0","0","0","29114","","null","","","null","12","","NaN","","","","","","","","","","","","","",""
"","response","","html-keyboard-response","83","88686","0.0-1.0-113.0-0.0","0","0","29114","","632","","","75","12","","","1","12","training","adjacent","CD","3","4","Q.jpg","N.jpg","0","1","0","",""
"","feedback","","html-keyboard-response","84","89689","0.0-1.0-114.0-0.0","0","0","29114","","null","","","null","12","","","","","","","","","","","","","","","",""
"","time_out","","html-keyboard-response","85","91692","0.0-1.0-116.0-0.0","0","0","29114","","null","","","null","12","","","","","","","","","","","","","","","",""
"","ITI","","html-keyboard-response","86","92695","0.0-1.0-117.0","0","0","29114","","null","","","null","12","","","","","","","","","","","","","","","NaN",""
"","S1","","html-keyboard-response","87","92956","0.0-1.0-119.0","0","0","29114","","null","","","null","13","","","","","","","","","","","","","","","",""
"","ISI","","html-keyboard-response","88","93111","0.0-1.0-120.0","0","0","29114","","null","","","null","13","NaN","","","","","","","","","","","","","","",""
"","S2","","html-keyboard-response","89","93365","0.0-1.0-121.0","0","0","29114","","null","","","null","13","","NaN","","","","","","","","","","","","","",""
"","response","","html-keyboard-response","90","94717","0.0-1.0-122.0-0.0","0","0","29114","","1350","","","68","13","","","1","13","training","adjacent","ED","5","4","O.jpg","N.jpg","1","0","0","",""
"","feedback","","html-keyboard-response","91","95720","0.0-1.0-123.0-0.0","0","0","29114","","null","","","null","13","","","","","","","","","","","","","","","",""
"","time_out","","html-keyboard-response","92","97724","0.0-1.0-125.0-0.0","0","0","29114","","null","","","null","13","","","","","","","","","","","","","","","",""
"","ITI","","html-keyboard-response","93","98728","0.0-1.0-126.0","0","0","29114","","null","","","null","13","","","","","","","","","","","","","","","NaN",""
"","S1","","html-keyboard-response","94","98981","0.0-1.0-128.0","0","0","29114","","null","","","null","14","","","","","","","","","","","","","","","",""
"","ISI","","html-keyboard-response","95","99134","0.0-1.0-129.0","0","0","29114","","null","","","null","14","NaN","","","","","","","","","","","","","","",""
"","S2","","html-keyboard-response","96","99388","0.0-1.0-130.0","0","0","29114","","null","","","null","14","","NaN","","","","","","","","","","","","","",""
"","response","","html-keyboard-response","97","99869","0.0-1.0-131.0-0.0","0","0","29114","","478","","","75","14","","","1","14","training","adjacent","BC","2","3","L.jpg","Q.jpg","0","1","0","",""
"","feedback","","html-keyboard-response","98","100873","0.0-1.0-132.0-0.0","0","0","29114","","null","","","null","14","","","","","","","","","","","","","","","",""
"","time_out","","html-keyboard-response","99","102876","0.0-1.0-134.0-0.0","0","0","29114","","null","","","null","14","","","","","","","","","","","","","","","",""
"","ITI","","html-keyboard-response","100","103880","0.0-1.0-135.0","0","0","29114","","null","","","null","14","","","","","","","","","","","","","","","NaN",""
"","S1","","html-keyboard-response","101","104134","0.0-1.0-137.0","0","0","29114","","null","","","null","15","","","","","","","","","","","","","","","",""
"","ISI","","html-keyboard-response","102","104286","0.0-1.0-138.0","0","0","29114","","null","","","null","15","NaN","","","","","","","","","","","","","","",""
"","S2","","html-keyboard-response","103","104540","0.0-1.0-139.0","0","0","29114","","null","","","null","15","","NaN","","","","","","","","","","","","","",""
"","response","","html-keyboard-response","104","105850","0.0-1.0-140.0-0.0","0","0","29114","","1309","","","68","15","","","1","15","training","adjacent","BA","2","1","L.jpg","P.jpg","1","0","0","",""
"","feedback","","html-keyboard-response","105","106853","0.0-1.0-141.0-0.0","0","0","29114","","null","","","null","15","","","","","","","","","","","","","","","",""
"","time_out","","html-keyboard-response","106","108857","0.0-1.0-143.0-0.0","0","0","29114","","null","","","null","15","","","","","","","","","","","","","","","",""
"","ITI","","html-keyboard-response","107","109859","0.0-1.0-144.0","0","0","29114","","null","","","null","15","","","","","","","","","","","","","","","NaN",""
"","S1","","html-keyboard-response","108","110113","0.0-1.0-146.0","0","0","29114","","null","","","null","16","","","","","","","","","","","","","","","",""
"","ISI","","html-keyboard-response","109","110266","0.0-1.0-147.0","0","0","29114","","null","","","null","16","NaN","","","","","","","","","","","","","","",""
"","S2","","html-keyboard-response","110","110520","0.0-1.0-148.0","0","0","29114","","null","","","null","16","","NaN","","","","","","","","","","","","","",""
"","response","","html-keyboard-response","111","111597","0.0-1.0-149.0-0.0","0","0","29114","","1074","","","68","16","","","1","16","training","adjacent","EF","5","6","O.jpg","R.jpg","1","1","1","",""
"","feedback","","html-keyboard-response","112","112605","0.0-1.0-150.0-0.0","0","0","29114","","null","","","null","16","","","","","","","","","","","","","","","",""
"","ITI","","html-keyboard-response","113","113609","0.0-1.0-153.0","0","0","29114","","null","","","null","16","","","","","","","","","","","","","","","NaN",""
"","S1","","html-keyboard-response","114","113862","0.0-1.0-155.0","0","0","29114","","null","","","null","17","","","","","","","","","","","","","","","",""
"","ISI","","html-keyboard-response","115","114016","0.0-1.0-156.0","0","0","29114","","null","","","null","17","NaN","","","","","","","","","","","","","","",""
"","S2","","html-keyboard-response","116","114270","0.0-1.0-157.0","0","0","29114","","null","","","null","17","","NaN","","","","","","","","","","","","","",""
"","response","","html-keyboard-response","117","115429","0.0-1.0-158.0-0.0","0","0","29114","","1157","","","68","17","","","1","17","training","adjacent","DC","4","3","N.jpg","Q.jpg","1","0","0","",""
"","feedback","","html-keyboard-response","118","116433","0.0-1.0-159.0-0.0","0","0","29114","","null","","","null","17","","","","","","","","","","","","","","","",""
"","time_out","","html-keyboard-response","119","118436","0.0-1.0-161.0-0.0","0","0","29114","","null","","","null","17","","","","","","","","","","","","","","","",""
"","ITI","","html-keyboard-response","120","119439","0.0-1.0-162.0","0","0","29114","","null","","","null","17","","","","","","","","","","","","","","","NaN",""
"","S1","","html-keyboard-response","121","119692","0.0-1.0-164.0","0","0","29114","","null","","","null","18","","","","","","","","","","","","","","","",""
"","ISI","","html-keyboard-response","122","119845","0.0-1.0-165.0","0","0","29114","","null","","","null","18","NaN","","","","","","","","","","","","","","",""
"","S2","","html-keyboard-response","123","120099","0.0-1.0-166.0","0","0","29114","","null","","","null","18","","NaN","","","","","","","","","","","","","",""
"","response","","html-keyboard-response","124","121853","0.0-1.0-167.0-0.0","0","0","29114","","null","","","null","18","","","1","18","training","adjacent","CB","3","2","Q.jpg","L.jpg","NaN","0","0","",""
"","too_slow_prompt","","html-keyboard-response","125","122856","0.0-1.0-169.0-0.0","1","0","29114","","null","","","null","","","","","","","","","","","","","","","","",""
"","time_out","","html-keyboard-response","126","124860","0.0-1.0-170.0-0.0","0","0","29114","","null","","","null","18","","","","","","","","","","","","","","","",""
"","ITI","","html-keyboard-response","127","125864","0.0-1.0-171.0","0","0","29114","","null","","","null","18","","","","","","","","","","","","","","","NaN",""
"","S1","","html-keyboard-response","128","126118","0.0-1.0-173.0","0","0","29114","","null","","","null","19","","","","","","","","","","","","","","","",""
"","ISI","","html-keyboard-response","129","126271","0.0-1.0-174.0","0","0","29114","","null","","","null","19","NaN","","","","","","","","","","","","","","",""
"","S2","","html-keyboard-response","130","126525","0.0-1.0-175.0","0","0","29114","","null","","","null","19","","NaN","","","","","","","","","","","","","",""
"","response","","html-keyboard-response","131","127235","0.0-1.0-176.0-0.0","0","0","29114","","709","","","68","19","","","1","19","training","adjacent","AB","1","2","P.jpg","L.jpg","1","1","1","",""
"","feedback","","html-keyboard-response","132","128238","0.0-1.0-177.0-0.0","0","0","29114","","null","","","null","19","","","","","","","","","","","","","","","",""
"","ITI","","html-keyboard-response","133","129241","0.0-1.0-180.0","0","0","29114","","null","","","null","19","","","","","","","","","","","","","","","NaN",""
"","S1","","html-keyboard-response","134","129495","0.0-1.0-182.0","0","0","29114","","null","","","null","20","","","","","","","","","","","","","","","",""
"","ISI","","html-keyboard-response","135","129662","0.0-1.0-183.0","0","0","29114","","null","","","null","20","NaN","","","","","","","","","","","","","","",""
"","S2","","html-keyboard-response","136","129915","0.0-1.0-184.0","0","0","29114","","null","","","null","20","","NaN","","","","","","","","","","","","","",""
"","response","","html-keyboard-response","137","130630","0.0-1.0-185.0-0.0","0","0","29114","","711","","","68","20","","","1","20","training","adjacent","AB","1","2","P.jpg","L.jpg","1","1","1","",""
"","feedback","","html-keyboard-response","138","131637","0.0-1.0-186.0-0.0","0","0","29114","","null","","","null","20","","","","","","","","","","","","","","","",""
"","ITI","","html-keyboard-response","139","132641","0.0-1.0-189.0","0","0","29114","","null","","","null","20","","","","","","","","","","","","","","","NaN",""
"","S1","","html-keyboard-response","140","132894","0.0-1.0-191.0","0","0","29114","","null","","","null","21","","","","","","","","","","","","","","","",""
"","ISI","","html-keyboard-response","141","133047","0.0-1.0-192.0","0","0","29114","","null","","","null","21","NaN","","","","","","","","","","","","","","",""
"","S2","","html-keyboard-response","142","133301","0.0-1.0-193.0","0","0","29114","","null","","","null","21","","NaN","","","","","","","","","","","","","",""
"","response","","html-keyboard-response","143","133790","0.0-1.0-194.0-0.0","0","0","29114","","487","","","68","21","","","1","21","training","adjacent","DC","4","3","N.jpg","Q.jpg","1","0","0","",""
"","feedback","","html-keyboard-response","144","134794","0.0-1.0-195.0-0.0","0","0","29114","","null","","","null","21","","","","","","","","","","","","","","","",""
"","time_out","","html-keyboard-response","145","136797","0.0-1.0-197.0-0.0","0","0","29114","","null","","","null","21","","","","","","","","","","","","","","","",""
"","ITI","","html-keyboard-response","146","137802","0.0-1.0-198.0","0","0","29114","","null","","","null","21","","","","","","","","","","","","","","","NaN",""
"","S1","","html-keyboard-response","147","138054","0.0-1.0-200.0","0","0","29114","","null","","","null","22","","","","","","","","","","","","","","","",""
"","ISI","","html-keyboard-response","148","138214","0.0-1.0-201.0","0","0","29114","","null","","","null","22","NaN","","","","","","","","","","","","","","",""
"","S2","","html-keyboard-response","149","138468","0.0-1.0-202.0","0","0","29114","","null","","","null","22","","NaN","","","","","","","","","","","","","",""
"","response","","html-keyboard-response","150","139175","0.0-1.0-203.0-0.0","0","0","29114","","704","","","75","22","","","1","22","training","adjacent","CB","3","2","Q.jpg","L.jpg","0","0","1","",""
"","feedback","","html-keyboard-response","151","140179","0.0-1.0-204.0-0.0","0","0","29114","","null","","","null","22","","","","","","","","","","","","","","","",""
"","ITI","","html-keyboard-response","152","141182","0.0-1.0-207.0","0","0","29114","","null","","","null","22","","","","","","","","","","","","","","","NaN",""
"","S1","","html-keyboard-response","153","141436","0.0-1.0-209.0","0","0","29114","","null","","","null","23","","","","","","","","","","","","","","","",""
"","ISI","","html-keyboard-response","154","141589","0.0-1.0-210.0","0","0","29114","","null","","","null","23","NaN","","","","","","","","","","","","","","",""
"","S2","","html-keyboard-response","155","141840","0.0-1.0-211.0","0","0","29114","","null","","","null","23","","NaN","","","","","","","","","","","","","",""
"","response","","html-keyboard-response","156","142493","0.0-1.0-212.0-0.0","0","0","29114","","650","","","75","23","","","1","23","training","adjacent","DC","4","3","N.jpg","Q.jpg","0","0","1","",""
"","feedback","","html-keyboard-response","157","143497","0.0-1.0-213.0-0.0","0","0","29114","","null","","","null","23","","","","","","","","","","","","","","","",""
"","ITI","","html-keyboard-response","158","144501","0.0-1.0-216.0","0","0","29114","","null","","","null","23","","","","","","","","","","","","","","","NaN",""
"","S1","","html-keyboard-response","159","144754","0.0-1.0-218.0","0","0","29114","","null","","","null","24","","","","","","","","","","","","","","","",""
"","ISI","","html-keyboard-response","160","144907","0.0-1.0-219.0","0","0","29114","","null","","","null","24","NaN","","","","","","","","","","","","","","",""
"","S2","","html-keyboard-response","161","145161","0.0-1.0-220.0","0","0","29114","","null","","","null","24","","NaN","","","","","","","","","","","","","",""
"","response","","html-keyboard-response","162","145797","0.0-1.0-221.0-0.0","0","0","29114","","633","","","75","24","","","1","24","training","adjacent","FE","6","5","R.jpg","O.jpg","0","0","1","",""
"","feedback","","html-keyboard-response","163","146800","0.0-1.0-222.0-0.0","0","0","29114","","null","","","null","24","","","","","","","","","","","","","","","",""
"","ITI","","html-keyboard-response","164","147804","0.0-1.0-225.0","0","0","29114","","null","","","null","24","","","","","","","","","","","","","","","NaN",""
"","S1","","html-keyboard-response","165","148071","0.0-1.0-227.0","0","0","29114","","null","","","null","25","","","","","","","","","","","","","","","",""
"","ISI","","html-keyboard-response","166","148223","0.0-1.0-228.0","0","0","29114","","null","","","null","25","NaN","","","","","","","","","","","","","","",""
"","S2","","html-keyboard-response","167","148477","0.0-1.0-229.0","0","0","29114","","null","","","null","25","","NaN","","","","","","","","","","","","","",""
"","response","","html-keyboard-response","168","149622","0.0-1.0-230.0-0.0","0","0","29114","","1142","","","68","25","","","1","25","training","adjacent","CD","3","4","Q.jpg","N.jpg","1","1","1","",""
"","feedback","","html-keyboard-response","169","150625","0.0-1.0-231.0-0.0","0","0","29114","","null","","","null","25","","","","","","","","","","","","","","","",""
"","ITI","","html-keyboard-response","170","151628","0.0-1.0-234.0","0","0","29114","","null","","","null","25","","","","","","","","","","","","","","","NaN",""
"","S1","","html-keyboard-response","171","151881","0.0-1.0-236.0","0","0","29114","","null","","","null","26","","","","","","","","","","","","","","","",""
"","ISI","","html-keyboard-response","172","152034","0.0-1.0-237.0","0","0","29114","","null","","","null","26","NaN","","","","","","","","","","","","","","",""
"","S2","","html-keyboard-response","173","152288","0.0-1.0-238.0","0","0","29114","","null","","","null","26","","NaN","","","","","","","","","","","","","",""
"","response","","html-keyboard-response","174","152709","0.0-1.0-239.0-0.0","0","0","29114","","418","","","75","26","","","1","26","training","adjacent","GF","7","6","M.jpg","R.jpg","0","0","1","",""
"","feedback","","html-keyboard-response","175","153714","0.0-1.0-240.0-0.0","0","0","29114","","null","","","null","26","","","","","","","","","","","","","","","",""
"","ITI","","html-keyboard-response","176","154717","0.0-1.0-243.0","0","0","29114","","null","","","null","26","","","","","","","","","","","","","","","NaN",""
"","S1","","html-keyboard-response","177","154970","0.0-1.0-245.0","0","0","29114","","null","","","null","27","","","","","","","","","","","","","","","",""
"","ISI","","html-keyboard-response","178","155124","0.0-1.0-246.0","0","0","29114","","null","","","null","27","NaN","","","","","","","","","","","","","","",""
"","S2","","html-keyboard-response","179","155377","0.0-1.0-247.0","0","0","29114","","null","","","null","27","","NaN","","","","","","","","","","","","","",""
"","response","","html-keyboard-response","180","156134","0.0-1.0-248.0-0.0","0","0","29114","","754","","","75","27","","","1","27","training","adjacent","DE","4","5","N.jpg","O.jpg","0","1","0","",""
"","feedback","","html-keyboard-response","181","157138","0.0-1.0-249.0-0.0","0","0","29114","","null","","","null","27","","","","","","","","","","","","","","","",""
"","time_out","","html-keyboard-response","182","159142","0.0-1.0-251.0-0.0","0","0","29114","","null","","","null","27","","","","","","","","","","","","","","","",""
"","ITI","","html-keyboard-response","183","160145","0.0-1.0-252.0","0","0","29114","","null","","","null","27","","","","","","","","","","","","","","","NaN",""
"","S1","","html-keyboard-response","184","160399","0.0-1.0-254.0","0","0","29114","","null","","","null","28","","","","","","","","","","","","","","","",""
"","ISI","","html-keyboard-response","185","160553","0.0-1.0-255.0","0","0","29114","","null","","","null","28","NaN","","","","","","","","","","","","","","",""
"","S2","","html-keyboard-response","186","160807","0.0-1.0-256.0","0","0","29114","","null","","","null","28","","NaN","","","","","","","","","","","","","",""
"","response","","html-keyboard-response","187","161469","0.0-1.0-257.0-0.0","0","0","29114","","659","","","68","28","","","1","28","training","adjacent","EF","5","6","O.jpg","R.jpg","1","1","1","",""
"","feedback","","html-keyboard-response","188","162472","0.0-1.0-258.0-0.0","0","0","29114","","null","","","null","28","","","","","","","","","","","","","","","",""
"","ITI","","html-keyboard-response","189","163475","0.0-1.0-261.0","0","0","29114","","null","","","null","28","","","","","","","","","","","","","","","NaN",""
"","S1","","html-keyboard-response","190","163729","0.0-1.0-263.0","0","0","29114","","null","","","null","29","","","","","","","","","","","","","","","",""
"","ISI","","html-keyboard-response","191","163883","0.0-1.0-264.0","0","0","29114","","null","","","null","29","NaN","","","","","","","","","","","","","","",""
"","S2","","html-keyboard-response","192","164137","0.0-1.0-265.0","0","0","29114","","null","","","null","29","","NaN","","","","","","","","","","","","","",""
"","response","","html-keyboard-response","193","164738","0.0-1.0-266.0-0.0","0","0","29114","","600","","","75","29","","","1","29","training","adjacent","BA","2","1","L.jpg","P.jpg","0","0","1","",""
"","feedback","","html-keyboard-response","194","165742","0.0-1.0-267.0-0.0","0","0","29114","","null","","","null","29","","","","","","","","","","","","","","","",""
"","ITI","","html-keyboard-response","195","166745","0.0-1.0-270.0","0","0","29114","","null","","","null","29","","","","","","","","","","","","","","","NaN",""
"","S1","","html-keyboard-response","196","166999","0.0-1.0-272.0","0","0","29114","","null","","","null","30","","","","","","","","","","","","","","","",""
"","ISI","","html-keyboard-response","197","167154","0.0-1.0-273.0","0","0","29114","","null","","","null","30","NaN","","","","","","","","","","","","","","",""
"","S2","","html-keyboard-response","198","167407","0.0-1.0-274.0","0","0","29114","","null","","","null","30","","NaN","","","","","","","","","","","","","",""
"","response","","html-keyboard-response","199","168374","0.0-1.0-275.0-0.0","0","0","29114","","963","","","68","30","","","1","30","training","adjacent","CB","3","2","Q.jpg","L.jpg","1","0","0","",""
"","feedback","","html-keyboard-response","200","169377","0.0-1.0-276.0-0.0","0","0","29114","","null","","","null","30","","","","","","","","","","","","","","","",""
"","time_out","","html-keyboard-response","201","171381","0.0-1.0-278.0-0.0","0","0","29114","","null","","","null","30","","","","","","","","","","","","","","","",""
"","ITI","","html-keyboard-response","202","172385","0.0-1.0-279.0","0","0","29114","","null","","","null","30","","","","","","","","","","","","","","","NaN",""
"","S1","","html-keyboard-response","203","172639","0.0-1.0-281.0","0","0","29114","","null","","","null","31","","","","","","","","","","","","","","","",""
"","ISI","","html-keyboard-response","204","172792","0.0-1.0-282.0","0","0","29114","","null","","","null","31","NaN","","","","","","","","","","","","","","",""
"","S2","","html-keyboard-response","205","173046","0.0-1.0-283.0","0","0","29114","","null","","","null","31","","NaN","","","","","","","","","","","","","",""
"","response","","html-keyboard-response","206","174366","0.0-1.0-284.0-0.0","0","0","29114","","1317","","","75","31","","","1","31","training","adjacent","FE","6","5","R.jpg","O.jpg","0","0","1","",""
"","feedback","","html-keyboard-response","207","175369","0.0-1.0-285.0-0.0","0","0","29114","","null","","","null","31","","","","","","","","","","","","","","","",""
"","ITI","","html-keyboard-response","208","176373","0.0-1.0-288.0","0","0","29114","","null","","","null","31","","","","","","","","","","","","","","","NaN",""
"","S1","","html-keyboard-response","209","176627","0.0-1.0-290.0","0","0","29114","","null","","","null","32","","","","","","","","","","","","","","","",""
"","ISI","","html-keyboard-response","210","176780","0.0-1.0-291.0","0","0","29114","","null","","","null","32","NaN","","","","","","","","","","","","","","",""
"","S2","","html-keyboard-response","211","177034","0.0-1.0-292.0","0","0","29114","","null","","","null","32","","NaN","","","","","","","","","","","","","",""
"","response","","html-keyboard-response","212","177974","0.0-1.0-293.0-0.0","0","0","29114","","937","","","75","32","","","1","32","training","adjacent","GF","7","6","M.jpg","R.jpg","0","0","1","",""
"","feedback","","html-keyboard-response","213","178977","0.0-1.0-294.0-0.0","0","0","29114","","null","","","null","32","","","","","","","","","","","","","","","",""
"","ITI","","html-keyboard-response","214","179981","0.0-1.0-297.0","0","0","29114","","null","","","null","32","","","","","","","","","","","","","","","NaN",""
"","S1","","html-keyboard-response","215","180234","0.0-1.0-299.0","0","0","29114","","null","","","null","33","","","","","","","","","","","","","","","",""
"","ISI","","html-keyboard-response","216","180397","0.0-1.0-300.0","0","0","29114","","null","","","null","33","NaN","","","","","","","","","","","","","","",""
"","S2","","html-keyboard-response","217","180651","0.0-1.0-301.0","0","0","29114","","null","","","null","33","","NaN","","","","","","","","","","","","","",""
"","response","","html-keyboard-response","218","181478","0.0-1.0-302.0-0.0","0","0","29114","","825","","","68","33","","","1","33","training","adjacent","ED","5","4","O.jpg","N.jpg","1","0","0","",""
"","feedback","","html-keyboard-response","219","182481","0.0-1.0-303.0-0.0","0","0","29114","","null","","","null","33","","","","","","","","","","","","","","","",""
"","time_out","","html-keyboard-response","220","184485","0.0-1.0-305.0-0.0","0","0","29114","","null","","","null","33","","","","","","","","","","","","","","","",""
"","ITI","","html-keyboard-response","221","185489","0.0-1.0-306.0","0","0","29114","","null","","","null","33","","","","","","","","","","","","","","","NaN",""
"","S1","","html-keyboard-response","222","185743","0.0-1.0-308.0","0","0","29114","","null","","","null","34","","","","","","","","","","","","","","","",""
"","ISI","","html-keyboard-response","223","185896","0.0-1.0-309.0","0","0","29114","","null","","","null","34","NaN","","","","","","","","","","","","","","",""
"","S2","","html-keyboard-response","224","186151","0.0-1.0-310.0","0","0","29114","","null","","","null","34","","NaN","","","","","","","","","","","","","",""
"","response","","html-keyboard-response","225","187246","0.0-1.0-311.0-0.0","0","0","29114","","1093","","","68","34","","","1","34","training","adjacent","BA","2","1","L.jpg","P.jpg","1","0","0","",""
"","feedback","","html-keyboard-response","226","188249","0.0-1.0-312.0-0.0","0","0","29114","","null","","","null","34","","","","","","","","","","","","","","","",""
"","time_out","","html-keyboard-response","227","190252","0.0-1.0-314.0-0.0","0","0","29114","","null","","","null","34","","","","","","","","","","","","","","","",""
"","ITI","","html-keyboard-response","228","191255","0.0-1.0-315.0","0","0","29114","","null","","","null","34","","","","","","","","","","","","","","","NaN",""
"","S1","","html-keyboard-response","229","191508","0.0-1.0-317.0","0","0","29114","","null","","","null","35","","","","","","","","","","","","","","","",""
"","ISI","","html-keyboard-response","230","191661","0.0-1.0-318.0","0","0","29114","","null","","","null","35","NaN","","","","","","","","","","","","","","",""
"","S2","","html-keyboard-response","231","191915","0.0-1.0-319.0","0","0","29114","","null","","","null","35","","NaN","","","","","","","","","","","","","",""
"","response","","html-keyboard-response","232","193022","0.0-1.0-320.0-0.0","0","0","29114","","1105","","","68","35","","","1","35","training","adjacent","CB","3","2","Q.jpg","L.jpg","1","0","0","",""
"","feedback","","html-keyboard-response","233","194026","0.0-1.0-321.0-0.0","0","0","29114","","null","","","null","35","","","","","","","","","","","","","","","",""
"","time_out","","html-keyboard-response","234","196030","0.0-1.0-323.0-0.0","0","0","29114","","null","","","null","35","","","","","","","","","","","","","","","",""
"","ITI","","html-keyboard-response","235","197034","0.0-1.0-324.0","0","0","29114","","null","","","null","35","","","","","","","","","","","","","","","NaN",""
"","S1","","html-keyboard-response","236","197288","0.0-1.0-326.0","0","0","29114","","null","","","null","36","","","","","","","","","","","","","","","",""
"","ISI","","html-keyboard-response","237","197441","0.0-1.0-327.0","0","0","29114","","null","","","null","36","NaN","","","","","","","","","","","","","","",""
"","S2","","html-keyboard-response","238","197695","0.0-1.0-328.0","0","0","29114","","null","","","null","36","","NaN","","","","","","","","","","","","","",""
"","response","","html-keyboard-response","239","198187","0.0-1.0-329.0-0.0","0","0","29114","","491","","","75","36","","","1","36","training","adjacent","EF","5","6","O.jpg","R.jpg","0","1","0","",""
"","feedback","","html-keyboard-response","240","199190","0.0-1.0-330.0-0.0","0","0","29114","","null","","","null","36","","","","","","","","","","","","","","","",""
"","time_out","","html-keyboard-response","241","201192","0.0-1.0-332.0-0.0","0","0","29114","","null","","","null","36","","","","","","","","","","","","","","","",""
"","ITI","","html-keyboard-response","242","202195","0.0-1.0-333.0","0","0","29114","","null","","","null","36","","","","","","","","","","","","","","","NaN",""
"","S1","","html-keyboard-response","243","202448","0.0-1.0-335.0","0","0","29114","","null","","","null","37","","","","","","","","","","","","","","","",""
"","ISI","","html-keyboard-response","244","202602","0.0-1.0-336.0","0","0","29114","","null","","","null","37","NaN","","","","","","","","","","","","","","",""
"","S2","","html-keyboard-response","245","202855","0.0-1.0-337.0","0","0","29114","","null","","","null","37","","NaN","","","","","","","","","","","","","",""
"","response","","html-keyboard-response","246","203335","0.0-1.0-338.0-0.0","0","0","29114","","478","","","75","37","","","1","37","training","adjacent","BC","2","3","L.jpg","Q.jpg","0","1","0","",""
"","feedback","","html-keyboard-response","247","204340","0.0-1.0-339.0-0.0","0","0","29114","","null","","","null","37","","","","","","","","","","","","","","","",""
"","time_out","","html-keyboard-response","248","206344","0.0-1.0-341.0-0.0","0","0","29114","","null","","","null","37","","","","","","","","","","","","","","","",""
"","ITI","","html-keyboard-response","249","207347","0.0-1.0-342.0","0","0","29114","","null","","","null","37","","","","","","","","","","","","","","","NaN",""
"","S1","","html-keyboard-response","250","207602","0.0-1.0-344.0","0","0","29114","","null","","","null","38","","","","","","","","","","","","","","","",""
"","ISI","","html-keyboard-response","251","207754","0.0-1.0-345.0","0","0","29114","","null","","","null","38","NaN","","","","","","","","","","","","","","",""
"","S2","","html-keyboard-response","252","208007","0.0-1.0-346.0","0","0","29114","","null","","","null","38","","NaN","","","","","","","","","","","","","",""
"","response","","html-keyboard-response","253","208638","0.0-1.0-347.0-0.0","0","0","29114","","628","","","68","38","","","1","38","training","adjacent","FG","6","7","R.jpg","M.jpg","1","1","1","",""
"","feedback","","html-keyboard-response","254","209641","0.0-1.0-348.0-0.0","0","0","29114","","null","","","null","38","","","","","","","","","","","","","","","",""
"","ITI","","html-keyboard-response","255","210644","0.0-1.0-351.0","0","0","29114","","null","","","null","38","","","","","","","","","","","","","","","NaN",""
"","S1","","html-keyboard-response","256","210898","0.0-1.0-353.0","0","0","29114","","null","","","null","39","","","","","","","","","","","","","","","",""
"","ISI","","html-keyboard-response","257","211052","0.0-1.0-354.0","0","0","29114","","null","","","null","39","NaN","","","","","","","","","","","","","","",""
"","S2","","html-keyboard-response","258","211306","0.0-1.0-355.0","0","0","29114","","null","","","null","39","","NaN","","","","","","","","","","","","","",""
"","response","","html-keyboard-response","259","211973","0.0-1.0-356.0-0.0","0","0","29114","","664","","","75","39","","","1","39","training","adjacent","CD","3","4","Q.jpg","N.jpg","0","1","0","",""
"","feedback","","html-keyboard-response","260","212976","0.0-1.0-357.0-0.0","0","0","29114","","null","","","null","39","","","","","","","","","","","","","","","",""
"","time_out","","html-keyboard-response","261","214979","0.0-1.0-359.0-0.0","0","0","29114","","null","","","null","39","","","","","","","","","","","","","","","",""
"","ITI","","html-keyboard-response","262","215982","0.0-1.0-360.0","0","0","29114","","null","","","null","39","","","","","","","","","","","","","","","NaN",""
"","S1","","html-keyboard-response","263","216235","0.0-1.0-362.0","0","0","29114","","null","","","null","40","","","","","","","","","","","","","","","",""
"","ISI","","html-keyboard-response","264","216391","0.0-1.0-363.0","0","0","29114","","null","","","null","40","NaN","","","","","","","","","","","","","","",""
"","S2","","html-keyboard-response","265","216645","0.0-1.0-364.0","0","0","29114","","null","","","null","40","","NaN","","","","","","","","","","","","","",""
"","response","","html-keyboard-response","266","217334","0.0-1.0-365.0-0.0","0","0","29114","","686","","","68","40","","","1","40","training","adjacent","DC","4","3","N.jpg","Q.jpg","1","0","0","",""
"","feedback","","html-keyboard-response","267","218338","0.0-1.0-366.0-0.0","0","0","29114","","null","","","null","40","","","","","","","","","","","","","","","",""
"","time_out","","html-keyboard-response","268","220340","0.0-1.0-368.0-0.0","0","0","29114","","null","","","null","40","","","","","","","","","","","","","","","",""
"","ITI","","html-keyboard-response","269","221343","0.0-1.0-369.0","0","0","29114","","null","","","null","40","","","","","","","","","","","","","","","NaN",""
"","S1","","html-keyboard-response","270","221597","0.0-1.0-371.0","0","0","29114","","null","","","null","41","","","","","","","","","","","","","","","",""
"","ISI","","html-keyboard-response","271","221750","0.0-1.0-372.0","0","0","29114","","null","","","null","41","NaN","","","","","","","","","","","","","","",""
"","S2","","html-keyboard-response","272","222005","0.0-1.0-373.0","0","0","29114","","null","","","null","41","","NaN","","","","","","","","","","","","","",""
"","response","","html-keyboard-response","273","223221","0.0-1.0-374.0-0.0","0","0","29114","","1214","","","68","41","","","1","41","training","adjacent","FE","6","5","R.jpg","O.jpg","1","0","0","",""
"","feedback","","html-keyboard-response","274","224225","0.0-1.0-375.0-0.0","0","0","29114","","null","","","null","41","","","","","","","","","","","","","","","",""
"","time_out","","html-keyboard-response","275","226228","0.0-1.0-377.0-0.0","0","0","29114","","null","","","null","41","","","","","","","","","","","","","","","",""
"","ITI","","html-keyboard-response","276","227232","0.0-1.0-378.0","0","0","29114","","null","","","null","41","","","","","","","","","","","","","","","NaN",""
"","S1","","html-keyboard-response","277","227487","0.0-1.0-380.0","0","0","29114","","null","","","null","42","","","","","","","","","","","","","","","",""
"","ISI","","html-keyboard-response","278","227640","0.0-1.0-381.0","0","0","29114","","null","","","null","42","NaN","","","","","","","","","","","","","","",""
"","S2","","html-keyboard-response","279","227894","0.0-1.0-382.0","0","0","29114","","null","","","null","42","","NaN","","","","","","","","","","","","","",""
"","response","","html-keyboard-response","280","228323","0.0-1.0-383.0-0.0","0","0","29114","","428","","","75","42","","","1","42","training","adjacent","GF","7","6","M.jpg","R.jpg","0","0","1","",""
"","feedback","","html-keyboard-response","281","229326","0.0-1.0-384.0-0.0","0","0","29114","","null","","","null","42","","","","","","","","","","","","","","","",""
"","ITI","","html-keyboard-response","282","230330","0.0-1.0-387.0","0","0","29114","","null","","","null","42","","","","","","","","","","","","","","","NaN",""
"","S1","","html-keyboard-response","283","230584","0.0-1.0-389.0","0","0","29114","","null","","","null","43","","","","","","","","","","","","","","","",""
"","ISI","","html-keyboard-response","284","230752","0.0-1.0-390.0","0","0","29114","","null","","","null","43","NaN","","","","","","","","","","","","","","",""
"","S2","","html-keyboard-response","285","231006","0.0-1.0-391.0","0","0","29114","","null","","","null","43","","NaN","","","","","","","","","","","","","",""
"","response","","html-keyboard-response","286","231494","0.0-1.0-392.0-0.0","0","0","29114","","485","","","75","43","","","1","43","training","adjacent","FE","6","5","R.jpg","O.jpg","0","0","1","",""
"","feedback","","html-keyboard-response","287","232499","0.0-1.0-393.0-0.0","0","0","29114","","null","","","null","43","","","","","","","","","","","","","","","",""
"","ITI","","html-keyboard-response","288","233503","0.0-1.0-396.0","0","0","29114","","null","","","null","43","","","","","","","","","","","","","","","NaN",""
"","S1","","html-keyboard-response","289","233757","0.0-1.0-398.0","0","0","29114","","null","","","null","44","","","","","","","","","","","","","","","",""
"","ISI","","html-keyboard-response","290","233910","0.0-1.0-399.0","0","0","29114","","null","","","null","44","NaN","","","","","","","","","","","","","","",""
"","S2","","html-keyboard-response","291","234164","0.0-1.0-400.0","0","0","29114","","null","","","null","44","","NaN","","","","","","","","","","","","","",""
"","response","","html-keyboard-response","292","234566","0.0-1.0-401.0-0.0","0","0","29114","","399","","","75","44","","","1","44","training","adjacent","BC","2","3","L.jpg","Q.jpg","0","1","0","",""
"","feedback","","html-keyboard-response","293","235570","0.0-1.0-402.0-0.0","0","0","29114","","null","","","null","44","","","","","","","","","","","","","","","",""
"","time_out","","html-keyboard-response","294","237573","0.0-1.0-404.0-0.0","0","0","29114","","null","","","null","44","","","","","","","","","","","","","","","",""
"","ITI","","html-keyboard-response","295","238577","0.0-1.0-405.0","0","0","29114","","null","","","null","44","","","","","","","","","","","","","","","NaN",""
"","S1","","html-keyboard-response","296","238831","0.0-1.0-407.0","0","0","29114","","null","","","null","45","","","","","","","","","","","","","","","",""
"","ISI","","html-keyboard-response","297","238985","0.0-1.0-408.0","0","0","29114","","null","","","null","45","NaN","","","","","","","","","","","","","","",""
"","S2","","html-keyboard-response","298","239238","0.0-1.0-409.0","0","0","29114","","null","","","null","45","","NaN","","","","","","","","","","","","","",""
"","response","","html-keyboard-response","299","240079","0.0-1.0-410.0-0.0","0","0","29114","","838","","","68","45","","","1","45","training","adjacent","DE","4","5","N.jpg","O.jpg","1","1","1","",""
"","feedback","","html-keyboard-response","300","241084","0.0-1.0-411.0-0.0","0","0","29114","","null","","","null","45","","","","","","","","","","","","","","","",""
"","ITI","","html-keyboard-response","301","242089","0.0-1.0-414.0","0","0","29114","","null","","","null","45","","","","","","","","","","","","","","","NaN",""
"","S1","","html-keyboard-response","302","242342","0.0-1.0-416.0","0","0","29114","","null","","","null","46","","","","","","","","","","","","","","","",""
"","ISI","","html-keyboard-response","303","242495","0.0-1.0-417.0","0","0","29114","","null","","","null","46","NaN","","","","","","","","","","","","","","",""
"","S2","","html-keyboard-response","304","242748","0.0-1.0-418.0","0","0","29114","","null","","","null","46","","NaN","","","","","","","","","","","","","",""
"","response","","html-keyboard-response","305","243846","0.0-1.0-419.0-0.0","0","0","29114","","1096","","","75","46","","","1","46","training","adjacent","BA","2","1","L.jpg","P.jpg","0","0","1","",""
"","feedback","","html-keyboard-response","306","244849","0.0-1.0-420.0-0.0","0","0","29114","","null","","","null","46","","","","","","","","","","","","","","","",""
"","ITI","","html-keyboard-response","307","245851","0.0-1.0-423.0","0","0","29114","","null","","","null","46","","","","","","","","","","","","","","","NaN",""
"","S1","","html-keyboard-response","308","246105","0.0-1.0-425.0","0","0","29114","","null","","","null","47","","","","","","","","","","","","","","","",""
"","ISI","","html-keyboard-response","309","246258","0.0-1.0-426.0","0","0","29114","","null","","","null","47","NaN","","","","","","","","","","","","","","",""
"","S2","","html-keyboard-response","310","246510","0.0-1.0-427.0","0","0","29114","","null","","","null","47","","NaN","","","","","","","","","","","","","",""
"","response","","html-keyboard-response","311","247398","0.0-1.0-428.0-0.0","0","0","29114","","885","","","68","47","","","1","47","training","adjacent","ED","5","4","O.jpg","N.jpg","1","0","0","",""
"","feedback","","html-keyboard-response","312","248402","0.0-1.0-429.0-0.0","0","0","29114","","null","","","null","47","","","","","","","","","","","","","","","",""
"","time_out","","html-keyboard-response","313","250405","0.0-1.0-431.0-0.0","0","0","29114","","null","","","null","47","","","","","","","","","","","","","","","",""
"","ITI","","html-keyboard-response","314","251408","0.0-1.0-432.0","0","0","29114","","null","","","null","47","","","","","","","","","","","","","","","NaN",""
"","block_over","","html-keyboard-response","315","257750","0.0-1.0-433.0-0.0","0","0","29114","","6338","","","32","47","","","","","","","","","","","","","","","",""
"","S1","","html-keyboard-response","316","258003","0.0-1.0-434.0","0","0","29114","","null","","","null","48","","","","","","","","","","","","","","","",""
"","ISI","","html-keyboard-response","317","258156","0.0-1.0-435.0","0","0","29114","","null","","","null","48","NaN","","","","","","","","","","","","","","",""
"","S2","","html-keyboard-response","318","258411","0.0-1.0-436.0","0","0","29114","","null","","","null","48","","NaN","","","","","","","","","","","","","",""
"","response","","html-keyboard-response","319","259253","0.0-1.0-437.0-0.0","0","0","29114","","841","","","75","48","","","2","48","training","adjacent","CD","3","4","Q.jpg","N.jpg","0","1","0","",""
"","feedback","","html-keyboard-response","320","260257","0.0-1.0-438.0-0.0","0","0","29114","","null","","","null","48","","","","","","","","","","","","","","","",""
"","time_out","","html-keyboard-response","321","262260","0.0-1.0-440.0-0.0","0","0","29114","","null","","","null","48","","","","","","","","","","","","","","","",""
"","ITI","","html-keyboard-response","322","263263","0.0-1.0-441.0","0","0","29114","","null","","","null","48","","","","","","","","","","","","","","","NaN",""
"","S1","","html-keyboard-response","323","263527","0.0-1.0-443.0","0","0","29114","","null","","","null","49","","","","","","","","","","","","","","","",""
"","ISI","","html-keyboard-response","324","263681","0.0-1.0-444.0","0","0","29114","","null","","","null","49","NaN","","","","","","","","","","","","","","",""
"","S2","","html-keyboard-response","325","263935","0.0-1.0-445.0","0","0","29114","","null","","","null","49","","NaN","","","","","","","","","","","","","",""
"","response","","html-keyboard-response","326","264563","0.0-1.0-446.0-0.0","0","0","29114","","626","","","75","49","","","2","49","training","adjacent","BA","2","1","L.jpg","P.jpg","0","0","1","",""
"","feedback","","html-keyboard-response","327","265567","0.0-1.0-447.0-0.0","0","0","29114","","null","","","null","49","","","","","","","","","","","","","","","",""
"","ITI","","html-keyboard-response","328","266569","0.0-1.0-450.0","0","0","29114","","null","","","null","49","","","","","","","","","","","","","","","NaN",""
"","S1","","html-keyboard-response","329","266822","0.0-1.0-452.0","0","0","29114","","null","","","null","50","","","","","","","","","","","","","","","",""
"","ISI","","html-keyboard-response","330","266975","0.0-1.0-453.0","0","0","29114","","null","","","null","50","NaN","","","","","","","","","","","","","","",""
"","S2","","html-keyboard-response","331","267230","0.0-1.0-454.0","0","0","29114","","null","","","null","50","","NaN","","","","","","","","","","","","","",""
"","response","","html-keyboard-response","332","267638","0.0-1.0-455.0-0.0","0","0","29114","","405","","","68","50","","","2","50","training","adjacent","EF","5","6","O.jpg","R.jpg","1","1","1","",""
"","feedback","","html-keyboard-response","333","268642","0.0-1.0-456.0-0.0","0","0","29114","","null","","","null","50","","","","","","","","","","","","","","","",""
"","ITI","","html-keyboard-response","334","269645","0.0-1.0-459.0","0","0","29114","","null","","","null","50","","","","","","","","","","","","","","","NaN",""
"","S1","","html-keyboard-response","335","269898","0.0-1.0-461.0","0","0","29114","","null","","","null","51","","","","","","","","","","","","","","","",""
"","ISI","","html-keyboard-response","336","270051","0.0-1.0-462.0","0","0","29114","","null","","","null","51","NaN","","","","","","","","","","","","","","",""
"","S2","","html-keyboard-response","337","270304","0.0-1.0-463.0","0","0","29114","","null","","","null","51","","NaN","","","","","","","","","","","","","",""
"","response","","html-keyboard-response","338","270510","0.0-1.0-464.0-0.0","0","0","29114","","203","","","75","51","","","2","51","training","adjacent","GF","7","6","M.jpg","R.jpg","0","0","1","",""
"","feedback","","html-keyboard-response","339","271513","0.0-1.0-465.0-0.0","0","0","29114","","null","","","null","51","","","","","","","","","","","","","","","",""
"","ITI","","html-keyboard-response","340","272517","0.0-1.0-468.0","0","0","29114","","null","","","null","51","","","","","","","","","","","","","","","NaN",""
"","S1","","html-keyboard-response","341","272770","0.0-1.0-470.0","0","0","29114","","null","","","null","52","","","","","","","","","","","","","","","",""
"","ISI","","html-keyboard-response","342","272923","0.0-1.0-471.0","0","0","29114","","null","","","null","52","NaN","","","","","","","","","","","","","","",""
"","S2","","html-keyboard-response","343","273176","0.0-1.0-472.0","0","0","29114","","null","","","null","52","","NaN","","","","","","","","","","","","","",""
"","response","","html-keyboard-response","344","273662","0.0-1.0-473.0-0.0","0","0","29114","","483","","","68","52","","","2","52","training","adjacent","FG","6","7","R.jpg","M.jpg","1","1","1","",""
"","feedback","","html-keyboard-response","345","274665","0.0-1.0-474.0-0.0","0","0","29114","","null","","","null","52","","","","","","","","","","","","","","","",""
"","ITI","","html-keyboard-response","346","275667","0.0-1.0-477.0","0","0","29114","","null","","","null","52","","","","","","","","","","","","","","","NaN",""
"","S1","","html-keyboard-response","347","275921","0.0-1.0-479.0","0","0","29114","","null","","","null","53","","","","","","","","","","","","","","","",""
"","ISI","","html-keyboard-response","348","276074","0.0-1.0-480.0","0","0","29114","","null","","","null","53","NaN","","","","","","","","","","","","","","",""
"","S2","","html-keyboard-response","349","276328","0.0-1.0-481.0","0","0","29114","","null","","","null","53","","NaN","","","","","","","","","","","","","",""
"","response","","html-keyboard-response","350","276798","0.0-1.0-482.0-0.0","0","0","29114","","467","","","68","53","","","2","53","training","adjacent","AB","1","2","P.jpg","L.jpg","1","1","1","",""
"","feedback","","html-keyboard-response","351","277802","0.0-1.0-483.0-0.0","0","0","29114","","null","","","null","53","","","","","","","","","","","","","","","",""
"","ITI","","html-keyboard-response","352","278805","0.0-1.0-486.0","0","0","29114","","null","","","null","53","","","","","","","","","","","","","","","NaN",""
"","S1","","html-keyboard-response","353","279059","0.0-1.0-488.0","0","0","29114","","null","","","null","54","","","","","","","","","","","","","","","",""
"","ISI","","html-keyboard-response","354","279213","0.0-1.0-489.0","0","0","29114","","null","","","null","54","NaN","","","","","","","","","","","","","","",""
"","S2","","html-keyboard-response","355","279467","0.0-1.0-490.0","0","0","29114","","null","","","null","54","","NaN","","","","","","","","","","","","","",""
"","response","","html-keyboard-response","356","279923","0.0-1.0-491.0-0.0","0","0","29114","","454","","","68","54","","","2","54","training","adjacent","BC","2","3","L.jpg","Q.jpg","1","1","1","",""
"","feedback","","html-keyboard-response","357","280926","0.0-1.0-492.0-0.0","0","0","29114","","null","","","null","54","","","","","","","","","","","","","","","",""
"","ITI","","html-keyboard-response","358","281930","0.0-1.0-495.0","0","0","29114","","null","","","null","54","","","","","","","","","","","","","","","NaN",""
"","S1","","html-keyboard-response","359","282183","0.0-1.0-497.0","0","0","29114","","null","","","null","55","","","","","","","","","","","","","","","",""
"","ISI","","html-keyboard-response","360","282336","0.0-1.0-498.0","0","0","29114","","null","","","null","55","NaN","","","","","","","","","","","","","","",""
"","S2","","html-keyboard-response","361","282590","0.0-1.0-499.0","0","0","29114","","null","","","null","55","","NaN","","","","","","","","","","","","","",""
"","response","","html-keyboard-response","362","283350","0.0-1.0-500.0-0.0","0","0","29114","","757","","","68","55","","","2","55","training","adjacent","CB","3","2","Q.jpg","L.jpg","1","0","0","",""
"","feedback","","html-keyboard-response","363","284356","0.0-1.0-501.0-0.0","0","0","29114","","null","","","null","55","","","","","","","","","","","","","","","",""
"","time_out","","html-keyboard-response","364","286361","0.0-1.0-503.0-0.0","0","0","29114","","null","","","null","55","","","","","","","","","","","","","","","",""
"","ITI","","html-keyboard-response","365","287363","0.0-1.0-504.0","0","0","29114","","null","","","null","55","","","","","","","","","","","","","","","NaN",""
"","S1","","html-keyboard-response","366","287617","0.0-1.0-506.0","0","0","29114","","null","","","null","56","","","","","","","","","","","","","","","",""
"","ISI","","html-keyboard-response","367","287770","0.0-1.0-507.0","0","0","29114","","null","","","null","56","NaN","","","","","","","","","","","","","","",""
"","S2","","html-keyboard-response","368","288022","0.0-1.0-508.0","0","0","29114","","null","","","null","56","","NaN","","","","","","","","","","","","","",""
"","response","","html-keyboard-response","369","288707","0.0-1.0-509.0-0.0","0","0","29114","","683","","","68","56","","","2","56","training","adjacent","ED","5","4","O.jpg","N.jpg","1","0","0","",""
"","feedback","","html-keyboard-response","370","289711","0.0-1.0-510.0-0.0","0","0","29114","","null","","","null","56","","","","","","","","","","","","","","","",""
"","time_out","","html-keyboard-response","371","291715","0.0-1.0-512.0-0.0","0","0","29114","","null","","","null","56","","","","","","","","","","","","","","","",""
"","ITI","","html-keyboard-response","372","292718","0.0-1.0-513.0","0","0","29114","","null","","","null","56","","","","","","","","","","","","","","","NaN",""
"","S1","","html-keyboard-response","373","292972","0.0-1.0-515.0","0","0","29114","","null","","","null","57","","","","","","","","","","","","","","","",""
"","ISI","","html-keyboard-response","374","293125","0.0-1.0-516.0","0","0","29114","","null","","","null","57","NaN","","","","","","","","","","","","","","",""
"","S2","","html-keyboard-response","375","293378","0.0-1.0-517.0","0","0","29114","","null","","","null","57","","NaN","","","","","","","","","","","","","",""
"","response","","html-keyboard-response","376","293999","0.0-1.0-518.0-0.0","0","0","29114","","619","","","75","57","","","2","57","training","adjacent","ED","5","4","O.jpg","N.jpg","0","0","1","",""
"","feedback","","html-keyboard-response","377","295003","0.0-1.0-519.0-0.0","0","0","29114","","null","","","null","57","","","","","","","","","","","","","","","",""
"","ITI","","html-keyboard-response","378","296007","0.0-1.0-522.0","0","0","29114","","null","","","null","57","","","","","","","","","","","","","","","NaN",""
"","S1","","html-keyboard-response","379","296261","0.0-1.0-524.0","0","0","29114","","null","","","null","58","","","","","","","","","","","","","","","",""
"","ISI","","html-keyboard-response","380","296414","0.0-1.0-525.0","0","0","29114","","null","","","null","58","NaN","","","","","","","","","","","","","","",""
"","S2","","html-keyboard-response","381","296667","0.0-1.0-526.0","0","0","29114","","null","","","null","58","","NaN","","","","","","","","","","","","","",""
"","response","","html-keyboard-response","382","297366","0.0-1.0-527.0-0.0","0","0","29114","","697","","","68","58","","","2","58","training","adjacent","BA","2","1","L.jpg","P.jpg","1","0","0","",""
"","feedback","","html-keyboard-response","383","298371","0.0-1.0-528.0-0.0","0","0","29114","","null","","","null","58","","","","","","","","","","","","","","","",""
"","time_out","","html-keyboard-response","384","300374","0.0-1.0-530.0-0.0","0","0","29114","","null","","","null","58","","","","","","","","","","","","","","","",""
"","ITI","","html-keyboard-response","385","301382","0.0-1.0-531.0","0","0","29114","","null","","","null","58","","","","","","","","","","","","","","","NaN",""
"","S1","","html-keyboard-response","386","301635","0.0-1.0-533.0","0","0","29114","","null","","","null","59","","","","","","","","","","","","","","","",""
"","ISI","","html-keyboard-response","387","301798","0.0-1.0-534.0","0","0","29114","","null","","","null","59","NaN","","","","","","","","","","","","","","",""
"","S2","","html-keyboard-response","388","302053","0.0-1.0-535.0","0","0","29114","","null","","","null","59","","NaN","","","","","","","","","","","","","",""
"","response","","html-keyboard-response","389","302550","0.0-1.0-536.0-0.0","0","0","29114","","495","","","68","59","","","2","59","training","adjacent","FG","6","7","R.jpg","M.jpg","1","1","1","",""
"","feedback","","html-keyboard-response","390","303555","0.0-1.0-537.0-0.0","0","0","29114","","null","","","null","59","","","","","","","","","","","","","","","",""
"","ITI","","html-keyboard-response","391","304559","0.0-1.0-540.0","0","0","29114","","null","","","null","59","","","","","","","","","","","","","","","NaN",""
"","S1","","html-keyboard-response","392","304811","0.0-1.0-542.0","0","0","29114","","null","","","null","60","","","","","","","","","","","","","","","",""
"","ISI","","html-keyboard-response","393","304965","0.0-1.0-543.0","0","0","29114","","null","","","null","60","NaN","","","","","","","","","","","","","","",""
"","S2","","html-keyboard-response","394","305218","0.0-1.0-544.0","0","0","29114","","null","","","null","60","","NaN","","","","","","","","","","","","","",""
"","response","","html-keyboard-response","395","305860","0.0-1.0-545.0-0.0","0","0","29114","","639","","","75","60","","","2","60","training","adjacent","DC","4","3","N.jpg","Q.jpg","0","0","1","",""
"","feedback","","html-keyboard-response","396","306862","0.0-1.0-546.0-0.0","0","0","29114","","null","","","null","60","","","","","","","","","","","","","","","",""
"","ITI","","html-keyboard-response","397","307865","0.0-1.0-549.0","0","0","29114","","null","","","null","60","","","","","","","","","","","","","","","NaN",""
"","S1","","html-keyboard-response","398","308118","0.0-1.0-551.0","0","0","29114","","null","","","null","61","","","","","","","","","","","","","","","",""
"","ISI","","html-keyboard-response","399","308271","0.0-1.0-552.0","0","0","29114","","null","","","null","61","NaN","","","","","","","","","","","","","","",""
"","S2","","html-keyboard-response","400","308524","0.0-1.0-553.0","0","0","29114","","null","","","null","61","","NaN","","","","","","","","","","","","","",""
"","response","","html-keyboard-response","401","308958","0.0-1.0-554.0-0.0","0","0","29114","","431","","","75","61","","","2","61","training","adjacent","DC","4","3","N.jpg","Q.jpg","0","0","1","",""
"","feedback","","html-keyboard-response","402","309961","0.0-1.0-555.0-0.0","0","0","29114","","null","","","null","61","","","","","","","","","","","","","","","",""
"","ITI","","html-keyboard-response","403","310963","0.0-1.0-558.0","0","0","29114","","null","","","null","61","","","","","","","","","","","","","","","NaN",""
"","S1","","html-keyboard-response","404","311216","0.0-1.0-560.0","0","0","29114","","null","","","null","62","","","","","","","","","","","","","","","",""
"","ISI","","html-keyboard-response","405","311374","0.0-1.0-561.0","0","0","29114","","null","","","null","62","NaN","","","","","","","","","","","","","","",""
"","S2","","html-keyboard-response","406","311637","0.0-1.0-562.0","0","0","29114","","null","","","null","62","","NaN","","","","","","","","","","","","","",""
"","response","","html-keyboard-response","407","312515","0.0-1.0-563.0-0.0","0","0","29114","","877","","","68","62","","","2","62","training","adjacent","DE","4","5","N.jpg","O.jpg","1","1","1","",""
"","feedback","","html-keyboard-response","408","313520","0.0-1.0-564.0-0.0","0","0","29114","","null","","","null","62","","","","","","","","","","","","","","","",""
"","ITI","","html-keyboard-response","409","314524","0.0-1.0-567.0","0","0","29114","","null","","","null","62","","","","","","","","","","","","","","","NaN",""
"","S1","","html-keyboard-response","410","314778","0.0-1.0-569.0","0","0","29114","","null","","","null","63","","","","","","","","","","","","","","","",""
"","ISI","","html-keyboard-response","411","314932","0.0-1.0-570.0","0","0","29114","","null","","","null","63","NaN","","","","","","","","","","","","","","",""
"","S2","","html-keyboard-response","412","315187","0.0-1.0-571.0","0","0","29114","","null","","","null","63","","NaN","","","","","","","","","","","","","",""
"","response","","html-keyboard-response","413","315854","0.0-1.0-572.0-0.0","0","0","29114","","665","","","75","63","","","2","63","training","adjacent","FE","6","5","R.jpg","O.jpg","0","0","1","",""
"","feedback","","html-keyboard-response","414","316869","0.0-1.0-573.0-0.0","0","0","29114","","null","","","null","63","","","","","","","","","","","","","","","",""
"","ITI","","html-keyboard-response","415","317872","0.0-1.0-576.0","0","0","29114","","null","","","null","63","","","","","","","","","","","","","","","NaN",""
"","S1","","html-keyboard-response","416","318126","0.0-1.0-578.0","0","0","29114","","null","","","null","64","","","","","","","","","","","","","","","",""
"","ISI","","html-keyboard-response","417","318281","0.0-1.0-579.0","0","0","29114","","null","","","null","64","NaN","","","","","","","","","","","","","","",""
"","S2","","html-keyboard-response","418","318535","0.0-1.0-580.0","0","0","29114","","null","","","null","64","","NaN","","","","","","","","","","","","","",""
"","response","","html-keyboard-response","419","319278","0.0-1.0-581.0-0.0","0","0","29114","","741","","","75","64","","","2","64","training","adjacent","DE","4","5","N.jpg","O.jpg","0","1","0","",""
"","feedback","","html-keyboard-response","420","320292","0.0-1.0-582.0-0.0","0","0","29114","","null","","","null","64","","","","","","","","","","","","","","","",""
"","time_out","","html-keyboard-response","421","322296","0.0-1.0-584.0-0.0","0","0","29114","","null","","","null","64","","","","","","","","","","","","","","","",""
"","ITI","","html-keyboard-response","422","323299","0.0-1.0-585.0","0","0","29114","","null","","","null","64","","","","","","","","","","","","","","","NaN",""
"","S1","","html-keyboard-response","423","323551","0.0-1.0-587.0","0","0","29114","","null","","","null","65","","","","","","","","","","","","","","","",""
"","ISI","","html-keyboard-response","424","323704","0.0-1.0-588.0","0","0","29114","","null","","","null","65","NaN","","","","","","","","","","","","","","",""
"","S2","","html-keyboard-response","425","323963","0.0-1.0-589.0","0","0","29114","","null","","","null","65","","NaN","","","","","","","","","","","","","",""
"","response","","html-keyboard-response","426","324843","0.0-1.0-590.0-0.0","0","0","29114","","879","","","68","65","","","2","65","training","adjacent","AB","1","2","P.jpg","L.jpg","1","1","1","",""
"","feedback","","html-keyboard-response","427","325848","0.0-1.0-591.0-0.0","0","0","29114","","null","","","null","65","","","","","","","","","","","","","","","",""
"","ITI","","html-keyboard-response","428","326852","0.0-1.0-594.0","0","0","29114","","null","","","null","65","","","","","","","","","","","","","","","NaN",""
"","S1","","html-keyboard-response","429","327106","0.0-1.0-596.0","0","0","29114","","null","","","null","66","","","","","","","","","","","","","","","",""
"","ISI","","html-keyboard-response","430","327259","0.0-1.0-597.0","0","0","29114","","null","","","null","66","NaN","","","","","","","","","","","","","","",""
"","S2","","html-keyboard-response","431","327513","0.0-1.0-598.0","0","0","29114","","null","","","null","66","","NaN","","","","","","","","","","","","","",""
"","response","","html-keyboard-response","432","328566","0.0-1.0-599.0-0.0","0","0","29114","","1050","","","68","66","","","2","66","training","adjacent","FE","6","5","R.jpg","O.jpg","1","0","0","",""
"","feedback","","html-keyboard-response","433","329571","0.0-1.0-600.0-0.0","0","0","29114","","null","","","null","66","","","","","","","","","","","","","","","",""
"","time_out","","html-keyboard-response","434","331575","0.0-1.0-602.0-0.0","0","0","29114","","null","","","null","66","","","","","","","","","","","","","","","",""
"","ITI","","html-keyboard-response","435","332577","0.0-1.0-603.0","0","0","29114","","null","","","null","66","","","","","","","","","","","","","","","NaN",""
"","S1","","html-keyboard-response","436","332831","0.0-1.0-605.0","0","0","29114","","null","","","null","67","","","","","","","","","","","","","","","",""
"","ISI","","html-keyboard-response","437","332984","0.0-1.0-606.0","0","0","29114","","null","","","null","67","NaN","","","","","","","","","","","","","","",""
"","S2","","html-keyboard-response","438","333237","0.0-1.0-607.0","0","0","29114","","null","","","null","67","","NaN","","","","","","","","","","","","","",""
"","response","","html-keyboard-response","439","333719","0.0-1.0-608.0-0.0","0","0","29114","","479","","","75","67","","","2","67","training","adjacent","EF","5","6","O.jpg","R.jpg","0","1","0","",""
"","feedback","","html-keyboard-response","440","334723","0.0-1.0-609.0-0.0","0","0","29114","","null","","","null","67","","","","","","","","","","","","","","","",""
"","time_out","","html-keyboard-response","441","336726","0.0-1.0-611.0-0.0","0","0","29114","","null","","","null","67","","","","","","","","","","","","","","","",""
"","ITI","","html-keyboard-response","442","337729","0.0-1.0-612.0","0","0","29114","","null","","","null","67","","","","","","","","","","","","","","","NaN",""
"","S1","","html-keyboard-response","443","337982","0.0-1.0-614.0","0","0","29114","","null","","","null","68","","","","","","","","","","","","","","","",""
"","ISI","","html-keyboard-response","444","338135","0.0-1.0-615.0","0","0","29114","","null","","","null","68","NaN","","","","","","","","","","","","","","",""
"","S2","","html-keyboard-response","445","338390","0.0-1.0-616.0","0","0","29114","","null","","","null","68","","NaN","","","","","","","","","","","","","",""
"","response","","html-keyboard-response","446","339582","0.0-1.0-617.0-0.0","0","0","29114","","1190","","","68","68","","","2","68","training","adjacent","BA","2","1","L.jpg","P.jpg","1","0","0","",""
"","feedback","","html-keyboard-response","447","340586","0.0-1.0-618.0-0.0","0","0","29114","","null","","","null","68","","","","","","","","","","","","","","","",""
"","time_out","","html-keyboard-response","448","342590","0.0-1.0-620.0-0.0","0","0","29114","","null","","","null","68","","","","","","","","","","","","","","","",""
"","ITI","","html-keyboard-response","449","343594","0.0-1.0-621.0","0","0","29114","","null","","","null","68","","","","","","","","","","","","","","","NaN",""
"","S1","","html-keyboard-response","450","343855","0.0-1.0-623.0","0","0","29114","","null","","","null","69","","","","","","","","","","","","","","","",""
"","ISI","","html-keyboard-response","451","344010","0.0-1.0-624.0","0","0","29114","","null","","","null","69","NaN","","","","","","","","","","","","","","",""
"","S2","","html-keyboard-response","452","344264","0.0-1.0-625.0","0","0","29114","","null","","","null","69","","NaN","","","","","","","","","","","","","",""
"","response","","html-keyboard-response","453","345414","0.0-1.0-626.0-0.0","0","0","29114","","1147","","","68","69","","","2","69","training","adjacent","CB","3","2","Q.jpg","L.jpg","1","0","0","",""
"","feedback","","html-keyboard-response","454","346418","0.0-1.0-627.0-0.0","0","0","29114","","null","","","null","69","","","","","","","","","","","","","","","",""
"","time_out","","html-keyboard-response","455","348422","0.0-1.0-629.0-0.0","0","0","29114","","null","","","null","69","","","","","","","","","","","","","","","",""
"","ITI","","html-keyboard-response","456","349425","0.0-1.0-630.0","0","0","29114","","null","","","null","69","","","","","","","","","","","","","","","NaN",""
"","S1","","html-keyboard-response","457","349678","0.0-1.0-632.0","0","0","29114","","null","","","null","70","","","","","","","","","","","","","","","",""
"","ISI","","html-keyboard-response","458","349831","0.0-1.0-633.0","0","0","29114","","null","","","null","70","NaN","","","","","","","","","","","","","","",""
"","S2","","html-keyboard-response","459","350084","0.0-1.0-634.0","0","0","29114","","null","","","null","70","","NaN","","","","","","","","","","","","","",""
"","response","","html-keyboard-response","460","351022","0.0-1.0-635.0-0.0","0","0","29114","","935","","","68","70","","","2","70","training","adjacent","CD","3","4","Q.jpg","N.jpg","1","1","1","",""
"","feedback","","html-keyboard-response","461","352027","0.0-1.0-636.0-0.0","0","0","29114","","null","","","null","70","","","","","","","","","","","","","","","",""
"","ITI","","html-keyboard-response","462","353032","0.0-1.0-639.0","0","0","29114","","null","","","null","70","","","","","","","","","","","","","","","NaN",""
"","S1","","html-keyboard-response","463","353286","0.0-1.0-641.0","0","0","29114","","null","","","null","71","","","","","","","","","","","","","","","",""
"","ISI","","html-keyboard-response","464","353440","0.0-1.0-642.0","0","0","29114","","null","","","null","71","NaN","","","","","","","","","","","","","","",""
"","S2","","html-keyboard-response","465","353693","0.0-1.0-643.0","0","0","29114","","null","","","null","71","","NaN","","","","","","","","","","","","","",""
"","response","","html-keyboard-response","466","354318","0.0-1.0-644.0-0.0","0","0","29114","","622","","","75","71","","","2","71","training","adjacent","GF","7","6","M.jpg","R.jpg","0","0","1","",""
"","feedback","","html-keyboard-response","467","355322","0.0-1.0-645.0-0.0","0","0","29114","","null","","","null","71","","","","","","","","","","","","","","","",""
"","ITI","","html-keyboard-response","468","356327","0.0-1.0-648.0","0","0","29114","","null","","","null","71","","","","","","","","","","","","","","","NaN",""
"","S1","","html-keyboard-response","469","356581","0.0-1.0-650.0","0","0","29114","","null","","","null","72","","","","","","","","","","","","","","","",""
"","ISI","","html-keyboard-response","470","356733","0.0-1.0-651.0","0","0","29114","","null","","","null","72","NaN","","","","","","","","","","","","","","",""
"","S2","","html-keyboard-response","471","356986","0.0-1.0-652.0","0","0","29114","","null","","","null","72","","NaN","","","","","","","","","","","","","",""
"","response","","html-keyboard-response","472","357568","0.0-1.0-653.0-0.0","0","0","29114","","579","","","75","72","","","2","72","training","adjacent","DC","4","3","N.jpg","Q.jpg","0","0","1","",""
"","feedback","","html-keyboard-response","473","358571","0.0-1.0-654.0-0.0","0","0","29114","","null","","","null","72","","","","","","","","","","","","","","","",""
"","ITI","","html-keyboard-response","474","359576","0.0-1.0-657.0","0","0","29114","","null","","","null","72","","","","","","","","","","","","","","","NaN",""
"","S1","","html-keyboard-response","475","359828","0.0-1.0-659.0","0","0","29114","","null","","","null","73","","","","","","","","","","","","","","","",""
"","ISI","","html-keyboard-response","476","359980","0.0-1.0-660.0","0","0","29114","","null","","","null","73","NaN","","","","","","","","","","","","","","",""
"","S2","","html-keyboard-response","477","360233","0.0-1.0-661.0","0","0","29114","","null","","","null","73","","NaN","","","","","","","","","","","","","",""
"","response","","html-keyboard-response","478","360926","0.0-1.0-662.0-0.0","0","0","29114","","690","","","75","73","","","2","73","training","adjacent","BC","2","3","L.jpg","Q.jpg","0","1","0","",""
"","feedback","","html-keyboard-response","479","361931","0.0-1.0-663.0-0.0","0","0","29114","","null","","","null","73","","","","","","","","","","","","","","","",""
"","time_out","","html-keyboard-response","480","363935","0.0-1.0-665.0-0.0","0","0","29114","","null","","","null","73","","","","","","","","","","","","","","","",""
"","ITI","","html-keyboard-response","481","364939","0.0-1.0-666.0","0","0","29114","","null","","","null","73","","","","","","","","","","","","","","","NaN",""
"","S1","","html-keyboard-response","482","365192","0.0-1.0-668.0","0","0","29114","","null","","","null","74","","","","","","","","","","","","","","","",""
"","ISI","","html-keyboard-response","483","365345","0.0-1.0-669.0","0","0","29114","","null","","","null","74","NaN","","","","","","","","","","","","","","",""
"","S2","","html-keyboard-response","484","365600","0.0-1.0-670.0","0","0","29114","","null","","","null","74","","NaN","","","","","","","","","","","","","",""
"","response","","html-keyboard-response","485","366526","0.0-1.0-671.0-0.0","0","0","29114","","922","","","68","74","","","2","74","training","adjacent","BA","2","1","L.jpg","P.jpg","1","0","0","",""
"","feedback","","html-keyboard-response","486","367531","0.0-1.0-672.0-0.0","0","0","29114","","null","","","null","74","","","","","","","","","","","","","","","",""
"","time_out","","html-keyboard-response","487","369535","0.0-1.0-674.0-0.0","0","0","29114","","null","","","null","74","","","","","","","","","","","","","","","",""
"","ITI","","html-keyboard-response","488","370538","0.0-1.0-675.0","0","0","29114","","null","","","null","74","","","","","","","","","","","","","","","NaN",""
"","S1","","html-keyboard-response","489","370792","0.0-1.0-677.0","0","0","29114","","null","","","null","75","","","","","","","","","","","","","","","",""
"","ISI","","html-keyboard-response","490","370946","0.0-1.0-678.0","0","0","29114","","null","","","null","75","NaN","","","","","","","","","","","","","","",""
"","S2","","html-keyboard-response","491","371200","0.0-1.0-679.0","0","0","29114","","null","","","null","75","","NaN","","","","","","","","","","","","","",""
"","response","","html-keyboard-response","492","371694","0.0-1.0-680.0-0.0","0","0","29114","","491","","","75","75","","","2","75","training","adjacent","DC","4","3","N.jpg","Q.jpg","0","0","1","",""
"","feedback","","html-keyboard-response","493","372698","0.0-1.0-681.0-0.0","0","0","29114","","null","","","null","75","","","","","","","","","","","","","","","",""
"","ITI","","html-keyboard-response","494","373702","0.0-1.0-684.0","0","0","29114","","null","","","null","75","","","","","","","","","","","","","","","NaN",""
"","S1","","html-keyboard-response","495","373955","0.0-1.0-686.0","0","0","29114","","null","","","null","76","","","","","","","","","","","","","","","",""
"","ISI","","html-keyboard-response","496","374113","0.0-1.0-687.0","0","0","29114","","null","","","null","76","NaN","","","","","","","","","","","","","","",""
"","S2","","html-keyboard-response","497","374377","0.0-1.0-688.0","0","0","29114","","null","","","null","76","","NaN","","","","","","","","","","","","","",""
"","response","","html-keyboard-response","498","374910","0.0-1.0-689.0-0.0","0","0","29114","","530","","","68","76","","","2","76","training","adjacent","ED","5","4","O.jpg","N.jpg","1","0","0","",""
"","feedback","","html-keyboard-response","499","375915","0.0-1.0-690.0-0.0","0","0","29114","","null","","","null","76","","","","","","","","","","","","","","","",""
"","time_out","","html-keyboard-response","500","377918","0.0-1.0-692.0-0.0","0","0","29114","","null","","","null","76","","","","","","","","","","","","","","","",""
"","ITI","","html-keyboard-response","501","378921","0.0-1.0-693.0","0","0","29114","","null","","","null","76","","","","","","","","","","","","","","","NaN",""
"","S1","","html-keyboard-response","502","379175","0.0-1.0-695.0","0","0","29114","","null","","","null","77","","","","","","","","","","","","","","","",""
"","ISI","","html-keyboard-response","503","379329","0.0-1.0-696.0","0","0","29114","","null","","","null","77","NaN","","","","","","","","","","","","","","",""
"","S2","","html-keyboard-response","504","379583","0.0-1.0-697.0","0","0","29114","","null","","","null","77","","NaN","","","","","","","","","","","","","",""
"","response","","html-keyboard-response","505","380181","0.0-1.0-698.0-0.0","0","0","29114","","595","","","68","77","","","2","77","training","adjacent","FG","6","7","R.jpg","M.jpg","1","1","1","",""
"","feedback","","html-keyboard-response","506","381185","0.0-1.0-699.0-0.0","0","0","29114","","null","","","null","77","","","","","","","","","","","","","","","",""
"","ITI","","html-keyboard-response","507","382189","0.0-1.0-702.0","0","0","29114","","null","","","null","77","","","","","","","","","","","","","","","NaN",""
"","S1","","html-keyboard-response","508","382441","0.0-1.0-704.0","0","0","29114","","null","","","null","78","","","","","","","","","","","","","","","",""
"","ISI","","html-keyboard-response","509","382595","0.0-1.0-705.0","0","0","29114","","null","","","null","78","NaN","","","","","","","","","","","","","","",""
"","S2","","html-keyboard-response","510","382849","0.0-1.0-706.0","0","0","29114","","null","","","null","78","","NaN","","","","","","","","","","","","","",""
"","response","","html-keyboard-response","511","383710","0.0-1.0-707.0-0.0","0","0","29114","","858","","","75","78","","","2","78","training","adjacent","BC","2","3","L.jpg","Q.jpg","0","1","0","",""
"","feedback","","html-keyboard-response","512","384714","0.0-1.0-708.0-0.0","0","0","29114","","null","","","null","78","","","","","","","","","","","","","","","",""
"","time_out","","html-keyboard-response","513","386718","0.0-1.0-710.0-0.0","0","0","29114","","null","","","null","78","","","","","","","","","","","","","","","",""
"","ITI","","html-keyboard-response","514","387721","0.0-1.0-711.0","0","0","29114","","null","","","null","78","","","","","","","","","","","","","","","NaN",""
"","S1","","html-keyboard-response","515","387975","0.0-1.0-713.0","0","0","29114","","null","","","null","79","","","","","","","","","","","","","","","",""
"","ISI","","html-keyboard-response","516","388143","0.0-1.0-714.0","0","0","29114","","null","","","null","79","NaN","","","","","","","","","","","","","","",""
"","S2","","html-keyboard-response","517","388396","0.0-1.0-715.0","0","0","29114","","null","","","null","79","","NaN","","","","","","","","","","","","","",""
"","response","","html-keyboard-response","518","389447","0.0-1.0-716.0-0.0","0","0","29114","","1048","","","68","79","","","2","79","training","adjacent","DE","4","5","N.jpg","O.jpg","1","1","1","",""
"","feedback","","html-keyboard-response","519","390451","0.0-1.0-717.0-0.0","0","0","29114","","null","","","null","79","","","","","","","","","","","","","","","",""
"","ITI","","html-keyboard-response","520","391455","0.0-1.0-720.0","0","0","29114","","null","","","null","79","","","","","","","","","","","","","","","NaN",""
"","S1","","html-keyboard-response","521","391709","0.0-1.0-722.0","0","0","29114","","null","","","null","80","","","","","","","","","","","","","","","",""
"","ISI","","html-keyboard-response","522","391863","0.0-1.0-723.0","0","0","29114","","null","","","null","80","NaN","","","","","","","","","","","","","","",""
"","S2","","html-keyboard-response","523","392117","0.0-1.0-724.0","0","0","29114","","null","","","null","80","","NaN","","","","","","","","","","","","","",""
"","response","","html-keyboard-response","524","393149","0.0-1.0-725.0-0.0","0","0","29114","","1029","","","75","80","","","2","80","training","adjacent","AB","1","2","P.jpg","L.jpg","0","1","0","",""
"","feedback","","html-keyboard-response","525","394152","0.0-1.0-726.0-0.0","0","0","29114","","null","","","null","80","","","","","","","","","","","","","","","",""
"","time_out","","html-keyboard-response","526","396155","0.0-1.0-728.0-0.0","0","0","29114","","null","","","null","80","","","","","","","","","","","","","","","",""
"","ITI","","html-keyboard-response","527","397159","0.0-1.0-729.0","0","0","29114","","null","","","null","80","","","","","","","","","","","","","","","NaN",""
"","S1","","html-keyboard-response","528","397412","0.0-1.0-731.0","0","0","29114","","null","","","null","81","","","","","","","","","","","","","","","",""
"","ISI","","html-keyboard-response","529","397566","0.0-1.0-732.0","0","0","29114","","null","","","null","81","NaN","","","","","","","","","","","","","","",""
"","S2","","html-keyboard-response","530","397820","0.0-1.0-733.0","0","0","29114","","null","","","null","81","","NaN","","","","","","","","","","","","","",""
"","response","","html-keyboard-response","531","398621","0.0-1.0-734.0-0.0","0","0","29114","","798","","","68","81","","","2","81","training","adjacent","EF","5","6","O.jpg","R.jpg","1","1","1","",""
"","feedback","","html-keyboard-response","532","399625","0.0-1.0-735.0-0.0","0","0","29114","","null","","","null","81","","","","","","","","","","","","","","","",""
"","ITI","","html-keyboard-response","533","400643","0.0-1.0-738.0","0","0","29114","","null","","","null","81","","","","","","","","","","","","","","","NaN",""
"","S1","","html-keyboard-response","534","400897","0.0-1.0-740.0","0","0","29114","","null","","","null","82","","","","","","","","","","","","","","","",""
"","ISI","","html-keyboard-response","535","401051","0.0-1.0-741.0","0","0","29114","","null","","","null","82","NaN","","","","","","","","","","","","","","",""
"","S2","","html-keyboard-response","536","401305","0.0-1.0-742.0","0","0","29114","","null","","","null","82","","NaN","","","","","","","","","","","","","",""
"","response","","html-keyboard-response","537","401981","0.0-1.0-743.0-0.0","0","0","29114","","673","","","68","82","","","2","82","training","adjacent","FG","6","7","R.jpg","M.jpg","1","1","1","",""
"","feedback","","html-keyboard-response","538","402986","0.0-1.0-744.0-0.0","0","0","29114","","null","","","null","82","","","","","","","","","","","","","","","",""
"","ITI","","html-keyboard-response","539","403990","0.0-1.0-747.0","0","0","29114","","null","","","null","82","","","","","","","","","","","","","","","NaN",""
"","S1","","html-keyboard-response","540","404244","0.0-1.0-749.0","0","0","29114","","null","","","null","83","","","","","","","","","","","","","","","",""
"","ISI","","html-keyboard-response","541","404398","0.0-1.0-750.0","0","0","29114","","null","","","null","83","NaN","","","","","","","","","","","","","","",""
"","S2","","html-keyboard-response","542","404652","0.0-1.0-751.0","0","0","29114","","null","","","null","83","","NaN","","","","","","","","","","","","","",""
"","response","","html-keyboard-response","543","405342","0.0-1.0-752.0-0.0","0","0","29114","","687","","","68","83","","","2","83","training","adjacent","DE","4","5","N.jpg","O.jpg","1","1","1","",""
"","feedback","","html-keyboard-response","544","406346","0.0-1.0-753.0-0.0","0","0","29114","","null","","","null","83","","","","","","","","","","","","","","","",""
"","ITI","","html-keyboard-response","545","407351","0.0-1.0-756.0","0","0","29114","","null","","","null","83","","","","","","","","","","","","","","","NaN",""
"","S1","","html-keyboard-response","546","407605","0.0-1.0-758.0","0","0","29114","","null","","","null","84","","","","","","","","","","","","","","","",""
"","ISI","","html-keyboard-response","547","407758","0.0-1.0-759.0","0","0","29114","","null","","","null","84","NaN","","","","","","","","","","","","","","",""
"","S2","","html-keyboard-response","548","408013","0.0-1.0-760.0","0","0","29114","","null","","","null","84","","NaN","","","","","","","","","","","","","",""
"","response","","html-keyboard-response","549","408878","0.0-1.0-761.0-0.0","0","0","29114","","862","","","68","84","","","2","84","training","adjacent","CD","3","4","Q.jpg","N.jpg","1","1","1","",""
"","feedback","","html-keyboard-response","550","409882","0.0-1.0-762.0-0.0","0","0","29114","","null","","","null","84","","","","","","","","","","","","","","","",""
"","ITI","","html-keyboard-response","551","410886","0.0-1.0-765.0","0","0","29114","","null","","","null","84","","","","","","","","","","","","","","","NaN",""
"","S1","","html-keyboard-response","552","411140","0.0-1.0-767.0","0","0","29114","","null","","","null","85","","","","","","","","","","","","","","","",""
"","ISI","","html-keyboard-response","553","411294","0.0-1.0-768.0","0","0","29114","","null","","","null","85","NaN","","","","","","","","","","","","","","",""
"","S2","","html-keyboard-response","554","411548","0.0-1.0-769.0","0","0","29114","","null","","","null","85","","NaN","","","","","","","","","","","","","",""
"","response","","html-keyboard-response","555","412189","0.0-1.0-770.0-0.0","0","0","29114","","638","","","68","85","","","2","85","training","adjacent","EF","5","6","O.jpg","R.jpg","1","1","1","",""
"","feedback","","html-keyboard-response","556","413194","0.0-1.0-771.0-0.0","0","0","29114","","null","","","null","85","","","","","","","","","","","","","","","",""
"","ITI","","html-keyboard-response","557","414198","0.0-1.0-774.0","0","0","29114","","null","","","null","85","","","","","","","","","","","","","","","NaN",""
"","S1","","html-keyboard-response","558","414452","0.0-1.0-776.0","0","0","29114","","null","","","null","86","","","","","","","","","","","","","","","",""
"","ISI","","html-keyboard-response","559","414606","0.0-1.0-777.0","0","0","29114","","null","","","null","86","NaN","","","","","","","","","","","","","","",""
"","S2","","html-keyboard-response","560","414861","0.0-1.0-778.0","0","0","29114","","null","","","null","86","","NaN","","","","","","","","","","","","","",""
"","response","","html-keyboard-response","561","415870","0.0-1.0-779.0-0.0","0","0","29114","","1007","","","75","86","","","2","86","training","adjacent","FE","6","5","R.jpg","O.jpg","0","0","1","",""
"","feedback","","html-keyboard-response","562","416874","0.0-1.0-780.0-0.0","0","0","29114","","null","","","null","86","","","","","","","","","","","","","","","",""
"","ITI","","html-keyboard-response","563","417879","0.0-1.0-783.0","0","0","29114","","null","","","null","86","","","","","","","","","","","","","","","NaN",""
"","S1","","html-keyboard-response","564","418133","0.0-1.0-785.0","0","0","29114","","null","","","null","87","","","","","","","","","","","","","","","",""
"","ISI","","html-keyboard-response","565","418286","0.0-1.0-786.0","0","0","29114","","null","","","null","87","NaN","","","","","","","","","","","","","","",""
"","S2","","html-keyboard-response","566","418540","0.0-1.0-787.0","0","0","29114","","null","","","null","87","","NaN","","","","","","","","","","","","","",""
"","response","","html-keyboard-response","567","419614","0.0-1.0-788.0-0.0","0","0","29114","","1071","","","75","87","","","2","87","training","adjacent","CB","3","2","Q.jpg","L.jpg","0","0","1","",""
"","feedback","","html-keyboard-response","568","420619","0.0-1.0-789.0-0.0","0","0","29114","","null","","","null","87","","","","","","","","","","","","","","","",""
"","ITI","","html-keyboard-response","569","421623","0.0-1.0-792.0","0","0","29114","","null","","","null","87","","","","","","","","","","","","","","","NaN",""
"","S1","","html-keyboard-response","570","421877","0.0-1.0-794.0","0","0","29114","","null","","","null","88","","","","","","","","","","","","","","","",""
"","ISI","","html-keyboard-response","571","422030","0.0-1.0-795.0","0","0","29114","","null","","","null","88","NaN","","","","","","","","","","","","","","",""
"","S2","","html-keyboard-response","572","422285","0.0-1.0-796.0","0","0","29114","","null","","","null","88","","NaN","","","","","","","","","","","","","",""
"","response","","html-keyboard-response","573","423133","0.0-1.0-797.0-0.0","0","0","29114","","846","","","75","88","","","2","88","training","adjacent","AB","1","2","P.jpg","L.jpg","0","1","0","",""
"","feedback","","html-keyboard-response","574","424138","0.0-1.0-798.0-0.0","0","0","29114","","null","","","null","88","","","","","","","","","","","","","","","",""
"","time_out","","html-keyboard-response","575","426142","0.0-1.0-800.0-0.0","0","0","29114","","null","","","null","88","","","","","","","","","","","","","","","",""
"","ITI","","html-keyboard-response","576","427147","0.0-1.0-801.0","0","0","29114","","null","","","null","88","","","","","","","","","","","","","","","NaN",""
"","S1","","html-keyboard-response","577","427400","0.0-1.0-803.0","0","0","29114","","null","","","null","89","","","","","","","","","","","","","","","",""
"","ISI","","html-keyboard-response","578","427553","0.0-1.0-804.0","0","0","29114","","null","","","null","89","NaN","","","","","","","","","","","","","","",""
"","S2","","html-keyboard-response","579","427807","0.0-1.0-805.0","0","0","29114","","null","","","null","89","","NaN","","","","","","","","","","","","","",""
"","response","","html-keyboard-response","580","428923","0.0-1.0-806.0-0.0","0","0","29114","","1115","","","75","89","","","2","89","training","adjacent","ED","5","4","O.jpg","N.jpg","0","0","1","",""
"","feedback","","html-keyboard-response","581","429927","0.0-1.0-807.0-0.0","0","0","29114","","null","","","null","89","","","","","","","","","","","","","","","",""
"","ITI","","html-keyboard-response","582","430931","0.0-1.0-810.0","0","0","29114","","null","","","null","89","","","","","","","","","","","","","","","NaN",""
"","S1","","html-keyboard-response","583","431185","0.0-1.0-812.0","0","0","29114","","null","","","null","90","","","","","","","","","","","","","","","",""
