"success","ttype","start_time","trial_type","trial_index","time_elapsed","internal_node_id","warning","missed_checkup","PID","view_history","rt","responses","repeat_instructions","key_press","index","keypress_isi","keypress_S2","block","trial_num","phase","group_type","pair_type","S1_stim","S2_stim","S1_img","S2_img","S1_chosen","S1_higher","accuracy","keypress_iti","total_bonus_tally"
"true","full_screen","d04062023hr1741","fullscreen","0","5038","0.0-0.0","0","0","62902","","","","","","","","","","","","","","","","","","","","","",""
"","instructions","","instructions","1","29243","0.0-1.0-0.0-0.0","0","0","62902","[{""page_index"":0,""viewing_time"":6181},{""page_index"":1,""viewing_time"":9822},{""page_index"":2,""viewing_time"":7010},{""page_index"":3,""viewing_time"":1186}]","24199","","","","","","","","","","","","","","","","","","","",""
"","comprehension_check","","survey-multi-choice","2","52724","0.0-1.0-0.0-1.0","0","0","62902","","23474","{""Q0"":""True"",""Q1"":""D"",""Q2"":""Once the second image appears and while the screen 'MAKE A CHOICE' is shown"",""Q3"":""Green mark"",""Q4"":""either D or K""}","0","","","","","","","","","","","","","","","","","",""
"","start_exp","","html-keyboard-response","3","55591","0.0-1.0-1.0","0","0","62902","","2861","","","32","","","","","","","","","","","","","","","","",""
"","S1","","html-keyboard-response","4","55751","0.0-1.0-2.0","0","0","62902","","null","","","null","0","","","","","","","","","","","","","","","",""
"","ISI","","html-keyboard-response","5","57766","0.0-1.0-3.0","0","0","62902","","null","","","null","0","NaN","","","","","","","","","","","","","","",""
"","S2","","html-keyboard-response","6","57925","0.0-1.0-4.0","0","0","62902","","null","","","null","0","","NaN","","","","","","","","","","","","","",""
"","response","","html-keyboard-response","7","59490","0.0-1.0-5.0-0.0","0","0","62902","","1557","","","68","0","","","1","0","training","adjacent","ED","5","4","L.jpg","M.jpg","1","0","0","",""
"","feedback","","html-keyboard-response","8","60504","0.0-1.0-6.0-0.0","0","0","62902","","null","","","null","0","","","","","","","","","","","","","","","",""
"","time_out","","html-keyboard-response","9","62512","0.0-1.0-8.0-0.0","0","0","62902","","null","","","null","0","","","","","","","","","","","","","","","",""
"","ITI","","html-keyboard-response","10","63521","0.0-1.0-9.0","0","0","62902","","null","","","null","0","","","","","","","","","","","","","","","NaN",""
"","S1","","html-keyboard-response","11","63678","0.0-1.0-11.0","0","0","62902","","null","","","null","1","","","","","","","","","","","","","","","",""
"","ISI","","html-keyboard-response","12","65686","0.0-1.0-12.0","0","0","62902","","null","","","null","1","NaN","","","","","","","","","","","","","","",""
"","S2","","html-keyboard-response","13","65841","0.0-1.0-13.0","0","0","62902","","null","","","null","1","","NaN","","","","","","","","","","","","","",""
"","response","","html-keyboard-response","14","67661","0.0-1.0-14.0-0.0","0","0","62902","","1815","","","68","1","","","1","1","training","adjacent","GF","7","6","P.jpg","Q.jpg","1","0","0","",""
"","feedback","","html-keyboard-response","15","68671","0.0-1.0-15.0-0.0","0","0","62902","","null","","","null","1","","","","","","","","","","","","","","","",""
"","time_out","","html-keyboard-response","16","70675","0.0-1.0-17.0-0.0","0","0","62902","","null","","","null","1","","","","","","","","","","","","","","","",""
"","ITI","","html-keyboard-response","17","71677","0.0-1.0-18.0","0","0","62902","","null","","","null","1","","","","","","","","","","","","","","","NaN",""
"","S1","","html-keyboard-response","18","71830","0.0-1.0-20.0","0","0","62902","","null","","","null","2","","","","","","","","","","","","","","","",""
"","ISI","","html-keyboard-response","19","73833","0.0-1.0-21.0","0","0","62902","","null","","","null","2","NaN","","","","","","","","","","","","","","",""
"","S2","","html-keyboard-response","20","73987","0.0-1.0-22.0","0","0","62902","","null","","","null","2","","NaN","","","","","","","","","","","","","",""
"","response","","html-keyboard-response","21","74218","0.0-1.0-23.0-0.0","0","0","62902","","230","","","75","2","","","1","2","training","adjacent","FG","6","7","Q.jpg","P.jpg","0","1","0","",""
"","feedback","","html-keyboard-response","22","75222","0.0-1.0-24.0-0.0","0","0","62902","","null","","","null","2","","","","","","","","","","","","","","","",""
"","time_out","","html-keyboard-response","23","77226","0.0-1.0-26.0-0.0","0","0","62902","","null","","","null","2","","","","","","","","","","","","","","","",""
"","ITI","","html-keyboard-response","24","78229","0.0-1.0-27.0","0","0","62902","","null","","","null","2","","","","","","","","","","","","","","","NaN",""
"","S1","","html-keyboard-response","25","78385","0.0-1.0-29.0","0","0","62902","","null","","","null","3","","","","","","","","","","","","","","","",""
"","ISI","","html-keyboard-response","26","80388","0.0-1.0-30.0","0","0","62902","","null","","","null","3","NaN","","","","","","","","","","","","","","",""
"","S2","","html-keyboard-response","27","80545","0.0-1.0-31.0","0","0","62902","","null","","","null","3","","NaN","","","","","","","","","","","","","",""
"","response","","html-keyboard-response","28","80845","0.0-1.0-32.0-0.0","0","0","62902","","291","","","75","3","","","1","3","training","adjacent","BC","2","3","N.jpg","O.jpg","0","1","0","",""
"","feedback","","html-keyboard-response","29","81856","0.0-1.0-33.0-0.0","0","0","62902","","null","","","null","3","","","","","","","","","","","","","","","",""
"","time_out","","html-keyboard-response","30","83863","0.0-1.0-35.0-0.0","0","0","62902","","null","","","null","3","","","","","","","","","","","","","","","",""
"","ITI","","html-keyboard-response","31","84874","0.0-1.0-36.0","0","0","62902","","null","","","null","3","","","","","","","","","","","","","","","NaN",""
"","S1","","html-keyboard-response","32","85034","0.0-1.0-38.0","0","0","62902","","null","","","null","4","","","","","","","","","","","","","","","",""
"","ISI","","html-keyboard-response","33","87040","0.0-1.0-39.0","0","0","62902","","null","","","null","4","NaN","","","","","","","","","","","","","","",""
"","S2","","html-keyboard-response","34","87200","0.0-1.0-40.0","0","0","62902","","null","","","null","4","","NaN","","","","","","","","","","","","","",""
"","response","","html-keyboard-response","35","87370","0.0-1.0-41.0-0.0","0","0","62902","","158","","","68","4","","","1","4","training","adjacent","ED","5","4","L.jpg","M.jpg","1","0","0","",""
"","feedback","","html-keyboard-response","36","88375","0.0-1.0-42.0-0.0","0","0","62902","","null","","","null","4","","","","","","","","","","","","","","","",""
"","time_out","","html-keyboard-response","37","90382","0.0-1.0-44.0-0.0","0","0","62902","","null","","","null","4","","","","","","","","","","","","","","","",""
"","ITI","","html-keyboard-response","38","91389","0.0-1.0-45.0","0","0","62902","","null","","","null","4","","","","","","","","","","","","","","","NaN",""
"","S1","","html-keyboard-response","39","91545","0.0-1.0-47.0","0","0","62902","","null","","","null","5","","","","","","","","","","","","","","","",""
"","ISI","","html-keyboard-response","40","93553","0.0-1.0-48.0","0","0","62902","","null","","","null","5","NaN","","","","","","","","","","","","","","",""
"","S2","","html-keyboard-response","41","93709","0.0-1.0-49.0","0","0","62902","","null","","","null","5","","NaN","","","","","","","","","","","","","",""
"","response","","html-keyboard-response","42","93888","0.0-1.0-50.0-0.0","0","0","62902","","172","","","68","5","","","1","5","training","adjacent","AB","1","2","R.jpg","N.jpg","1","1","1","",""
"","feedback","","html-keyboard-response","43","94895","0.0-1.0-51.0-0.0","0","0","62902","","null","","","null","5","","","","","","","","","","","","","","","",""
"","ITI","","html-keyboard-response","44","95905","0.0-1.0-54.0","0","0","62902","","null","","","null","5","","","","","","","","","","","","","","","NaN",""
"","S1","","html-keyboard-response","45","96068","0.0-1.0-56.0","0","0","62902","","null","","","null","6","","","","","","","","","","","","","","","",""
"","ISI","","html-keyboard-response","46","98073","0.0-1.0-57.0","0","0","62902","","null","","","null","6","NaN","","","","","","","","","","","","","","",""
"","S2","","html-keyboard-response","47","98226","0.0-1.0-58.0","0","0","62902","","null","","","null","6","","NaN","","","","","","","","","","","","","",""
"","response","","html-keyboard-response","48","98347","0.0-1.0-59.0-0.0","0","0","62902","","114","","","68","6","","","1","6","training","adjacent","FG","6","7","Q.jpg","P.jpg","1","1","1","",""
"","feedback","","html-keyboard-response","49","99356","0.0-1.0-60.0-0.0","0","0","62902","","null","","","null","6","","","","","","","","","","","","","","","",""
"","ITI","","html-keyboard-response","50","100367","0.0-1.0-63.0","0","0","62902","","null","","","null","6","","","","","","","","","","","","","","","NaN",""
"","S1","","html-keyboard-response","51","100522","0.0-1.0-65.0","0","0","62902","","null","","","null","7","","","","","","","","","","","","","","","",""
"","ISI","","html-keyboard-response","52","102528","0.0-1.0-66.0","0","0","62902","","1335","","","68","7","d","","","","","","","","","","","","","","",""
"","S2","","html-keyboard-response","53","102693","0.0-1.0-67.0","0","0","62902","","null","","","null","7","","NaN","","","","","","","","","","","","","",""
"","response","","html-keyboard-response","54","102807","0.0-1.0-68.0-0.0","0","0","62902","","109","","","68","7","","","1","7","training","adjacent","GF","7","6","P.jpg","Q.jpg","1","0","0","",""
"","feedback","","html-keyboard-response","55","103816","0.0-1.0-69.0-0.0","0","0","62902","","null","","","null","7","","","","","","","","","","","","","","","",""
"","time_out","","html-keyboard-response","56","105823","0.0-1.0-71.0-0.0","0","0","62902","","null","","","null","7","","","","","","","","","","","","","","","",""
"","ITI","","html-keyboard-response","57","106829","0.0-1.0-72.0","0","0","62902","","null","","","null","7","","","","","","","","","","","","","","","NaN",""
"","S1","","html-keyboard-response","58","106990","0.0-1.0-74.0","0","0","62902","","null","","","null","8","","","","","","","","","","","","","","","",""
"","ISI","","html-keyboard-response","59","108995","0.0-1.0-75.0","0","0","62902","","null","","","null","8","NaN","","","","","","","","","","","","","","",""
"","S2","","html-keyboard-response","60","109156","0.0-1.0-76.0","0","0","62902","","null","","","null","8","","NaN","","","","","","","","","","","","","",""
"","response","","html-keyboard-response","61","109312","0.0-1.0-77.0-0.0","0","0","62902","","151","","","68","8","","","1","8","training","adjacent","CB","3","2","O.jpg","N.jpg","1","0","0","",""
"","feedback","","html-keyboard-response","62","110318","0.0-1.0-78.0-0.0","0","0","62902","","null","","","null","8","","","","","","","","","","","","","","","",""
"","time_out","","html-keyboard-response","63","112323","0.0-1.0-80.0-0.0","0","0","62902","","null","","","null","8","","","","","","","","","","","","","","","",""
"","ITI","","html-keyboard-response","64","113330","0.0-1.0-81.0","0","0","62902","","null","","","null","8","","","","","","","","","","","","","","","NaN",""
"","S1","","html-keyboard-response","65","113489","0.0-1.0-83.0","0","0","62902","","null","","","null","9","","","","","","","","","","","","","","","",""
"","ISI","","html-keyboard-response","66","115496","0.0-1.0-84.0","0","0","62902","","null","","","null","9","NaN","","","","","","","","","","","","","","",""
"","S2","","html-keyboard-response","67","115656","0.0-1.0-85.0","0","0","62902","","null","","","null","9","","NaN","","","","","","","","","","","","","",""
"","response","","html-keyboard-response","68","115926","0.0-1.0-86.0-0.0","0","0","62902","","264","","","68","9","","","1","9","training","adjacent","ED","5","4","L.jpg","M.jpg","1","0","0","",""
"","feedback","","html-keyboard-response","69","116936","0.0-1.0-87.0-0.0","0","0","62902","","null","","","null","9","","","","","","","","","","","","","","","",""
"","time_out","","html-keyboard-response","70","118940","0.0-1.0-89.0-0.0","0","0","62902","","null","","","null","9","","","","","","","","","","","","","","","",""
"","ITI","","html-keyboard-response","71","119945","0.0-1.0-90.0","0","0","62902","","null","","","null","9","","","","","","","","","","","","","","","NaN",""
"","S1","","html-keyboard-response","72","120104","0.0-1.0-92.0","0","0","62902","","null","","","null","10","","","","","","","","","","","","","","","",""
"","ISI","","html-keyboard-response","73","122119","0.0-1.0-93.0","0","0","62902","","null","","","null","10","NaN","","","","","","","","","","","","","","",""
"","S2","","html-keyboard-response","74","122276","0.0-1.0-94.0","0","0","62902","","null","","","null","10","","NaN","","","","","","","","","","","","","",""
"","response","","html-keyboard-response","75","122448","0.0-1.0-95.0-0.0","0","0","62902","","165","","","68","10","","","1","10","training","adjacent","CB","3","2","O.jpg","N.jpg","1","0","0","",""
"","feedback","","html-keyboard-response","76","123459","0.0-1.0-96.0-0.0","0","0","62902","","null","","","null","10","","","","","","","","","","","","","","","",""
"","time_out","","html-keyboard-response","77","125470","0.0-1.0-98.0-0.0","0","0","62902","","null","","","null","10","","","","","","","","","","","","","","","",""
"","ITI","","html-keyboard-response","78","126473","0.0-1.0-99.0","0","0","62902","","null","","","null","10","","","","","","","","","","","","","","","NaN",""
"","S1","","html-keyboard-response","79","126632","0.0-1.0-101.0","0","0","62902","","null","","","null","11","","","","","","","","","","","","","","","",""
"","ISI","","html-keyboard-response","80","128637","0.0-1.0-102.0","0","0","62902","","null","","","null","11","NaN","","","","","","","","","","","","","","",""
"","S2","","html-keyboard-response","81","128794","0.0-1.0-103.0","0","0","62902","","null","","","null","11","","NaN","","","","","","","","","","","","","",""
"","response","","html-keyboard-response","82","128952","0.0-1.0-104.0-0.0","0","0","62902","","149","","","68","11","","","1","11","training","adjacent","EF","5","6","L.jpg","Q.jpg","1","1","1","",""
"","feedback","","html-keyboard-response","83","129962","0.0-1.0-105.0-0.0","0","0","62902","","null","","","null","11","","","","","","","","","","","","","","","",""
"","ITI","","html-keyboard-response","84","130985","0.0-1.0-108.0","0","0","62902","","null","","","null","11","","","","","","","","","","","","","","","NaN",""
"","S1","","html-keyboard-response","85","131143","0.0-1.0-110.0","0","0","62902","","null","","","null","12","","","","","","","","","","","","","","","",""
"","ISI","","html-keyboard-response","86","133151","0.0-1.0-111.0","0","0","62902","","null","","","null","12","NaN","","","","","","","","","","","","","","",""
"","S2","","html-keyboard-response","87","133311","0.0-1.0-112.0","0","0","62902","","null","","","null","12","","NaN","","","","","","","","","","","","","",""
"","response","","html-keyboard-response","88","133456","0.0-1.0-113.0-0.0","0","0","62902","","138","","","68","12","","","1","12","training","adjacent","CD","3","4","O.jpg","M.jpg","1","1","1","",""
"","feedback","","html-keyboard-response","89","134464","0.0-1.0-114.0-0.0","0","0","62902","","null","","","null","12","","","","","","","","","","","","","","","",""
"","ITI","","html-keyboard-response","90","135472","0.0-1.0-117.0","0","0","62902","","null","","","null","12","","","","","","","","","","","","","","","NaN",""
"","S1","","html-keyboard-response","91","135627","0.0-1.0-119.0","0","0","62902","","null","","","null","13","","","","","","","","","","","","","","","",""
"","ISI","","html-keyboard-response","92","137635","0.0-1.0-120.0","0","0","62902","","null","","","null","13","NaN","","","","","","","","","","","","","","",""
"","S2","","html-keyboard-response","93","137794","0.0-1.0-121.0","0","0","62902","","null","","","null","13","","NaN","","","","","","","","","","","","","",""
"","response","","html-keyboard-response","94","137921","0.0-1.0-122.0-0.0","0","0","62902","","119","","","68","13","","","1","13","training","adjacent","CB","3","2","O.jpg","N.jpg","1","0","0","",""
"","feedback","","html-keyboard-response","95","138934","0.0-1.0-123.0-0.0","0","0","62902","","null","","","null","13","","","","","","","","","","","","","","","",""
"","time_out","","html-keyboard-response","96","140941","0.0-1.0-125.0-0.0","0","0","62902","","null","","","null","13","","","","","","","","","","","","","","","",""
"","ITI","","html-keyboard-response","97","141950","0.0-1.0-126.0","0","0","62902","","null","","","null","13","","","","","","","","","","","","","","","NaN",""
"","S1","","html-keyboard-response","98","142107","0.0-1.0-128.0","0","0","62902","","null","","","null","14","","","","","","","","","","","","","","","",""
"","ISI","","html-keyboard-response","99","144115","0.0-1.0-129.0","0","0","62902","","null","","","null","14","NaN","","","","","","","","","","","","","","",""
"","S2","","html-keyboard-response","100","144271","0.0-1.0-130.0","0","0","62902","","null","","","null","14","","NaN","","","","","","","","","","","","","",""
"","response","","html-keyboard-response","101","144406","0.0-1.0-131.0-0.0","0","0","62902","","130","","","75","14","","","1","14","training","adjacent","DC","4","3","M.jpg","O.jpg","0","0","1","",""
"","feedback","","html-keyboard-response","102","145412","0.0-1.0-132.0-0.0","0","0","62902","","null","","","null","14","","","","","","","","","","","","","","","",""
"","ITI","","html-keyboard-response","103","146422","0.0-1.0-135.0","0","0","62902","","null","","","null","14","","","","","","","","","","","","","","","NaN",""
"","S1","","html-keyboard-response","104","146582","0.0-1.0-137.0","0","0","62902","","null","","","null","15","","","","","","","","","","","","","","","",""
"","ISI","","html-keyboard-response","105","148588","0.0-1.0-138.0","0","0","62902","","null","","","null","15","NaN","","","","","","","","","","","","","","",""
"","S2","","html-keyboard-response","106","148742","0.0-1.0-139.0","0","0","62902","","null","","","null","15","","NaN","","","","","","","","","","","","","",""
"","response","","html-keyboard-response","107","148833","0.0-1.0-140.0-0.0","0","0","62902","","89","","","75","15","","","1","15","training","adjacent","FE","6","5","Q.jpg","L.jpg","0","0","1","",""
"","feedback","","html-keyboard-response","108","149840","0.0-1.0-141.0-0.0","0","0","62902","","null","","","null","15","","","","","","","","","","","","","","","",""
"","ITI","","html-keyboard-response","109","150848","0.0-1.0-144.0","0","0","62902","","null","","","null","15","","","","","","","","","","","","","","","NaN",""
"","S1","","html-keyboard-response","110","151005","0.0-1.0-146.0","0","0","62902","","null","","","null","16","","","","","","","","","","","","","","","",""
"","ISI","","html-keyboard-response","111","153010","0.0-1.0-147.0","0","0","62902","","null","","","null","16","NaN","","","","","","","","","","","","","","",""
"","S2","","html-keyboard-response","112","153168","0.0-1.0-148.0","0","0","62902","","null","","","null","16","","NaN","","","","","","","","","","","","","",""
"","response","","html-keyboard-response","113","153423","0.0-1.0-149.0-0.0","0","0","62902","","248","","","75","16","","","1","16","training","adjacent","BC","2","3","N.jpg","O.jpg","0","1","0","",""
"","feedback","","html-keyboard-response","114","154437","0.0-1.0-150.0-0.0","0","0","62902","","null","","","null","16","","","","","","","","","","","","","","","",""
"","time_out","","html-keyboard-response","115","156450","0.0-1.0-152.0-0.0","0","0","62902","","null","","","null","16","","","","","","","","","","","","","","","",""
"","ITI","","html-keyboard-response","116","157458","0.0-1.0-153.0","0","0","62902","","null","","","null","16","","","","","","","","","","","","","","","NaN",""
"","S1","","html-keyboard-response","117","157618","0.0-1.0-155.0","0","0","62902","","null","","","null","17","","","","","","","","","","","","","","","",""
"","ISI","","html-keyboard-response","118","159624","0.0-1.0-156.0","0","0","62902","","null","","","null","17","NaN","","","","","","","","","","","","","","",""
"","S2","","html-keyboard-response","119","159783","0.0-1.0-157.0","0","0","62902","","null","","","null","17","","NaN","","","","","","","","","","","","","",""
"","response","","html-keyboard-response","120","160110","0.0-1.0-158.0-0.0","0","0","62902","","323","","","75","17","","","1","17","training","adjacent","DC","4","3","M.jpg","O.jpg","0","0","1","",""
"","feedback","","html-keyboard-response","121","161125","0.0-1.0-159.0-0.0","0","0","62902","","null","","","null","17","","","","","","","","","","","","","","","",""
"","ITI","","html-keyboard-response","122","162134","0.0-1.0-162.0","0","0","62902","","null","","","null","17","","","","","","","","","","","","","","","NaN",""
"","S1","","html-keyboard-response","123","162289","0.0-1.0-164.0","0","0","62902","","null","","","null","18","","","","","","","","","","","","","","","",""
"","ISI","","html-keyboard-response","124","164292","0.0-1.0-165.0","0","0","62902","","null","","","null","18","NaN","","","","","","","","","","","","","","",""
"","S2","","html-keyboard-response","125","164451","0.0-1.0-166.0","0","0","62902","","null","","","null","18","","NaN","","","","","","","","","","","","","",""
"","response","","html-keyboard-response","126","164633","0.0-1.0-167.0-0.0","0","0","62902","","178","","","75","18","","","1","18","training","adjacent","BA","2","1","N.jpg","R.jpg","0","0","1","",""
"","feedback","","html-keyboard-response","127","165640","0.0-1.0-168.0-0.0","0","0","62902","","null","","","null","18","","","","","","","","","","","","","","","",""
"","ITI","","html-keyboard-response","128","166644","0.0-1.0-171.0","0","0","62902","","null","","","null","18","","","","","","","","","","","","","","","NaN",""
"","S1","","html-keyboard-response","129","166802","0.0-1.0-173.0","0","0","62902","","null","","","null","19","","","","","","","","","","","","","","","",""
"","ISI","","html-keyboard-response","130","168810","0.0-1.0-174.0","0","0","62902","","null","","","null","19","NaN","","","","","","","","","","","","","","",""
"","S2","","html-keyboard-response","131","168972","0.0-1.0-175.0","0","0","62902","","null","","","null","19","","NaN","","","","","","","","","","","","","",""
"","response","","html-keyboard-response","132","169215","0.0-1.0-176.0-0.0","0","0","62902","","235","","","75","19","","","1","19","training","adjacent","AB","1","2","R.jpg","N.jpg","0","1","0","",""
"","feedback","","html-keyboard-response","133","170225","0.0-1.0-177.0-0.0","0","0","62902","","null","","","null","19","","","","","","","","","","","","","","","",""
"","time_out","","html-keyboard-response","134","172233","0.0-1.0-179.0-0.0","0","0","62902","","null","","","null","19","","","","","","","","","","","","","","","",""
"","ITI","","html-keyboard-response","135","173240","0.0-1.0-180.0","0","0","62902","","null","","","null","19","","","","","","","","","","","","","","","NaN",""
"","S1","","html-keyboard-response","136","173396","0.0-1.0-182.0","0","0","62902","","null","","","null","20","","","","","","","","","","","","","","","",""
"","ISI","","html-keyboard-response","137","175404","0.0-1.0-183.0","0","0","62902","","590","","","68","20","d","","","","","","","","","","","","","","",""
"","S2","","html-keyboard-response","138","175561","0.0-1.0-184.0","0","0","62902","","null","","","null","20","","NaN","","","","","","","","","","","","","",""
"","response","","html-keyboard-response","139","175638","0.0-1.0-185.0-0.0","0","0","62902","","72","","","68","20","","","1","20","training","adjacent","CD","3","4","O.jpg","M.jpg","1","1","1","",""
"","feedback","","html-keyboard-response","140","176645","0.0-1.0-186.0-0.0","0","0","62902","","null","","","null","20","","","","","","","","","","","","","","","",""
"","ITI","","html-keyboard-response","141","177658","0.0-1.0-189.0","0","0","62902","","null","","","null","20","","","","","","","","","","","","","","","NaN",""
"","S1","","html-keyboard-response","142","177813","0.0-1.0-191.0","0","0","62902","","null","","","null","21","","","","","","","","","","","","","","","",""
"","ISI","","html-keyboard-response","143","179822","0.0-1.0-192.0","0","0","62902","","null","","","null","21","NaN","","","","","","","","","","","","","","",""
"","S2","","html-keyboard-response","144","179983","0.0-1.0-193.0","0","0","62902","","null","","","null","21","","NaN","","","","","","","","","","","","","",""
"","response","","html-keyboard-response","145","180083","0.0-1.0-194.0-0.0","0","0","62902","","94","","","68","21","","","1","21","training","adjacent","CB","3","2","O.jpg","N.jpg","1","0","0","",""
"","feedback","","html-keyboard-response","146","181090","0.0-1.0-195.0-0.0","0","0","62902","","null","","","null","21","","","","","","","","","","","","","","","",""
"","time_out","","html-keyboard-response","147","183100","0.0-1.0-197.0-0.0","0","0","62902","","null","","","null","21","","","","","","","","","","","","","","","",""
"","ITI","","html-keyboard-response","148","184103","0.0-1.0-198.0","0","0","62902","","null","","","null","21","","","","","","","","","","","","","","","NaN",""
"","S1","","html-keyboard-response","149","184259","0.0-1.0-200.0","0","0","62902","","null","","","null","22","","","","","","","","","","","","","","","",""
"","ISI","","html-keyboard-response","150","186263","0.0-1.0-201.0","0","0","62902","","null","","","null","22","NaN","","","","","","","","","","","","","","",""
"","S2","","html-keyboard-response","151","186420","0.0-1.0-202.0","0","0","62902","","null","","","null","22","","NaN","","","","","","","","","","","","","",""
"","response","","html-keyboard-response","152","186488","0.0-1.0-203.0-0.0","0","0","62902","","58","","","75","22","","","1","22","training","adjacent","GF","7","6","P.jpg","Q.jpg","0","0","1","",""
"","feedback","","html-keyboard-response","153","187496","0.0-1.0-204.0-0.0","0","0","62902","","null","","","null","22","","","","","","","","","","","","","","","",""
"","ITI","","html-keyboard-response","154","188508","0.0-1.0-207.0","0","0","62902","","null","","","null","22","","","","","","","","","","","","","","","NaN",""
"","S1","","html-keyboard-response","155","188666","0.0-1.0-209.0","0","0","62902","","null","","","null","23","","","","","","","","","","","","","","","",""
"","ISI","","html-keyboard-response","156","190672","0.0-1.0-210.0","0","0","62902","","null","","","null","23","NaN","","","","","","","","","","","","","","",""
"","S2","","html-keyboard-response","157","190828","0.0-1.0-211.0","0","0","62902","","null","","","null","23","","NaN","","","","","","","","","","","","","",""
"","response","","html-keyboard-response","158","191094","0.0-1.0-212.0-0.0","0","0","62902","","258","","","75","23","","","1","23","training","adjacent","AB","1","2","R.jpg","N.jpg","0","1","0","",""
"","feedback","","html-keyboard-response","159","192101","0.0-1.0-213.0-0.0","0","0","62902","","null","","","null","23","","","","","","","","","","","","","","","",""
"","time_out","","html-keyboard-response","160","194106","0.0-1.0-215.0-0.0","0","0","62902","","null","","","null","23","","","","","","","","","","","","","","","",""
"","ITI","","html-keyboard-response","161","195112","0.0-1.0-216.0","0","0","62902","","null","","","null","23","","","","","","","","","","","","","","","NaN",""
"","S1","","html-keyboard-response","162","195273","0.0-1.0-218.0","0","0","62902","","null","","","null","24","","","","","","","","","","","","","","","",""
"","ISI","","html-keyboard-response","163","197279","0.0-1.0-219.0","0","0","62902","","null","","","null","24","NaN","","","","","","","","","","","","","","",""
"","S2","","html-keyboard-response","164","197440","0.0-1.0-220.0","0","0","62902","","null","","","null","24","","NaN","","","","","","","","","","","","","",""
"","response","","html-keyboard-response","165","198045","0.0-1.0-221.0-0.0","0","0","62902","","599","","","68","24","","","1","24","training","adjacent","EF","5","6","L.jpg","Q.jpg","1","1","1","",""
"","feedback","","html-keyboard-response","166","199054","0.0-1.0-222.0-0.0","0","0","62902","","null","","","null","24","","","","","","","","","","","","","","","",""
"","ITI","","html-keyboard-response","167","200059","0.0-1.0-225.0","0","0","62902","","null","","","null","24","","","","","","","","","","","","","","","NaN",""
"","S1","","html-keyboard-response","168","200219","0.0-1.0-227.0","0","0","62902","","null","","","null","25","","","","","","","","","","","","","","","",""
"","ISI","","html-keyboard-response","169","202226","0.0-1.0-228.0","0","0","62902","","null","","","null","25","NaN","","","","","","","","","","","","","","",""
"","S2","","html-keyboard-response","170","202392","0.0-1.0-229.0","0","0","62902","","null","","","null","25","","NaN","","","","","","","","","","","","","",""
"","response","","html-keyboard-response","171","202708","0.0-1.0-230.0-0.0","0","0","62902","","312","","","75","25","","","1","25","training","adjacent","BA","2","1","N.jpg","R.jpg","0","0","1","",""
"","feedback","","html-keyboard-response","172","203719","0.0-1.0-231.0-0.0","0","0","62902","","null","","","null","25","","","","","","","","","","","","","","","",""
"","ITI","","html-keyboard-response","173","204725","0.0-1.0-234.0","0","0","62902","","null","","","null","25","","","","","","","","","","","","","","","NaN",""
"","S1","","html-keyboard-response","174","204890","0.0-1.0-236.0","0","0","62902","","null","","","null","26","","","","","","","","","","","","","","","",""
"","ISI","","html-keyboard-response","175","206893","0.0-1.0-237.0","0","0","62902","","null","","","null","26","NaN","","","","","","","","","","","","","","",""
"","S2","","html-keyboard-response","176","207048","0.0-1.0-238.0","0","0","62902","","null","","","null","26","","NaN","","","","","","","","","","","","","",""
"","response","","html-keyboard-response","177","207244","0.0-1.0-239.0-0.0","0","0","62902","","191","","","75","26","","","1","26","training","adjacent","FG","6","7","Q.jpg","P.jpg","0","1","0","",""
"","feedback","","html-keyboard-response","178","208250","0.0-1.0-240.0-0.0","0","0","62902","","null","","","null","26","","","","","","","","","","","","","","","",""
"","time_out","","html-keyboard-response","179","210252","0.0-1.0-242.0-0.0","0","0","62902","","null","","","null","26","","","","","","","","","","","","","","","",""
"","ITI","","html-keyboard-response","180","211257","0.0-1.0-243.0","0","0","62902","","null","","","null","26","","","","","","","","","","","","","","","NaN",""
"","S1","","html-keyboard-response","181","211417","0.0-1.0-245.0","0","0","62902","","null","","","null","27","","","","","","","","","","","","","","","",""
"","ISI","","html-keyboard-response","182","213424","0.0-1.0-246.0","0","0","62902","","null","","","null","27","NaN","","","","","","","","","","","","","","",""
"","S2","","html-keyboard-response","183","213584","0.0-1.0-247.0","0","0","62902","","null","","","null","27","","NaN","","","","","","","","","","","","","",""
"","response","","html-keyboard-response","184","213979","0.0-1.0-248.0-0.0","0","0","62902","","391","","","68","27","","","1","27","training","adjacent","BA","2","1","N.jpg","R.jpg","1","0","0","",""
"","feedback","","html-keyboard-response","185","214995","0.0-1.0-249.0-0.0","0","0","62902","","null","","","null","27","","","","","","","","","","","","","","","",""
"","time_out","","html-keyboard-response","186","217005","0.0-1.0-251.0-0.0","0","0","62902","","null","","","null","27","","","","","","","","","","","","","","","",""
"","ITI","","html-keyboard-response","187","218018","0.0-1.0-252.0","0","0","62902","","277","","","75","27","","","","","","","","","","","","","","","k",""
"","S1","","html-keyboard-response","188","218191","0.0-1.0-254.0","0","0","62902","","null","","","null","28","","","","","","","","","","","","","","","",""
"","ISI","","html-keyboard-response","189","220201","0.0-1.0-255.0","0","0","62902","","125","","","75","28","k","","","","","","","","","","","","","","",""
"","S2","","html-keyboard-response","190","220372","0.0-1.0-256.0","0","0","62902","","null","","","null","28","","NaN","","","","","","","","","","","","","",""
"","response","","html-keyboard-response","191","220490","0.0-1.0-257.0-0.0","0","0","62902","","109","","","75","28","","","1","28","training","adjacent","BC","2","3","N.jpg","O.jpg","0","1","0","",""
"","feedback","","html-keyboard-response","192","221495","0.0-1.0-258.0-0.0","0","0","62902","","null","","","null","28","","","","","","","","","","","","","","","",""
"","time_out","","html-keyboard-response","193","223506","0.0-1.0-260.0-0.0","0","0","62902","","null","","","null","28","","","","","","","","","","","","","","","",""
"","ITI","","html-keyboard-response","194","224517","0.0-1.0-261.0","0","0","62902","","null","","","null","28","","","","","","","","","","","","","","","NaN",""
"","S1","","html-keyboard-response","195","224674","0.0-1.0-263.0","0","0","62902","","null","","","null","29","","","","","","","","","","","","","","","",""
"","ISI","","html-keyboard-response","196","226682","0.0-1.0-264.0","0","0","62902","","168","","","68","29","d","","","","","","","","","","","","","","",""
"","S2","","html-keyboard-response","197","226840","0.0-1.0-265.0","0","0","62902","","null","","","null","29","","NaN","","","","","","","","","","","","","",""
"","response","","html-keyboard-response","198","226920","0.0-1.0-266.0-0.0","0","0","62902","","72","","","68","29","","","1","29","training","adjacent","ED","5","4","L.jpg","M.jpg","1","0","0","",""
"","feedback","","html-keyboard-response","199","227927","0.0-1.0-267.0-0.0","0","0","62902","","null","","","null","29","","","","","","","","","","","","","","","",""
"","time_out","","html-keyboard-response","200","229938","0.0-1.0-269.0-0.0","0","0","62902","","null","","","null","29","","","","","","","","","","","","","","","",""
"","ITI","","html-keyboard-response","201","230950","0.0-1.0-270.0","0","0","62902","","null","","","null","29","","","","","","","","","","","","","","","NaN",""
"","S1","","html-keyboard-response","202","231120","0.0-1.0-272.0","0","0","62902","","null","","","null","30","","","","","","","","","","","","","","","",""
"","ISI","","html-keyboard-response","203","233136","0.0-1.0-273.0","0","0","62902","","967","","","75","30","k","","","","","","","","","","","","","","",""
"","S2","","html-keyboard-response","204","233294","0.0-1.0-274.0","0","0","62902","","null","","","null","30","","NaN","","","","","","","","","","","","","",""
"","response","","html-keyboard-response","205","233466","0.0-1.0-275.0-0.0","0","0","62902","","164","","","75","30","","","1","30","training","adjacent","EF","5","6","L.jpg","Q.jpg","0","1","0","",""
"","feedback","","html-keyboard-response","206","234475","0.0-1.0-276.0-0.0","0","0","62902","","null","","","null","30","","","","","","","","","","","","","","","",""
"","time_out","","html-keyboard-response","207","236483","0.0-1.0-278.0-0.0","0","0","62902","","null","","","null","30","","","","","","","","","","","","","","","",""
"","ITI","","html-keyboard-response","208","237492","0.0-1.0-279.0","0","0","62902","","null","","","null","30","","","","","","","","","","","","","","","NaN",""
"","S1","","html-keyboard-response","209","237656","0.0-1.0-281.0","0","0","62902","","null","","","null","31","","","","","","","","","","","","","","","",""
"","ISI","","html-keyboard-response","210","239662","0.0-1.0-282.0","0","0","62902","","537","","","68","31","d","","","","","","","","","","","","","","",""
"","S2","","html-keyboard-response","211","239836","0.0-1.0-283.0","0","0","62902","","null","","","null","31","","NaN","","","","","","","","","","","","","",""
"","response","","html-keyboard-response","212","239922","0.0-1.0-284.0-0.0","0","0","62902","","76","","","68","31","","","1","31","training","adjacent","BA","2","1","N.jpg","R.jpg","1","0","0","",""
"","feedback","","html-keyboard-response","213","240932","0.0-1.0-285.0-0.0","0","0","62902","","null","","","null","31","","","","","","","","","","","","","","","",""
"","time_out","","html-keyboard-response","214","242940","0.0-1.0-287.0-0.0","0","0","62902","","null","","","null","31","","","","","","","","","","","","","","","",""
"","ITI","","html-keyboard-response","215","243951","0.0-1.0-288.0","0","0","62902","","null","","","null","31","","","","","","","","","","","","","","","NaN",""
"","S1","","html-keyboard-response","216","244109","0.0-1.0-290.0","0","0","62902","","null","","","null","32","","","","","","","","","","","","","","","",""
"","ISI","","html-keyboard-response","217","246121","0.0-1.0-291.0","0","0","62902","","114","","","75","32","k","","","","","","","","","","","","","","",""
"","S2","","html-keyboard-response","218","246289","0.0-1.0-292.0","0","0","62902","","null","","","null","32","","NaN","","","","","","","","","","","","","",""
"","response","","html-keyboard-response","219","246374","0.0-1.0-293.0-0.0","0","0","62902","","80","","","75","32","","","1","32","training","adjacent","DC","4","3","M.jpg","O.jpg","0","0","1","",""
"","feedback","","html-keyboard-response","220","247390","0.0-1.0-294.0-0.0","0","0","62902","","null","","","null","32","","","","","","","","","","","","","","","",""
"","ITI","","html-keyboard-response","221","248398","0.0-1.0-297.0","0","0","62902","","null","","","null","32","","","","","","","","","","","","","","","NaN",""
"","S1","","html-keyboard-response","222","248556","0.0-1.0-299.0","0","0","62902","","null","","","null","33","","","","","","","","","","","","","","","",""
"","ISI","","html-keyboard-response","223","250566","0.0-1.0-300.0","0","0","62902","","null","","","null","33","NaN","","","","","","","","","","","","","","",""
"","S2","","html-keyboard-response","224","250729","0.0-1.0-301.0","0","0","62902","","null","","","null","33","","NaN","","","","","","","","","","","","","",""
"","response","","html-keyboard-response","225","251010","0.0-1.0-302.0-0.0","0","0","62902","","269","","","68","33","","","1","33","training","adjacent","GF","7","6","P.jpg","Q.jpg","1","0","0","",""
"","feedback","","html-keyboard-response","226","252022","0.0-1.0-303.0-0.0","0","0","62902","","null","","","null","33","","","","","","","","","","","","","","","",""
"","time_out","","html-keyboard-response","227","254032","0.0-1.0-305.0-0.0","0","0","62902","","null","","","null","33","","","","","","","","","","","","","","","",""
"","ITI","","html-keyboard-response","228","255042","0.0-1.0-306.0","0","0","62902","","null","","","null","33","","","","","","","","","","","","","","","NaN",""
"","S1","","html-keyboard-response","229","255206","0.0-1.0-308.0","0","0","62902","","null","","","null","34","","","","","","","","","","","","","","","",""
"","ISI","","html-keyboard-response","230","257215","0.0-1.0-309.0","0","0","62902","","null","","","null","34","NaN","","","","","","","","","","","","","","",""
"","S2","","html-keyboard-response","231","257373","0.0-1.0-310.0","0","0","62902","","null","","","null","34","","NaN","","","","","","","","","","","","","",""
"","response","","html-keyboard-response","232","257445","0.0-1.0-311.0-0.0","0","0","62902","","67","","","75","34","","","1","34","training","adjacent","CD","3","4","O.jpg","M.jpg","0","1","0","",""
"","feedback","","html-keyboard-response","233","258456","0.0-1.0-312.0-0.0","0","0","62902","","null","","","null","34","","","","","","","","","","","","","","","",""
"","time_out","","html-keyboard-response","234","260461","0.0-1.0-314.0-0.0","0","0","62902","","null","","","null","34","","","","","","","","","","","","","","","",""
"","ITI","","html-keyboard-response","235","261468","0.0-1.0-315.0","0","0","62902","","null","","","null","34","","","","","","","","","","","","","","","NaN",""
"","S1","","html-keyboard-response","236","261623","0.0-1.0-317.0","0","0","62902","","null","","","null","35","","","","","","","","","","","","","","","",""
"","ISI","","html-keyboard-response","237","263628","0.0-1.0-318.0","0","0","62902","","null","","","null","35","NaN","","","","","","","","","","","","","","",""
"","S2","","html-keyboard-response","238","263786","0.0-1.0-319.0","0","0","62902","","null","","","null","35","","NaN","","","","","","","","","","","","","",""
"","response","","html-keyboard-response","239","263907","0.0-1.0-320.0-0.0","0","0","62902","","114","","","75","35","","","1","35","training","adjacent","DE","4","5","M.jpg","L.jpg","0","1","0","",""
"","feedback","","html-keyboard-response","240","264919","0.0-1.0-321.0-0.0","0","0","62902","","null","","","null","35","","","","","","","","","","","","","","","",""
"","time_out","","html-keyboard-response","241","266926","0.0-1.0-323.0-0.0","0","0","62902","","null","","","null","35","","","","","","","","","","","","","","","",""
"","ITI","","html-keyboard-response","242","267950","0.0-1.0-324.0","0","0","62902","","null","","","null","35","","","","","","","","","","","","","","","NaN",""
"","S1","","html-keyboard-response","243","268112","0.0-1.0-326.0","0","0","62902","","null","","","null","36","","","","","","","","","","","","","","","",""
"","ISI","","html-keyboard-response","244","270122","0.0-1.0-327.0","0","0","62902","","null","","","null","36","NaN","","","","","","","","","","","","","","",""
"","S2","","html-keyboard-response","245","270278","0.0-1.0-328.0","0","0","62902","","null","","","null","36","","NaN","","","","","","","","","","","","","",""
"","response","","html-keyboard-response","246","270476","0.0-1.0-329.0-0.0","0","0","62902","","190","","","75","36","","","1","36","training","adjacent","FG","6","7","Q.jpg","P.jpg","0","1","0","",""
"","feedback","","html-keyboard-response","247","271481","0.0-1.0-330.0-0.0","0","0","62902","","null","","","null","36","","","","","","","","","","","","","","","",""
"","time_out","","html-keyboard-response","248","273486","0.0-1.0-332.0-0.0","0","0","62902","","null","","","null","36","","","","","","","","","","","","","","","",""
"","ITI","","html-keyboard-response","249","274491","0.0-1.0-333.0","0","0","62902","","null","","","null","36","","","","","","","","","","","","","","","NaN",""
"","S1","","html-keyboard-response","250","274651","0.0-1.0-335.0","0","0","62902","","null","","","null","37","","","","","","","","","","","","","","","",""
"","ISI","","html-keyboard-response","251","276659","0.0-1.0-336.0","0","0","62902","","null","","","null","37","NaN","","","","","","","","","","","","","","",""
"","S2","","html-keyboard-response","252","276818","0.0-1.0-337.0","0","0","62902","","null","","","null","37","","NaN","","","","","","","","","","","","","",""
"","response","","html-keyboard-response","253","278676","0.0-1.0-338.0-0.0","0","0","62902","","null","","","null","37","","","1","37","training","adjacent","DC","4","3","M.jpg","O.jpg","NaN","0","0","",""
"","too_slow_prompt","","html-keyboard-response","254","279685","0.0-1.0-340.0-0.0","1","0","62902","","null","","","null","","","","","","","","","","","","","","","","",""
"","time_out","","html-keyboard-response","255","281691","0.0-1.0-341.0-0.0","0","0","62902","","null","","","null","37","","","","","","","","","","","","","","","",""
"","ITI","","html-keyboard-response","256","282699","0.0-1.0-342.0","0","0","62902","","null","","","null","37","","","","","","","","","","","","","","","NaN",""
"","S1","","html-keyboard-response","257","282870","0.0-1.0-344.0","0","0","62902","","null","","","null","38","","","","","","","","","","","","","","","",""
"","ISI","","html-keyboard-response","258","284876","0.0-1.0-345.0","0","0","62902","","1218","","","75","38","k","","","","","","","","","","","","","","",""
"","S2","","html-keyboard-response","259","285036","0.0-1.0-346.0","0","0","62902","","null","","","null","38","","NaN","","","","","","","","","","","","","",""
"","response","","html-keyboard-response","260","285151","0.0-1.0-347.0-0.0","0","0","62902","","106","","","75","38","","","1","38","training","adjacent","BC","2","3","N.jpg","O.jpg","0","1","0","",""
"","feedback","","html-keyboard-response","261","286161","0.0-1.0-348.0-0.0","0","0","62902","","null","","","null","38","","","","","","","","","","","","","","","",""
"","time_out","","html-keyboard-response","262","288175","0.0-1.0-350.0-0.0","0","0","62902","","null","","","null","38","","","","","","","","","","","","","","","",""
"","ITI","","html-keyboard-response","263","289187","0.0-1.0-351.0","0","0","62902","","null","","","null","38","","","","","","","","","","","","","","","NaN",""
"","S1","","html-keyboard-response","264","289343","0.0-1.0-353.0","0","0","62902","","null","","","null","39","","","","","","","","","","","","","","","",""
"","ISI","","html-keyboard-response","265","291351","0.0-1.0-354.0","0","0","62902","","null","","","null","39","NaN","","","","","","","","","","","","","","",""
"","S2","","html-keyboard-response","266","291508","0.0-1.0-355.0","0","0","62902","","null","","","null","39","","NaN","","","","","","","","","","","","","",""
"","response","","html-keyboard-response","267","291823","0.0-1.0-356.0-0.0","0","0","62902","","305","","","75","39","","","1","39","training","adjacent","FE","6","5","Q.jpg","L.jpg","0","0","1","",""
"","feedback","","html-keyboard-response","268","292833","0.0-1.0-357.0-0.0","0","0","62902","","null","","","null","39","","","","","","","","","","","","","","","",""
"","ITI","","html-keyboard-response","269","293839","0.0-1.0-360.0","0","0","62902","","null","","","null","39","","","","","","","","","","","","","","","NaN",""
"","S1","","html-keyboard-response","270","294001","0.0-1.0-362.0","0","0","62902","","null","","","null","40","","","","","","","","","","","","","","","",""
"","ISI","","html-keyboard-response","271","296021","0.0-1.0-363.0","0","0","62902","","null","","","null","40","NaN","","","","","","","","","","","","","","",""
"","S2","","html-keyboard-response","272","296177","0.0-1.0-364.0","0","0","62902","","null","","","null","40","","NaN","","","","","","","","","","","","","",""
"","response","","html-keyboard-response","273","297200","0.0-1.0-365.0-0.0","0","0","62902","","1021","","","75","40","","","1","40","training","adjacent","DE","4","5","M.jpg","L.jpg","0","1","0","",""
"","feedback","","html-keyboard-response","274","298208","0.0-1.0-366.0-0.0","0","0","62902","","null","","","null","40","","","","","","","","","","","","","","","",""
"","time_out","","html-keyboard-response","275","300219","0.0-1.0-368.0-0.0","0","0","62902","","null","","","null","40","","","","","","","","","","","","","","","",""
"","ITI","","html-keyboard-response","276","301233","0.0-1.0-369.0","0","0","62902","","null","","","null","40","","","","","","","","","","","","","","","NaN",""
"","S1","","html-keyboard-response","277","301390","0.0-1.0-371.0","0","0","62902","","null","","","null","41","","","","","","","","","","","","","","","",""
"","ISI","","html-keyboard-response","278","303401","0.0-1.0-372.0","0","0","62902","","null","","","null","41","NaN","","","","","","","","","","","","","","",""
"","S2","","html-keyboard-response","279","303557","0.0-1.0-373.0","0","0","62902","","null","","","null","41","","NaN","","","","","","","","","","","","","",""
"","response","","html-keyboard-response","280","303825","0.0-1.0-374.0-0.0","0","0","62902","","266","","","68","41","","","1","41","training","adjacent","FE","6","5","Q.jpg","L.jpg","1","0","0","",""
"","feedback","","html-keyboard-response","281","304832","0.0-1.0-375.0-0.0","0","0","62902","","null","","","null","41","","","","","","","","","","","","","","","",""
"","time_out","","html-keyboard-response","282","306841","0.0-1.0-377.0-0.0","0","0","62902","","null","","","null","41","","","","","","","","","","","","","","","",""
"","ITI","","html-keyboard-response","283","307855","0.0-1.0-378.0","0","0","62902","","null","","","null","41","","","","","","","","","","","","","","","NaN",""
"","S1","","html-keyboard-response","284","308013","0.0-1.0-380.0","0","0","62902","","null","","","null","42","","","","","","","","","","","","","","","",""
"","ISI","","html-keyboard-response","285","310022","0.0-1.0-381.0","0","0","62902","","null","","","null","42","NaN","","","","","","","","","","","","","","",""
"","S2","","html-keyboard-response","286","310178","0.0-1.0-382.0","0","0","62902","","null","","","null","42","","NaN","","","","","","","","","","","","","",""
"","response","","html-keyboard-response","287","310383","0.0-1.0-383.0-0.0","0","0","62902","","194","","","75","42","","","1","42","training","adjacent","CD","3","4","O.jpg","M.jpg","0","1","0","",""
"","feedback","","html-keyboard-response","288","311406","0.0-1.0-384.0-0.0","0","0","62902","","null","","","null","42","","","","","","","","","","","","","","","",""
"","time_out","","html-keyboard-response","289","313416","0.0-1.0-386.0-0.0","0","0","62902","","null","","","null","42","","","","","","","","","","","","","","","",""
"","ITI","","html-keyboard-response","290","314422","0.0-1.0-387.0","0","0","62902","","null","","","null","42","","","","","","","","","","","","","","","NaN",""
"","S1","","html-keyboard-response","291","314583","0.0-1.0-389.0","0","0","62902","","null","","","null","43","","","","","","","","","","","","","","","",""
"","ISI","","html-keyboard-response","292","316590","0.0-1.0-390.0","0","0","62902","","null","","","null","43","NaN","","","","","","","","","","","","","","",""
"","S2","","html-keyboard-response","293","316758","0.0-1.0-391.0","0","0","62902","","null","","","null","43","","NaN","","","","","","","","","","","","","",""
"","response","","html-keyboard-response","294","316887","0.0-1.0-392.0-0.0","0","0","62902","","117","","","75","43","","","1","43","training","adjacent","DE","4","5","M.jpg","L.jpg","0","1","0","",""
"","feedback","","html-keyboard-response","295","317899","0.0-1.0-393.0-0.0","0","0","62902","","null","","","null","43","","","","","","","","","","","","","","","",""
"","time_out","","html-keyboard-response","296","319909","0.0-1.0-395.0-0.0","0","0","62902","","null","","","null","43","","","","","","","","","","","","","","","",""
"","ITI","","html-keyboard-response","297","320918","0.0-1.0-396.0","0","0","62902","","null","","","null","43","","","","","","","","","","","","","","","NaN",""
"","S1","","html-keyboard-response","298","321076","0.0-1.0-398.0","0","0","62902","","null","","","null","44","","","","","","","","","","","","","","","",""
"","ISI","","html-keyboard-response","299","323079","0.0-1.0-399.0","0","0","62902","","null","","","null","44","NaN","","","","","","","","","","","","","","",""
"","S2","","html-keyboard-response","300","323242","0.0-1.0-400.0","0","0","62902","","null","","","null","44","","NaN","","","","","","","","","","","","","",""
"","response","","html-keyboard-response","301","323303","0.0-1.0-401.0-0.0","0","0","62902","","53","","","75","44","","","1","44","training","adjacent","FE","6","5","Q.jpg","L.jpg","0","0","1","",""
"","feedback","","html-keyboard-response","302","324312","0.0-1.0-402.0-0.0","0","0","62902","","null","","","null","44","","","","","","","","","","","","","","","",""
"","ITI","","html-keyboard-response","303","325324","0.0-1.0-405.0","0","0","62902","","null","","","null","44","","","","","","","","","","","","","","","NaN",""
"","S1","","html-keyboard-response","304","325481","0.0-1.0-407.0","0","0","62902","","null","","","null","45","","","","","","","","","","","","","","","",""
"","ISI","","html-keyboard-response","305","327484","0.0-1.0-408.0","0","0","62902","","null","","","null","45","NaN","","","","","","","","","","","","","","",""
"","S2","","html-keyboard-response","306","327641","0.0-1.0-409.0","0","0","62902","","null","","","null","45","","NaN","","","","","","","","","","","","","",""
"","response","","html-keyboard-response","307","327902","0.0-1.0-410.0-0.0","0","0","62902","","253","","","75","45","","","1","45","training","adjacent","EF","5","6","L.jpg","Q.jpg","0","1","0","",""
"","feedback","","html-keyboard-response","308","328910","0.0-1.0-411.0-0.0","0","0","62902","","null","","","null","45","","","","","","","","","","","","","","","",""
"","time_out","","html-keyboard-response","309","330920","0.0-1.0-413.0-0.0","0","0","62902","","null","","","null","45","","","","","","","","","","","","","","","",""
"","ITI","","html-keyboard-response","310","331923","0.0-1.0-414.0","0","0","62902","","null","","","null","45","","","","","","","","","","","","","","","NaN",""
"","S1","","html-keyboard-response","311","332076","0.0-1.0-416.0","0","0","62902","","null","","","null","46","","","","","","","","","","","","","","","",""
"","ISI","","html-keyboard-response","312","334085","0.0-1.0-417.0","0","0","62902","","null","","","null","46","NaN","","","","","","","","","","","","","","",""
"","S2","","html-keyboard-response","313","334241","0.0-1.0-418.0","0","0","62902","","null","","","null","46","","NaN","","","","","","","","","","","","","",""
"","response","","html-keyboard-response","314","334293","0.0-1.0-419.0-0.0","0","0","62902","","46","","","75","46","","","1","46","training","adjacent","DE","4","5","M.jpg","L.jpg","0","1","0","",""
"","feedback","","html-keyboard-response","315","335299","0.0-1.0-420.0-0.0","0","0","62902","","null","","","null","46","","","","","","","","","","","","","","","",""
"","time_out","","html-keyboard-response","316","337310","0.0-1.0-422.0-0.0","0","0","62902","","null","","","null","46","","","","","","","","","","","","","","","",""
"","ITI","","html-keyboard-response","317","338313","0.0-1.0-423.0","0","0","62902","","null","","","null","46","","","","","","","","","","","","","","","NaN",""
"","S1","","html-keyboard-response","318","338483","0.0-1.0-425.0","0","0","62902","","null","","","null","47","","","","","","","","","","","","","","","",""
"","ISI","","html-keyboard-response","319","340489","0.0-1.0-426.0","0","0","62902","","null","","","null","47","NaN","","","","","","","","","","","","","","",""
"","S2","","html-keyboard-response","320","340646","0.0-1.0-427.0","0","0","62902","","null","","","null","47","","NaN","","","","","","","","","","","","","",""
"","response","","html-keyboard-response","321","340836","0.0-1.0-428.0-0.0","0","0","62902","","176","","","68","47","","","1","47","training","adjacent","AB","1","2","R.jpg","N.jpg","1","1","1","",""
"","feedback","","html-keyboard-response","322","341853","0.0-1.0-429.0-0.0","0","0","62902","","null","","","null","47","","","","","","","","","","","","","","","",""
"","ITI","","html-keyboard-response","323","342860","0.0-1.0-432.0","0","0","62902","","null","","","null","47","","","","","","","","","","","","","","","NaN",""
"","block_over","","html-keyboard-response","324","348687","0.0-1.0-433.0-0.0","0","0","62902","","5815","","","32","47","","","","","","","","","","","","","","","",""
"","S1","","html-keyboard-response","325","348844","0.0-1.0-434.0","0","0","62902","","null","","","null","48","","","","","","","","","","","","","","","",""
"","ISI","","html-keyboard-response","326","350853","0.0-1.0-435.0","0","0","62902","","410","","","68","48","d","","","","","","","","","","","","","","",""
"","S2","","html-keyboard-response","327","351010","0.0-1.0-436.0","0","0","62902","","null","","","null","48","","NaN","","","","","","","","","","","","","",""
"","response","","html-keyboard-response","328","351174","0.0-1.0-437.0-0.0","0","0","62902","","155","","","68","48","","","2","48","training","adjacent","BA","2","1","N.jpg","R.jpg","1","0","0","",""
"","feedback","","html-keyboard-response","329","352187","0.0-1.0-438.0-0.0","0","0","62902","","null","","","null","48","","","","","","","","","","","","","","","",""
"","time_out","","html-keyboard-response","330","354191","0.0-1.0-440.0-0.0","0","0","62902","","null","","","null","48","","","","","","","","","","","","","","","",""
"","ITI","","html-keyboard-response","331","355206","0.0-1.0-441.0","0","0","62902","","null","","","null","48","","","","","","","","","","","","","","","NaN",""
"","S1","","html-keyboard-response","332","355380","0.0-1.0-443.0","0","0","62902","","null","","","null","49","","","","","","","","","","","","","","","",""
"","ISI","","html-keyboard-response","333","357386","0.0-1.0-444.0","0","0","62902","","211","","","75","49","k","","","","","","","","","","","","","","",""
"","S2","","html-keyboard-response","334","357542","0.0-1.0-445.0","0","0","62902","","null","","","null","49","","NaN","","","","","","","","","","","","","",""
"","response","","html-keyboard-response","335","357693","0.0-1.0-446.0-0.0","0","0","62902","","144","","","75","49","","","2","49","training","adjacent","EF","5","6","L.jpg","Q.jpg","0","1","0","",""
"","feedback","","html-keyboard-response","336","358702","0.0-1.0-447.0-0.0","0","0","62902","","null","","","null","49","","","","","","","","","","","","","","","",""
"","time_out","","html-keyboard-response","337","360709","0.0-1.0-449.0-0.0","0","0","62902","","null","","","null","49","","","","","","","","","","","","","","","",""
"","ITI","","html-keyboard-response","338","361719","0.0-1.0-450.0","0","0","62902","","null","","","null","49","","","","","","","","","","","","","","","NaN",""
"","S1","","html-keyboard-response","339","361876","0.0-1.0-452.0","0","0","62902","","null","","","null","50","","","","","","","","","","","","","","","",""
"","ISI","","html-keyboard-response","340","363890","0.0-1.0-453.0","0","0","62902","","null","","","null","50","NaN","","","","","","","","","","","","","","",""
"","S2","","html-keyboard-response","341","364051","0.0-1.0-454.0","0","0","62902","","null","","","null","50","","NaN","","","","","","","","","","","","","",""
"","response","","html-keyboard-response","342","364236","0.0-1.0-455.0-0.0","0","0","62902","","173","","","68","50","","","2","50","training","adjacent","FE","6","5","Q.jpg","L.jpg","1","0","0","",""
"","feedback","","html-keyboard-response","343","365245","0.0-1.0-456.0-0.0","0","0","62902","","null","","","null","50","","","","","","","","","","","","","","","",""
"","time_out","","html-keyboard-response","344","367256","0.0-1.0-458.0-0.0","0","0","62902","","null","","","null","50","","","","","","","","","","","","","","","",""
"","ITI","","html-keyboard-response","345","368265","0.0-1.0-459.0","0","0","62902","","null","","","null","50","","","","","","","","","","","","","","","NaN",""
"","S1","","html-keyboard-response","346","368423","0.0-1.0-461.0","0","0","62902","","null","","","null","51","","","","","","","","","","","","","","","",""
"","ISI","","html-keyboard-response","347","370426","0.0-1.0-462.0","0","0","62902","","442","","","68","51","d","","","","","","","","","","","","","","",""
"","S2","","html-keyboard-response","348","370578","0.0-1.0-463.0","0","0","62902","","null","","","null","51","","NaN","","","","","","","","","","","","","",""
"","response","","html-keyboard-response","349","370688","0.0-1.0-464.0-0.0","0","0","62902","","108","","","68","51","","","2","51","training","adjacent","AB","1","2","R.jpg","N.jpg","1","1","1","",""
"","feedback","","html-keyboard-response","350","371691","0.0-1.0-465.0-0.0","0","0","62902","","null","","","null","51","","","","","","","","","","","","","","","",""
"","ITI","","html-keyboard-response","351","372693","0.0-1.0-468.0","0","0","62902","","403","","","68","51","","","","","","","","","","","","","","","d",""
"","S1","","html-keyboard-response","352","372846","0.0-1.0-470.0","0","0","62902","","null","","","null","52","","","","","","","","","","","","","","","",""
"","ISI","","html-keyboard-response","353","374848","0.0-1.0-471.0","0","0","62902","","560","","","68","52","d","","","","","","","","","","","","","","",""
"","S2","","html-keyboard-response","354","375000","0.0-1.0-472.0","0","0","62902","","null","","","null","52","","NaN","","","","","","","","","","","","","",""
"","response","","html-keyboard-response","355","375775","0.0-1.0-473.0-0.0","0","0","62902","","773","","","68","52","","","2","52","training","adjacent","BC","2","3","N.jpg","O.jpg","1","1","1","",""
"","feedback","","html-keyboard-response","356","376778","0.0-1.0-474.0-0.0","0","0","62902","","null","","","null","52","","","","","","","","","","","","","","","",""
"","ITI","","html-keyboard-response","357","377781","0.0-1.0-477.0","0","0","62902","","163","","","68","52","","","","","","","","","","","","","","","d",""
"","S1","","html-keyboard-response","358","377935","0.0-1.0-479.0","0","0","62902","","null","","","null","53","","","","","","","","","","","","","","","",""
"","ISI","","html-keyboard-response","359","379937","0.0-1.0-480.0","0","0","62902","","71","","","68","53","d","","","","","","","","","","","","","","",""
"","S2","","html-keyboard-response","360","380091","0.0-1.0-481.0","0","0","62902","","null","","","null","53","","NaN","","","","","","","","","","","","","",""
"","response","","html-keyboard-response","361","380112","0.0-1.0-482.0-0.0","0","0","62902","","19","","","68","53","","","2","53","training","adjacent","GF","7","6","P.jpg","Q.jpg","1","0","0","",""
"","feedback","","html-keyboard-response","362","381115","0.0-1.0-483.0-0.0","0","0","62902","","null","","","null","53","","","","","","","","","","","","","","","",""
"","time_out","","html-keyboard-response","363","383120","0.0-1.0-485.0-0.0","0","0","62902","","null","","","null","53","","","","","","","","","","","","","","","",""
"","ITI","","html-keyboard-response","364","384123","0.0-1.0-486.0","0","0","62902","","22","","","68","53","","","","","","","","","","","","","","","d",""
"","S1","","html-keyboard-response","365","384280","0.0-1.0-488.0","0","0","62902","","null","","","null","54","","","","","","","","","","","","","","","",""
"","ISI","","html-keyboard-response","366","386287","0.0-1.0-489.0","0","0","62902","","45","","","68","54","d","","","","","","","","","","","","","","",""
"","S2","","html-keyboard-response","367","386448","0.0-1.0-490.0","0","0","62902","","null","","","null","54","","NaN","","","","","","","","","","","","","",""
"","response","","html-keyboard-response","368","386508","0.0-1.0-491.0-0.0","0","0","62902","","53","","","68","54","","","2","54","training","adjacent","ED","5","4","L.jpg","M.jpg","1","0","0","",""
"","feedback","","html-keyboard-response","369","387522","0.0-1.0-492.0-0.0","0","0","62902","","null","","","null","54","","","","","","","","","","","","","","","",""
"","time_out","","html-keyboard-response","370","389531","0.0-1.0-494.0-0.0","0","0","62902","","null","","","null","54","","","","","","","","","","","","","","","",""
"","ITI","","html-keyboard-response","371","390539","0.0-1.0-495.0","0","0","62902","","242","","","68","54","","","","","","","","","","","","","","","d",""
"","S1","","html-keyboard-response","372","390699","0.0-1.0-497.0","0","0","62902","","null","","","null","55","","","","","","","","","","","","","","","",""
"","ISI","","html-keyboard-response","373","392702","0.0-1.0-498.0","0","0","62902","","166","","","68","55","d","","","","","","","","","","","","","","",""
"","S2","","html-keyboard-response","374","392855","0.0-1.0-499.0","0","0","62902","","null","","","null","55","","NaN","","","","","","","","","","","","","",""
"","response","","html-keyboard-response","375","392880","0.0-1.0-500.0-0.0","0","0","62902","","23","","","68","55","","","2","55","training","adjacent","DC","4","3","M.jpg","O.jpg","1","0","0","",""
"","feedback","","html-keyboard-response","376","393883","0.0-1.0-501.0-0.0","0","0","62902","","null","","","null","55","","","","","","","","","","","","","","","",""
"","time_out","","html-keyboard-response","377","395888","0.0-1.0-503.0-0.0","0","0","62902","","null","","","null","55","","","","","","","","","","","","","","","",""
"","ITI","","html-keyboard-response","378","396894","0.0-1.0-504.0","0","0","62902","","null","","","null","55","","","","","","","","","","","","","","","NaN",""
"","S1","","html-keyboard-response","379","397056","0.0-1.0-506.0","0","0","62902","","null","","","null","56","","","","","","","","","","","","","","","",""
"","ISI","","html-keyboard-response","380","399070","0.0-1.0-507.0","0","0","62902","","569","","","68","56","d","","","","","","","","","","","","","","",""
"","S2","","html-keyboard-response","381","399223","0.0-1.0-508.0","0","0","62902","","144","","","68","56","","d","2","56","training","adjacent","CB","3","2","O.jpg","N.jpg","1","0","0","",""
"","feedback","","html-keyboard-response","382","400236","0.0-1.0-510.0-0.0","0","0","62902","","null","","","null","56","","","","","","","","","","","","","","","",""
"","time_out","","html-keyboard-response","383","402243","0.0-1.0-512.0-0.0","0","0","62902","","null","","","null","56","","","","","","","","","","","","","","","",""
"","ITI","","html-keyboard-response","384","403249","0.0-1.0-513.0","0","0","62902","","null","","","null","56","","","","","","","","","","","","","","","NaN",""
"","S1","","html-keyboard-response","385","403402","0.0-1.0-515.0","0","0","62902","","null","","","null","57","","","","","","","","","","","","","","","",""
"","ISI","","html-keyboard-response","386","405405","0.0-1.0-516.0","0","0","62902","","336","","","75","57","k","","","","","","","","","","","","","","",""
"","S2","","html-keyboard-response","387","405440","0.0-1.0-517.0","0","0","62902","","32","","","75","57","","k","2","57","training","adjacent","EF","5","6","L.jpg","Q.jpg","0","1","0","",""
"","feedback","","html-keyboard-response","388","406446","0.0-1.0-519.0-0.0","0","0","62902","","null","","","null","57","","","","","","","","","","","","","","","",""
"","time_out","","html-keyboard-response","389","408457","0.0-1.0-521.0-0.0","0","0","62902","","null","","","null","57","","","","","","","","","","","","","","","",""
"","ITI","","html-keyboard-response","390","409461","0.0-1.0-522.0","0","0","62902","","434","","","68","57","","","","","","","","","","","","","","","d",""
"","S1","","html-keyboard-response","391","409619","0.0-1.0-524.0","0","0","62902","","null","","","null","58","","","","","","","","","","","","","","","",""
"","ISI","","html-keyboard-response","392","411628","0.0-1.0-525.0","0","0","62902","","154","","","68","58","d","","","","","","","","","","","","","","",""
"","S2","","html-keyboard-response","393","411754","0.0-1.0-526.0","0","0","62902","","114","","","68","58","","d","2","58","training","adjacent","BC","2","3","N.jpg","O.jpg","1","1","1","",""
"","feedback","","html-keyboard-response","394","412761","0.0-1.0-528.0-0.0","0","0","62902","","null","","","null","58","","","","","","","","","","","","","","","",""
"","ITI","","html-keyboard-response","395","413787","0.0-1.0-531.0","0","0","62902","","593","","","68","58","","","","","","","","","","","","","","","d",""
"","S1","","html-keyboard-response","396","413954","0.0-1.0-533.0","0","0","62902","","null","","","null","59","","","","","","","","","","","","","","","",""
"","ISI","","html-keyboard-response","397","415968","0.0-1.0-534.0","0","0","62902","","301","","","68","59","d","","","","","","","","","","","","","","",""
"","S2","","html-keyboard-response","398","416033","0.0-1.0-535.0","0","0","62902","","61","","","68","59","","d","2","59","training","adjacent","DC","4","3","M.jpg","O.jpg","1","0","0","",""
"","feedback","","html-keyboard-response","399","417038","0.0-1.0-537.0-0.0","0","0","62902","","null","","","null","59","","","","","","","","","","","","","","","",""
"","time_out","","html-keyboard-response","400","419044","0.0-1.0-539.0-0.0","0","0","62902","","null","","","null","59","","","","","","","","","","","","","","","",""
"","ITI","","html-keyboard-response","401","420054","0.0-1.0-540.0","0","0","62902","","46","","","68","59","","","","","","","","","","","","","","","d",""
"","S1","","html-keyboard-response","402","420211","0.0-1.0-542.0","0","0","62902","","null","","","null","60","","","","","","","","","","","","","","","",""
"","ISI","","html-keyboard-response","403","422221","0.0-1.0-543.0","0","0","62902","","132","","","68","60","d","","","","","","","","","","","","","","",""
"","S2","","html-keyboard-response","404","422274","0.0-1.0-544.0","0","0","62902","","45","","","68","60","","d","2","60","training","adjacent","GF","7","6","P.jpg","Q.jpg","1","0","0","",""
"","feedback","","html-keyboard-response","405","423281","0.0-1.0-546.0-0.0","0","0","62902","","null","","","null","60","","","","","","","","","","","","","","","",""
"","time_out","","html-keyboard-response","406","425286","0.0-1.0-548.0-0.0","0","0","62902","","null","","","null","60","","","","","","","","","","","","","","","",""
"","ITI","","html-keyboard-response","407","426291","0.0-1.0-549.0","0","0","62902","","8","","","75","60","","","","","","","","","","","","","","","k",""
"","S1","","html-keyboard-response","408","426452","0.0-1.0-551.0","0","0","62902","","null","","","null","61","","","","","","","","","","","","","","","",""
"","ISI","","html-keyboard-response","409","428456","0.0-1.0-552.0","0","0","62902","","75","","","68","61","d","","","","","","","","","","","","","","",""
"","S2","","html-keyboard-response","410","428576","0.0-1.0-553.0","0","0","62902","","118","","","68","61","","d","2","61","training","adjacent","FE","6","5","Q.jpg","L.jpg","1","0","0","",""
"","feedback","","html-keyboard-response","411","429581","0.0-1.0-555.0-0.0","0","0","62902","","null","","","null","61","","","","","","","","","","","","","","","",""
"","time_out","","html-keyboard-response","412","431585","0.0-1.0-557.0-0.0","0","0","62902","","null","","","null","61","","","","","","","","","","","","","","","",""
"","ITI","","html-keyboard-response","413","432591","0.0-1.0-558.0","0","0","62902","","22","","","68","61","","","","","","","","","","","","","","","d",""
"","S1","","html-keyboard-response","414","432750","0.0-1.0-560.0","0","0","62902","","null","","","null","62","","","","","","","","","","","","","","","",""
"","ISI","","html-keyboard-response","415","434757","0.0-1.0-561.0","0","0","62902","","114","","","68","62","d","","","","","","","","","","","","","","",""
"","S2","","html-keyboard-response","416","434792","0.0-1.0-562.0","0","0","62902","","27","","","75","62","","k","2","62","training","adjacent","DE","4","5","M.jpg","L.jpg","0","1","0","",""
"","feedback","","html-keyboard-response","417","435801","0.0-1.0-564.0-0.0","0","0","62902","","null","","","null","62","","","","","","","","","","","","","","","",""
"","time_out","","html-keyboard-response","418","437806","0.0-1.0-566.0-0.0","0","0","62902","","null","","","null","62","","","","","","","","","","","","","","","",""
"","ITI","","html-keyboard-response","419","438816","0.0-1.0-567.0","0","0","62902","","73","","","75","62","","","","","","","","","","","","","","","k",""
"","S1","","html-keyboard-response","420","438982","0.0-1.0-569.0","0","0","62902","","null","","","null","63","","","","","","","","","","","","","","","",""
"","ISI","","html-keyboard-response","421","440989","0.0-1.0-570.0","0","0","62902","","138","","","68","63","d","","","","","","","","","","","","","","",""
"","S2","","html-keyboard-response","422","441060","0.0-1.0-571.0","0","0","62902","","60","","","75","63","","k","2","63","training","adjacent","DC","4","3","M.jpg","O.jpg","0","0","1","",""
"","feedback","","html-keyboard-response","423","442075","0.0-1.0-573.0-0.0","0","0","62902","","null","","","null","63","","","","","","","","","","","","","","","",""
"","ITI","","html-keyboard-response","424","443083","0.0-1.0-576.0","0","0","62902","","127","","","75","63","","","","","","","","","","","","","","","k",""
"","S1","","html-keyboard-response","425","443237","0.0-1.0-578.0","0","0","62902","","null","","","null","64","","","","","","","","","","","","","","","",""
"","ISI","","html-keyboard-response","426","445242","0.0-1.0-579.0","0","0","62902","","82","","","68","64","d","","","","","","","","","","","","","","",""
"","S2","","html-keyboard-response","427","445298","0.0-1.0-580.0","0","0","62902","","52","","","75","64","","k","2","64","training","adjacent","DE","4","5","M.jpg","L.jpg","0","1","0","",""
"","feedback","","html-keyboard-response","428","446306","0.0-1.0-582.0-0.0","0","0","62902","","null","","","null","64","","","","","","","","","","","","","","","",""
"","time_out","","html-keyboard-response","429","448316","0.0-1.0-584.0-0.0","0","0","62902","","null","","","null","64","","","","","","","","","","","","","","","",""
"","ITI","","html-keyboard-response","430","449321","0.0-1.0-585.0","0","0","62902","","355","","","68","64","","","","","","","","","","","","","","","d",""
"","S1","","html-keyboard-response","431","449478","0.0-1.0-587.0","0","0","62902","","null","","","null","65","","","","","","","","","","","","","","","",""
"","ISI","","html-keyboard-response","432","451488","0.0-1.0-588.0","0","0","62902","","32","","","68","65","d","","","","","","","","","","","","","","",""
"","S2","","html-keyboard-response","433","451521","0.0-1.0-589.0","0","0","62902","","23","","","68","65","","d","2","65","training","adjacent","EF","5","6","L.jpg","Q.jpg","1","1","1","",""
"","feedback","","html-keyboard-response","434","452534","0.0-1.0-591.0-0.0","0","0","62902","","null","","","null","65","","","","","","","","","","","","","","","",""
"","ITI","","html-keyboard-response","435","453541","0.0-1.0-594.0","0","0","62902","","102","","","68","65","","","","","","","","","","","","","","","d",""
"","S1","","html-keyboard-response","436","453695","0.0-1.0-596.0","0","0","62902","","null","","","null","66","","","","","","","","","","","","","","","",""
"","ISI","","html-keyboard-response","437","455700","0.0-1.0-597.0","0","0","62902","","80","","","68","66","d","","","","","","","","","","","","","","",""
"","S2","","html-keyboard-response","438","455822","0.0-1.0-598.0","0","0","62902","","116","","","68","66","","d","2","66","training","adjacent","CD","3","4","O.jpg","M.jpg","1","1","1","",""
"","feedback","","html-keyboard-response","439","456829","0.0-1.0-600.0-0.0","0","0","62902","","null","","","null","66","","","","","","","","","","","","","","","",""
"","ITI","","html-keyboard-response","440","457842","0.0-1.0-603.0","0","0","62902","","143","","","68","66","","","","","","","","","","","","","","","d",""
"","S1","","html-keyboard-response","441","458005","0.0-1.0-605.0","0","0","62902","","null","","","null","67","","","","","","","","","","","","","","","",""
"","ISI","","html-keyboard-response","442","460011","0.0-1.0-606.0","0","0","62902","","66","","","68","67","d","","","","","","","","","","","","","","",""
"","S2","","html-keyboard-response","443","460088","0.0-1.0-607.0","0","0","62902","","63","","","68","67","","d","2","67","training","adjacent","GF","7","6","P.jpg","Q.jpg","1","0","0","",""
"","feedback","","html-keyboard-response","444","461098","0.0-1.0-609.0-0.0","0","0","62902","","null","","","null","67","","","","","","","","","","","","","","","",""
"","time_out","","html-keyboard-response","445","463108","0.0-1.0-611.0-0.0","0","0","62902","","null","","","null","67","","","","","","","","","","","","","","","",""
"","ITI","","html-keyboard-response","446","464117","0.0-1.0-612.0","0","0","62902","","29","","","68","67","","","","","","","","","","","","","","","d",""
"","S1","","html-keyboard-response","447","464276","0.0-1.0-614.0","0","0","62902","","null","","","null","68","","","","","","","","","","","","","","","",""
"","ISI","","html-keyboard-response","448","466286","0.0-1.0-615.0","0","0","62902","","59","","","68","68","d","","","","","","","","","","","","","","",""
"","S2","","html-keyboard-response","449","466383","0.0-1.0-616.0","0","0","62902","","88","","","68","68","","d","2","68","training","adjacent","CB","3","2","O.jpg","N.jpg","1","0","0","",""
"","feedback","","html-keyboard-response","450","467394","0.0-1.0-618.0-0.0","0","0","62902","","null","","","null","68","","","","","","","","","","","","","","","",""
"","time_out","","html-keyboard-response","451","469407","0.0-1.0-620.0-0.0","0","0","62902","","null","","","null","68","","","","","","","","","","","","","","","",""
"","ITI","","html-keyboard-response","452","470416","0.0-1.0-621.0","0","0","62902","","127","","","68","68","","","","","","","","","","","","","","","d",""
"","S1","","html-keyboard-response","453","470574","0.0-1.0-623.0","0","0","62902","","null","","","null","69","","","","","","","","","","","","","","","",""
"","ISI","","html-keyboard-response","454","472582","0.0-1.0-624.0","0","0","62902","","66","","","68","69","d","","","","","","","","","","","","","","",""
"","S2","","html-keyboard-response","455","472640","0.0-1.0-625.0","0","0","62902","","48","","","68","69","","d","2","69","training","adjacent","FG","6","7","Q.jpg","P.jpg","1","1","1","",""
"","feedback","","html-keyboard-response","456","473648","0.0-1.0-627.0-0.0","0","0","62902","","null","","","null","69","","","","","","","","","","","","","","","",""
"","ITI","","html-keyboard-response","457","474655","0.0-1.0-630.0","0","0","62902","","120","","","68","69","","","","","","","","","","","","","","","d",""
"","S1","","html-keyboard-response","458","474812","0.0-1.0-632.0","0","0","62902","","null","","","null","70","","","","","","","","","","","","","","","",""
"","ISI","","html-keyboard-response","459","476822","0.0-1.0-633.0","0","0","62902","","71","","","68","70","d","","","","","","","","","","","","","","",""
"","S2","","html-keyboard-response","460","476936","0.0-1.0-634.0","0","0","62902","","105","","","68","70","","d","2","70","training","adjacent","EF","5","6","L.jpg","Q.jpg","1","1","1","",""
"","feedback","","html-keyboard-response","461","477946","0.0-1.0-636.0-0.0","0","0","62902","","null","","","null","70","","","","","","","","","","","","","","","",""
"","ITI","","html-keyboard-response","462","478958","0.0-1.0-639.0","0","0","62902","","68","","","68","70","","","","","","","","","","","","","","","d",""
"","S1","","html-keyboard-response","463","479112","0.0-1.0-641.0","0","0","62902","","null","","","null","71","","","","","","","","","","","","","","","",""
"","ISI","","html-keyboard-response","464","481123","0.0-1.0-642.0","0","0","62902","","1","","","68","71","d","","","","","","","","","","","","","","",""
"","S2","","html-keyboard-response","465","481279","0.0-1.0-643.0","0","0","62902","","null","","","null","71","","NaN","","","","","","","","","","","","","",""
"","response","","html-keyboard-response","466","481343","0.0-1.0-644.0-0.0","0","0","62902","","59","","","68","71","","","2","71","training","adjacent","BC","2","3","N.jpg","O.jpg","1","1","1","",""
"","feedback","","html-keyboard-response","467","482354","0.0-1.0-645.0-0.0","0","0","62902","","null","","","null","71","","","","","","","","","","","","","","","",""
"","ITI","","html-keyboard-response","468","483359","0.0-1.0-648.0","0","0","62902","","78","","","68","71","","","","","","","","","","","","","","","d",""
"","S1","","html-keyboard-response","469","483516","0.0-1.0-650.0","0","0","62902","","null","","","null","72","","","","","","","","","","","","","","","",""
"","ISI","","html-keyboard-response","470","485522","0.0-1.0-651.0","0","0","62902","","203","","","68","72","d","","","","","","","","","","","","","","",""
"","S2","","html-keyboard-response","471","485681","0.0-1.0-652.0","0","0","62902","","null","","","null","72","","NaN","","","","","","","","","","","","","",""
"","response","","html-keyboard-response","472","485708","0.0-1.0-653.0-0.0","0","0","62902","","20","","","68","72","","","2","72","training","adjacent","AB","1","2","R.jpg","N.jpg","1","1","1","",""
"","feedback","","html-keyboard-response","473","486713","0.0-1.0-654.0-0.0","0","0","62902","","null","","","null","72","","","","","","","","","","","","","","","",""
"","ITI","","html-keyboard-response","474","487717","0.0-1.0-657.0","0","0","62902","","100","","","68","72","","","","","","","","","","","","","","","d",""
"","S1","","html-keyboard-response","475","487869","0.0-1.0-659.0","0","0","62902","","null","","","null","73","","","","","","","","","","","","","","","",""
"","ISI","","html-keyboard-response","476","489875","0.0-1.0-660.0","0","0","62902","","9","","","68","73","d","","","","","","","","","","","","","","",""
"","S2","","html-keyboard-response","477","490037","0.0-1.0-661.0","0","0","62902","","null","","","null","73","","NaN","","","","","","","","","","","","","",""
"","response","","html-keyboard-response","478","490059","0.0-1.0-662.0-0.0","0","0","62902","","18","","","68","73","","","2","73","training","adjacent","CD","3","4","O.jpg","M.jpg","1","1","1","",""
"","feedback","","html-keyboard-response","479","491070","0.0-1.0-663.0-0.0","0","0","62902","","null","","","null","73","","","","","","","","","","","","","","","",""
"","ITI","","html-keyboard-response","480","492076","0.0-1.0-666.0","0","0","62902","","56","","","68","73","","","","","","","","","","","","","","","d",""
"","S1","","html-keyboard-response","481","492238","0.0-1.0-668.0","0","0","62902","","null","","","null","74","","","","","","","","","","","","","","","",""
"","ISI","","html-keyboard-response","482","494243","0.0-1.0-669.0","0","0","62902","","194","","","68","74","d","","","","","","","","","","","","","","",""
"","S2","","html-keyboard-response","483","494403","0.0-1.0-670.0","0","0","62902","","null","","","null","74","","NaN","","","","","","","","","","","","","",""
"","response","","html-keyboard-response","484","494428","0.0-1.0-671.0-0.0","0","0","62902","","19","","","68","74","","","2","74","training","adjacent","BA","2","1","N.jpg","R.jpg","1","0","0","",""
"","feedback","","html-keyboard-response","485","495437","0.0-1.0-672.0-0.0","0","0","62902","","null","","","null","74","","","","","","","","","","","","","","","",""
"","time_out","","html-keyboard-response","486","497444","0.0-1.0-674.0-0.0","0","0","62902","","null","","","null","74","","","","","","","","","","","","","","","",""
"","ITI","","html-keyboard-response","487","498451","0.0-1.0-675.0","0","0","62902","","38","","","68","74","","","","","","","","","","","","","","","d",""
"","S1","","html-keyboard-response","488","498609","0.0-1.0-677.0","0","0","62902","","null","","","null","75","","","","","","","","","","","","","","","",""
"","ISI","","html-keyboard-response","489","500614","0.0-1.0-678.0","0","0","62902","","145","","","68","75","d","","","","","","","","","","","","","","",""
"","S2","","html-keyboard-response","490","500705","0.0-1.0-679.0","0","0","62902","","84","","","68","75","","d","2","75","training","adjacent","FE","6","5","Q.jpg","L.jpg","1","0","0","",""
"","feedback","","html-keyboard-response","491","501717","0.0-1.0-681.0-0.0","0","0","62902","","null","","","null","75","","","","","","","","","","","","","","","",""
"","time_out","","html-keyboard-response","492","503727","0.0-1.0-683.0-0.0","0","0","62902","","null","","","null","75","","","","","","","","","","","","","","","",""
"","ITI","","html-keyboard-response","493","504735","0.0-1.0-684.0","0","0","62902","","4","","","68","75","","","","","","","","","","","","","","","d",""
"","S1","","html-keyboard-response","494","504891","0.0-1.0-686.0","0","0","62902","","null","","","null","76","","","","","","","","","","","","","","","",""
"","ISI","","html-keyboard-response","495","506899","0.0-1.0-687.0","0","0","62902","","130","","","68","76","d","","","","","","","","","","","","","","",""
"","S2","","html-keyboard-response","496","507015","0.0-1.0-688.0","0","0","62902","","106","","","68","76","","d","2","76","training","adjacent","CD","3","4","O.jpg","M.jpg","1","1","1","",""
"","feedback","","html-keyboard-response","497","508024","0.0-1.0-690.0-0.0","0","0","62902","","null","","","null","76","","","","","","","","","","","","","","","",""
"","ITI","","html-keyboard-response","498","509029","0.0-1.0-693.0","0","0","62902","","100","","","68","76","","","","","","","","","","","","","","","d",""
"","S1","","html-keyboard-response","499","509188","0.0-1.0-695.0","0","0","62902","","null","","","null","77","","","","","","","","","","","","","","","",""
"","ISI","","html-keyboard-response","500","511199","0.0-1.0-696.0","0","0","62902","","165","","","68","77","d","","","","","","","","","","","","","","",""
"","S2","","html-keyboard-response","501","511325","0.0-1.0-697.0","0","0","62902","","118","","","68","77","","d","2","77","training","adjacent","ED","5","4","L.jpg","M.jpg","1","0","0","",""
"","feedback","","html-keyboard-response","502","512332","0.0-1.0-699.0-0.0","0","0","62902","","null","","","null","77","","","","","","","","","","","","","","","",""
"","time_out","","html-keyboard-response","503","514339","0.0-1.0-701.0-0.0","0","0","62902","","null","","","null","77","","","","","","","","","","","","","","","",""
"","ITI","","html-keyboard-response","504","515343","0.0-1.0-702.0","0","0","62902","","211","","","68","77","","","","","","","","","","","","","","","d",""
"","S1","","html-keyboard-response","505","515497","0.0-1.0-704.0","0","0","62902","","null","","","null","78","","","","","","","","","","","","","","","",""
"","ISI","","html-keyboard-response","506","517504","0.0-1.0-705.0","0","0","62902","","791","","","68","78","d","","","","","","","","","","","","","","",""
"","S2","","html-keyboard-response","507","517661","0.0-1.0-706.0","0","0","62902","","null","","","null","78","","NaN","","","","","","","","","","","","","",""
"","response","","html-keyboard-response","508","517708","0.0-1.0-707.0-0.0","0","0","62902","","38","","","68","78","","","2","78","training","adjacent","DE","4","5","M.jpg","L.jpg","1","1","1","",""
"","feedback","","html-keyboard-response","509","518720","0.0-1.0-708.0-0.0","0","0","62902","","null","","","null","78","","","","","","","","","","","","","","","",""
"","ITI","","html-keyboard-response","510","519727","0.0-1.0-711.0","0","0","62902","","121","","","68","78","","","","","","","","","","","","","","","d",""
"","S1","","html-keyboard-response","511","519892","0.0-1.0-713.0","0","0","62902","","null","","","null","79","","","","","","","","","","","","","","","",""
"","ISI","","html-keyboard-response","512","521902","0.0-1.0-714.0","0","0","62902","","44","","","68","79","d","","","","","","","","","","","","","","",""
"","S2","","html-keyboard-response","513","521999","0.0-1.0-715.0","0","0","62902","","87","","","68","79","","d","2","79","training","adjacent","DE","4","5","M.jpg","L.jpg","1","1","1","",""
"","feedback","","html-keyboard-response","514","523011","0.0-1.0-717.0-0.0","0","0","62902","","null","","","null","79","","","","","","","","","","","","","","","",""
"","ITI","","html-keyboard-response","515","524023","0.0-1.0-720.0","0","0","62902","","57","","","68","79","","","","","","","","","","","","","","","d",""
"","S1","","html-keyboard-response","516","524183","0.0-1.0-722.0","0","0","62902","","null","","","null","80","","","","","","","","","","","","","","","",""
"","ISI","","html-keyboard-response","517","526189","0.0-1.0-723.0","0","0","62902","","70","","","68","80","d","","","","","","","","","","","","","","",""
"","S2","","html-keyboard-response","518","526361","0.0-1.0-724.0","0","0","62902","","null","","","null","80","","NaN","","","","","","","","","","","","","",""
"","response","","html-keyboard-response","519","526377","0.0-1.0-725.0-0.0","0","0","62902","","9","","","68","80","","","2","80","training","adjacent","ED","5","4","L.jpg","M.jpg","1","0","0","",""
"","feedback","","html-keyboard-response","520","527386","0.0-1.0-726.0-0.0","0","0","62902","","null","","","null","80","","","","","","","","","","","","","","","",""
"","time_out","","html-keyboard-response","521","529394","0.0-1.0-728.0-0.0","0","0","62902","","null","","","null","80","","","","","","","","","","","","","","","",""
"","ITI","","html-keyboard-response","522","530404","0.0-1.0-729.0","0","0","62902","","158","","","68","80","","","","","","","","","","","","","","","d",""
"","S1","","html-keyboard-response","523","530566","0.0-1.0-731.0","0","0","62902","","null","","","null","81","","","","","","","","","","","","","","","",""
"","ISI","","html-keyboard-response","524","532574","0.0-1.0-732.0","0","0","62902","","153","","","68","81","d","","","","","","","","","","","","","","",""
"","S2","","html-keyboard-response","525","532632","0.0-1.0-733.0","0","0","62902","","49","","","68","81","","d","2","81","training","adjacent","FE","6","5","Q.jpg","L.jpg","1","0","0","",""
"","feedback","","html-keyboard-response","526","533642","0.0-1.0-735.0-0.0","0","0","62902","","null","","","null","81","","","","","","","","","","","","","","","",""
"","time_out","","html-keyboard-response","527","535652","0.0-1.0-737.0-0.0","0","0","62902","","null","","","null","81","","","","","","","","","","","","","","","",""
"","ITI","","html-keyboard-response","528","536659","0.0-1.0-738.0","0","0","62902","","133","","","75","81","","","","","","","","","","","","","","","k",""
"","S1","","html-keyboard-response","529","536820","0.0-1.0-740.0","0","0","62902","","null","","","null","82","","","","","","","","","","","","","","","",""
"","ISI","","html-keyboard-response","530","538826","0.0-1.0-741.0","0","0","62902","","110","","","75","82","k","","","","","","","","","","","","","","",""
"","S2","","html-keyboard-response","531","538984","0.0-1.0-742.0","0","0","62902","","149","","","75","82","","k","2","82","training","adjacent","CD","3","4","O.jpg","M.jpg","0","1","0","",""
"","feedback","","html-keyboard-response","532","540000","0.0-1.0-744.0-0.0","0","0","62902","","null","","","null","82","","","","","","","","","","","","","","","",""
"","time_out","","html-keyboard-response","533","542011","0.0-1.0-746.0-0.0","0","0","62902","","null","","","null","82","","","","","","","","","","","","","","","",""
"","ITI","","html-keyboard-response","534","543020","0.0-1.0-747.0","0","0","62902","","68","","","75","82","","","","","","","","","","","","","","","k",""
"","S1","","html-keyboard-response","535","543178","0.0-1.0-749.0","0","0","62902","","null","","","null","83","","","","","","","","","","","","","","","",""
"","ISI","","html-keyboard-response","536","545201","0.0-1.0-750.0","0","0","62902","","132","","","75","83","k","","","","","","","","","","","","","","",""
"","S2","","html-keyboard-response","537","545341","0.0-1.0-751.0","0","0","62902","","134","","","75","83","","k","2","83","training","adjacent","AB","1","2","R.jpg","N.jpg","0","1","0","",""
"","feedback","","html-keyboard-response","538","546355","0.0-1.0-753.0-0.0","0","0","62902","","null","","","null","83","","","","","","","","","","","","","","","",""
"","time_out","","html-keyboard-response","539","548362","0.0-1.0-755.0-0.0","0","0","62902","","null","","","null","83","","","","","","","","","","","","","","","",""
"","ITI","","html-keyboard-response","540","549373","0.0-1.0-756.0","0","0","62902","","136","","","68","83","","","","","","","","","","","","","","","d",""
"","S1","","html-keyboard-response","541","549533","0.0-1.0-758.0","0","0","62902","","null","","","null","84","","","","","","","","","","","","","","","",""
"","ISI","","html-keyboard-response","542","551541","0.0-1.0-759.0","0","0","62902","","188","","","68","84","d","","","","","","","","","","","","","","",""
"","S2","","html-keyboard-response","543","551702","0.0-1.0-760.0","0","0","62902","","null","","","null","84","","NaN","","","","","","","","","","","","","",""
"","response","","html-keyboard-response","544","551757","0.0-1.0-761.0-0.0","0","0","62902","","43","","","68","84","","","2","84","training","adjacent","GF","7","6","P.jpg","Q.jpg","1","0","0","",""
"","feedback","","html-keyboard-response","545","552768","0.0-1.0-762.0-0.0","0","0","62902","","null","","","null","84","","","","","","","","","","","","","","","",""
"","time_out","","html-keyboard-response","546","554806","0.0-1.0-764.0-0.0","0","0","62902","","null","","","null","84","","","","","","","","","","","","","","","",""
"","ITI","","html-keyboard-response","547","555816","0.0-1.0-765.0","0","0","62902","","194","","","68","84","","","","","","","","","","","","","","","d",""
"","S1","","html-keyboard-response","548","555974","0.0-1.0-767.0","0","0","62902","","null","","","null","85","","","","","","","","","","","","","","","",""
"","ISI","","html-keyboard-response","549","557985","0.0-1.0-768.0","0","0","62902","","59","","","68","85","d","","","","","","","","","","","","","","",""
"","S2","","html-keyboard-response","550","558144","0.0-1.0-769.0","0","0","62902","","null","","","null","85","","NaN","","","","","","","","","","","","","",""
"","response","","html-keyboard-response","551","559439","0.0-1.0-770.0-0.0","0","0","62902","","1285","","","68","85","","","2","85","training","adjacent","BC","2","3","N.jpg","O.jpg","1","1","1","",""
"","feedback","","html-keyboard-response","552","560444","0.0-1.0-771.0-0.0","0","0","62902","","null","","","null","85","","","","","","","","","","","","","","","",""
"","ITI","","html-keyboard-response","553","561453","0.0-1.0-774.0","0","0","62902","","null","","","null","85","","","","","","","","","","","","","","","NaN",""
"","S1","","html-keyboard-response","554","561610","0.0-1.0-776.0","0","0","62902","","null","","","null","86","","","","","","","","","","","","","","","",""
"","ISI","","html-keyboard-response","555","563618","0.0-1.0-777.0","0","0","62902","","776","","","75","86","k","","","","","","","","","","","","","","",""
"","S2","","html-keyboard-response","556","563775","0.0-1.0-778.0","0","0","62902","","null","","","null","86","","NaN","","","","","","","","","","","","","",""
"","response","","html-keyboard-response","557","563888","0.0-1.0-779.0-0.0","0","0","62902","","105","","","68","86","","","2","86","training","adjacent","ED","5","4","L.jpg","M.jpg","1","0","0","",""
"","feedback","","html-keyboard-response","558","564900","0.0-1.0-780.0-0.0","0","0","62902","","null","","","null","86","","","","","","","","","","","","","","","",""
"","time_out","","html-keyboard-response","559","566911","0.0-1.0-782.0-0.0","0","0","62902","","null","","","null","86","","","","","","","","","","","","","","","",""
"","ITI","","html-keyboard-response","560","567921","0.0-1.0-783.0","0","0","62902","","88","","","75","86","","","","","","","","","","","","","","","k",""
"","S1","","html-keyboard-response","561","568079","0.0-1.0-785.0","0","0","62902","","null","","","null","87","","","","","","","","","","","","","","","",""
"","ISI","","html-keyboard-response","562","570089","0.0-1.0-786.0","0","0","62902","","39","","","68","87","d","","","","","","","","","","","","","","",""
"","S2","","html-keyboard-response","563","570167","0.0-1.0-787.0","0","0","62902","","68","","","68","87","","d","2","87","training","adjacent","DC","4","3","M.jpg","O.jpg","1","0","0","",""
"","feedback","","html-keyboard-response","564","571177","0.0-1.0-789.0-0.0","0","0","62902","","null","","","null","87","","","","","","","","","","","","","","","",""
"","time_out","","html-keyboard-response","565","573187","0.0-1.0-791.0-0.0","0","0","62902","","null","","","null","87","","","","","","","","","","","","","","","",""
"","ITI","","html-keyboard-response","566","574204","0.0-1.0-792.0","0","0","62902","","125","","","68","87","","","","","","","","","","","","","","","d",""
"","S1","","html-keyboard-response","567","574365","0.0-1.0-794.0","0","0","62902","","null","","","null","88","","","","","","","","","","","","","","","",""
"","ISI","","html-keyboard-response","568","576369","0.0-1.0-795.0","0","0","62902","","234","","","68","88","d","","","","","","","","","","","","","","",""
"","S2","","html-keyboard-response","569","576524","0.0-1.0-796.0","0","0","62902","","null","","","null","88","","NaN","","","","","","","","","","","","","",""
"","response","","html-keyboard-response","570","576532","0.0-1.0-797.0-0.0","0","0","62902","","2","","","68","88","","","2","88","training","adjacent","BA","2","1","N.jpg","R.jpg","1","0","0","",""
"","feedback","","html-keyboard-response","571","577539","0.0-1.0-798.0-0.0","0","0","62902","","null","","","null","88","","","","","","","","","","","","","","","",""
"","time_out","","html-keyboard-response","572","579548","0.0-1.0-800.0-0.0","0","0","62902","","null","","","null","88","","","","","","","","","","","","","","","",""
"","ITI","","html-keyboard-response","573","580557","0.0-1.0-801.0","0","0","62902","","238","","","68","88","","","","","","","","","","","","","","","d",""
"","S1","","html-keyboard-response","574","580716","0.0-1.0-803.0","0","0","62902","","null","","","null","89","","","","","","","","","","","","","","","",""
"","ISI","","html-keyboard-response","575","582723","0.0-1.0-804.0","0","0","62902","","18","","","68","89","d","","","","","","","","","","","","","","",""
"","S2","","html-keyboard-response","576","582874","0.0-1.0-805.0","0","0","62902","","145","","","68","89","","d","2","89","training","adjacent","CB","3","2","O.jpg","N.jpg","1","0","0","",""
"","feedback","","html-keyboard-response","577","583885","0.0-1.0-807.0-0.0","0","0","62902","","null","","","null","89","","","","","","","","","","","","","","","",""
"","time_out","","html-keyboard-response","578","585892","0.0-1.0-809.0-0.0","0","0","62902","","null","","","null","89","","","","","","","","","","","","","","","",""
"","ITI","","html-keyboard-response","579","586911","0.0-1.0-810.0","0","0","62902","","218","","","68","89","","","","","","","","","","","","","","","d",""
"","S1","","html-keyboard-response","580","587074","0.0-1.0-812.0","0","0","62902","","null","","","null","90","","","","","","","","","","","","","","","",""
"","ISI","","html-keyboard-response","581","589082","0.0-1.0-813.0","0","0","62902","","181","","","68","90","d","","","","","","","","","","","","","","",""
"","S2","","html-keyboard-response","582","589158","0.0-1.0-814.0","0","0","62902","","68","","","68","90","","d","2","90","training","adjacent","FG","6","7","Q.jpg","P.jpg","1","1","1","",""
"","feedback","","html-keyboard-response","583","590172","0.0-1.0-816.0-0.0","0","0","62902","","null","","","null","90","","","","","","","","","","","","","","","",""
"","ITI","","html-keyboard-response","584","591181","0.0-1.0-819.0","0","0","62902","","152","","","68","90","","","","","","","","","","","","","","","d",""
"","S1","","html-keyboard-response","585","591341","0.0-1.0-821.0","0","0","62902","","null","","","null","91","","","","","","","","","","","","","","","",""
"","ISI","","html-keyboard-response","586","593349","0.0-1.0-822.0","0","0","62902","","157","","","68","91","d","","","","","","","","","","","","","","",""
