"success","ttype","start_time","trial_type","trial_index","time_elapsed","internal_node_id","warning","missed_checkup","PID","view_history","rt","responses","repeat_instructions","key_press","index","keypress_isi","keypress_S2","block","trial_num","phase","group_type","pair_type","S1_stim","S2_stim","S1_img","S2_img","S1_chosen","S1_higher","accuracy","keypress_iti","total_bonus_tally"
"true","full_screen","d04132023hr1815","fullscreen","0","12727","0.0-0.0","0","0","33604","","","","","","","","","","","","","","","","","","","","","",""
"","instructions","","instructions","1","928024","0.0-1.0-0.0-0.0","0","0","33604","[{""page_index"":0,""viewing_time"":910468},{""page_index"":1,""viewing_time"":3133},{""page_index"":2,""viewing_time"":856},{""page_index"":3,""viewing_time"":834}]","915292","","","","","","","","","","","","","","","","","","","",""
"","comprehension_check","","survey-multi-choice","2","943025","0.0-1.0-0.0-1.0","0","0","33604","","14993","{""Q0"":""True"",""Q1"":""D"",""Q2"":""Once the second image appears and while the screen 'MAKE A CHOICE' is shown"",""Q3"":""Green mark"",""Q4"":""either D or K""}","0","","","","","","","","","","","","","","","","","",""
"","start_exp","","html-keyboard-response","3","944796","0.0-1.0-1.0","0","0","33604","","1766","","","32","","","","","","","","","","","","","","","","",""
"","S1","","html-keyboard-response","4","945050","0.0-1.0-2.0","0","0","33604","","null","","","null","0","","","","","","","","","","","","","","","",""
"","ISI","","html-keyboard-response","5","946053","0.0-1.0-3.0","0","0","33604","","null","","","null","0","NaN","","","","","","","","","","","","","","",""
"","S2","","html-keyboard-response","6","946311","0.0-1.0-4.0","0","0","33604","","null","","","null","0","","NaN","","","","","","","","","","","","","",""
"","response","","html-keyboard-response","7","947421","0.0-1.0-5.0-0.0","0","0","33604","","1103","","","75","0","","","1","0","training","adjacent","DC","4","3","Q.jpg","N.jpg","0","0","1","",""
"","feedback","","html-keyboard-response","8","948425","0.0-1.0-6.0-0.0","0","0","33604","","null","","","null","0","","","","","","","","","","","","","","","",""
"","ITI","","html-keyboard-response","9","949433","0.0-1.0-9.0","0","0","33604","","null","","","null","0","","","","","","","","","","","","","","","NaN",""
"","S1","","html-keyboard-response","10","949692","0.0-1.0-11.0","0","0","33604","","null","","","null","1","","","","","","","","","","","","","","","",""
"","ISI","","html-keyboard-response","11","950699","0.0-1.0-12.0","0","0","33604","","null","","","null","1","NaN","","","","","","","","","","","","","","",""
"","S2","","html-keyboard-response","12","950957","0.0-1.0-13.0","0","0","33604","","null","","","null","1","","NaN","","","","","","","","","","","","","",""
"","response","","html-keyboard-response","13","951067","0.0-1.0-14.0-0.0","0","0","33604","","106","","","68","1","","","1","1","training","adjacent","FG","6","7","M.jpg","O.jpg","1","1","1","",""
"","feedback","","html-keyboard-response","14","952077","0.0-1.0-15.0-0.0","0","0","33604","","null","","","null","1","","","","","","","","","","","","","","","",""
"","ITI","","html-keyboard-response","15","953083","0.0-1.0-18.0","0","0","33604","","null","","","null","1","","","","","","","","","","","","","","","NaN",""
"","S1","","html-keyboard-response","16","953346","0.0-1.0-20.0","0","0","33604","","null","","","null","2","","","","","","","","","","","","","","","",""
"","ISI","","html-keyboard-response","17","954354","0.0-1.0-21.0","0","0","33604","","null","","","null","2","NaN","","","","","","","","","","","","","","",""
"","S2","","html-keyboard-response","18","954610","0.0-1.0-22.0","0","0","33604","","null","","","null","2","","NaN","","","","","","","","","","","","","",""
"","response","","html-keyboard-response","19","955915","0.0-1.0-23.0-0.0","0","0","33604","","1303","","","68","2","","","1","2","training","adjacent","FG","6","7","M.jpg","O.jpg","1","1","1","",""
"","feedback","","html-keyboard-response","20","956923","0.0-1.0-24.0-0.0","0","0","33604","","null","","","null","2","","","","","","","","","","","","","","","",""
"","ITI","","html-keyboard-response","21","957928","0.0-1.0-27.0","0","0","33604","","null","","","null","2","","","","","","","","","","","","","","","NaN",""
"","S1","","html-keyboard-response","22","958185","0.0-1.0-29.0","0","0","33604","","null","","","null","3","","","","","","","","","","","","","","","",""
"","ISI","","html-keyboard-response","23","959191","0.0-1.0-30.0","0","0","33604","","null","","","null","3","NaN","","","","","","","","","","","","","","",""
"","S2","","html-keyboard-response","24","959447","0.0-1.0-31.0","0","0","33604","","null","","","null","3","","NaN","","","","","","","","","","","","","",""
"","response","","html-keyboard-response","25","959811","0.0-1.0-32.0-0.0","0","0","33604","","361","","","68","3","","","1","3","training","adjacent","BC","2","3","L.jpg","N.jpg","1","1","1","",""
"","feedback","","html-keyboard-response","26","960827","0.0-1.0-33.0-0.0","0","0","33604","","null","","","null","3","","","","","","","","","","","","","","","",""
"","ITI","","html-keyboard-response","27","961837","0.0-1.0-36.0","0","0","33604","","null","","","null","3","","","","","","","","","","","","","","","NaN",""
"","S1","","html-keyboard-response","28","962090","0.0-1.0-38.0","0","0","33604","","null","","","null","4","","","","","","","","","","","","","","","",""
"","ISI","","html-keyboard-response","29","963095","0.0-1.0-39.0","0","0","33604","","null","","","null","4","NaN","","","","","","","","","","","","","","",""
"","S2","","html-keyboard-response","30","963352","0.0-1.0-40.0","0","0","33604","","null","","","null","4","","NaN","","","","","","","","","","","","","",""
"","response","","html-keyboard-response","31","963595","0.0-1.0-41.0-0.0","0","0","33604","","240","","","68","4","","","1","4","training","adjacent","FG","6","7","M.jpg","O.jpg","1","1","1","",""
"","feedback","","html-keyboard-response","32","964599","0.0-1.0-42.0-0.0","0","0","33604","","null","","","null","4","","","","","","","","","","","","","","","",""
"","ITI","","html-keyboard-response","33","965606","0.0-1.0-45.0","0","0","33604","","null","","","null","4","","","","","","","","","","","","","","","NaN",""
"","S1","","html-keyboard-response","34","965873","0.0-1.0-47.0","0","0","33604","","null","","","null","5","","","","","","","","","","","","","","","",""
"","ISI","","html-keyboard-response","35","966878","0.0-1.0-48.0","0","0","33604","","null","","","null","5","NaN","","","","","","","","","","","","","","",""
"","S2","","html-keyboard-response","36","967140","0.0-1.0-49.0","0","0","33604","","null","","","null","5","","NaN","","","","","","","","","","","","","",""
"","response","","html-keyboard-response","37","967356","0.0-1.0-50.0-0.0","0","0","33604","","212","","","68","5","","","1","5","training","adjacent","DC","4","3","Q.jpg","N.jpg","1","0","0","",""
"","feedback","","html-keyboard-response","38","968362","0.0-1.0-51.0-0.0","0","0","33604","","null","","","null","5","","","","","","","","","","","","","","","",""
"","time_out","","html-keyboard-response","39","970366","0.0-1.0-53.0-0.0","0","0","33604","","null","","","null","5","","","","","","","","","","","","","","","",""
"","ITI","","html-keyboard-response","40","971369","0.0-1.0-54.0","0","0","33604","","330","","","68","5","","","","","","","","","","","","","","","d",""
"","S1","","html-keyboard-response","41","971622","0.0-1.0-56.0","0","0","33604","","null","","","null","6","","","","","","","","","","","","","","","",""
"","ISI","","html-keyboard-response","42","972626","0.0-1.0-57.0","0","0","33604","","null","","","null","6","NaN","","","","","","","","","","","","","","",""
"","S2","","html-keyboard-response","43","972880","0.0-1.0-58.0","0","0","33604","","null","","","null","6","","NaN","","","","","","","","","","","","","",""
"","response","","html-keyboard-response","44","973387","0.0-1.0-59.0-0.0","0","0","33604","","504","","","68","6","","","1","6","training","adjacent","FE","6","5","M.jpg","P.jpg","1","0","0","",""
"","feedback","","html-keyboard-response","45","974392","0.0-1.0-60.0-0.0","0","0","33604","","null","","","null","6","","","","","","","","","","","","","","","",""
"","time_out","","html-keyboard-response","46","976396","0.0-1.0-62.0-0.0","0","0","33604","","null","","","null","6","","","","","","","","","","","","","","","",""
"","ITI","","html-keyboard-response","47","977400","0.0-1.0-63.0","0","0","33604","","null","","","null","6","","","","","","","","","","","","","","","NaN",""
"","S1","","html-keyboard-response","48","977653","0.0-1.0-65.0","0","0","33604","","null","","","null","7","","","","","","","","","","","","","","","",""
"","ISI","","html-keyboard-response","49","978656","0.0-1.0-66.0","0","0","33604","","null","","","null","7","NaN","","","","","","","","","","","","","","",""
"","S2","","html-keyboard-response","50","978911","0.0-1.0-67.0","0","0","33604","","null","","","null","7","","NaN","","","","","","","","","","","","","",""
"","response","","html-keyboard-response","51","979251","0.0-1.0-68.0-0.0","0","0","33604","","337","","","68","7","","","1","7","training","adjacent","CD","3","4","N.jpg","Q.jpg","1","1","1","",""
"","feedback","","html-keyboard-response","52","980259","0.0-1.0-69.0-0.0","0","0","33604","","null","","","null","7","","","","","","","","","","","","","","","",""
"","ITI","","html-keyboard-response","53","981267","0.0-1.0-72.0","0","0","33604","","null","","","null","7","","","","","","","","","","","","","","","NaN",""
"","S1","","html-keyboard-response","54","981528","0.0-1.0-74.0","0","0","33604","","null","","","null","8","","","","","","","","","","","","","","","",""
"","ISI","","html-keyboard-response","55","982536","0.0-1.0-75.0","0","0","33604","","null","","","null","8","NaN","","","","","","","","","","","","","","",""
"","S2","","html-keyboard-response","56","982794","0.0-1.0-76.0","0","0","33604","","null","","","null","8","","NaN","","","","","","","","","","","","","",""
"","response","","html-keyboard-response","57","982907","0.0-1.0-77.0-0.0","0","0","33604","","108","","","68","8","","","1","8","training","adjacent","BA","2","1","L.jpg","R.jpg","1","0","0","",""
"","feedback","","html-keyboard-response","58","983914","0.0-1.0-78.0-0.0","0","0","33604","","null","","","null","8","","","","","","","","","","","","","","","",""
"","time_out","","html-keyboard-response","59","985917","0.0-1.0-80.0-0.0","0","0","33604","","null","","","null","8","","","","","","","","","","","","","","","",""
"","ITI","","html-keyboard-response","60","986926","0.0-1.0-81.0","0","0","33604","","null","","","null","8","","","","","","","","","","","","","","","NaN",""
"","S1","","html-keyboard-response","61","987181","0.0-1.0-83.0","0","0","33604","","null","","","null","9","","","","","","","","","","","","","","","",""
"","ISI","","html-keyboard-response","62","988197","0.0-1.0-84.0","0","0","33604","","null","","","null","9","NaN","","","","","","","","","","","","","","",""
"","S2","","html-keyboard-response","63","988471","0.0-1.0-85.0","0","0","33604","","null","","","null","9","","NaN","","","","","","","","","","","","","",""
"","response","","html-keyboard-response","64","988486","0.0-1.0-86.0-0.0","0","0","33604","","9","","","75","9","","","1","9","training","adjacent","GF","7","6","O.jpg","M.jpg","0","0","1","",""
"","feedback","","html-keyboard-response","65","989500","0.0-1.0-87.0-0.0","0","0","33604","","null","","","null","9","","","","","","","","","","","","","","","",""
"","ITI","","html-keyboard-response","66","990507","0.0-1.0-90.0","0","0","33604","","null","","","null","9","","","","","","","","","","","","","","","NaN",""
"","S1","","html-keyboard-response","67","990761","0.0-1.0-92.0","0","0","33604","","null","","","null","10","","","","","","","","","","","","","","","",""
"","ISI","","html-keyboard-response","68","991766","0.0-1.0-93.0","0","0","33604","","null","","","null","10","NaN","","","","","","","","","","","","","","",""
"","S2","","html-keyboard-response","69","992022","0.0-1.0-94.0","0","0","33604","","null","","","null","10","","NaN","","","","","","","","","","","","","",""
"","response","","html-keyboard-response","70","992340","0.0-1.0-95.0-0.0","0","0","33604","","313","","","75","10","","","1","10","training","adjacent","CD","3","4","N.jpg","Q.jpg","0","1","0","",""
"","feedback","","html-keyboard-response","71","993344","0.0-1.0-96.0-0.0","0","0","33604","","null","","","null","10","","","","","","","","","","","","","","","",""
"","time_out","","html-keyboard-response","72","995351","0.0-1.0-98.0-0.0","0","0","33604","","null","","","null","10","","","","","","","","","","","","","","","",""
"","ITI","","html-keyboard-response","73","996358","0.0-1.0-99.0","0","0","33604","","null","","","null","10","","","","","","","","","","","","","","","NaN",""
"","S1","","html-keyboard-response","74","996613","0.0-1.0-101.0","0","0","33604","","null","","","null","11","","","","","","","","","","","","","","","",""
"","ISI","","html-keyboard-response","75","997617","0.0-1.0-102.0","0","0","33604","","null","","","null","11","NaN","","","","","","","","","","","","","","",""
"","S2","","html-keyboard-response","76","997870","0.0-1.0-103.0","0","0","33604","","null","","","null","11","","NaN","","","","","","","","","","","","","",""
"","response","","html-keyboard-response","77","998195","0.0-1.0-104.0-0.0","0","0","33604","","321","","","68","11","","","1","11","training","adjacent","AB","1","2","R.jpg","L.jpg","1","1","1","",""
"","feedback","","html-keyboard-response","78","999200","0.0-1.0-105.0-0.0","0","0","33604","","null","","","null","11","","","","","","","","","","","","","","","",""
"","ITI","","html-keyboard-response","79","1000207","0.0-1.0-108.0","0","0","33604","","null","","","null","11","","","","","","","","","","","","","","","NaN",""
"","S1","","html-keyboard-response","80","1000463","0.0-1.0-110.0","0","0","33604","","null","","","null","12","","","","","","","","","","","","","","","",""
"","ISI","","html-keyboard-response","81","1001473","0.0-1.0-111.0","0","0","33604","","null","","","null","12","NaN","","","","","","","","","","","","","","",""
"","S2","","html-keyboard-response","82","1001729","0.0-1.0-112.0","0","0","33604","","null","","","null","12","","NaN","","","","","","","","","","","","","",""
"","response","","html-keyboard-response","83","1001956","0.0-1.0-113.0-0.0","0","0","33604","","223","","","68","12","","","1","12","training","adjacent","BC","2","3","L.jpg","N.jpg","1","1","1","",""
"","feedback","","html-keyboard-response","84","1002962","0.0-1.0-114.0-0.0","0","0","33604","","null","","","null","12","","","","","","","","","","","","","","","",""
"","ITI","","html-keyboard-response","85","1003967","0.0-1.0-117.0","0","0","33604","","null","","","null","12","","","","","","","","","","","","","","","NaN",""
"","S1","","html-keyboard-response","86","1004225","0.0-1.0-119.0","0","0","33604","","null","","","null","13","","","","","","","","","","","","","","","",""
"","ISI","","html-keyboard-response","87","1005229","0.0-1.0-120.0","0","0","33604","","null","","","null","13","NaN","","","","","","","","","","","","","","",""
"","S2","","html-keyboard-response","88","1005485","0.0-1.0-121.0","0","0","33604","","null","","","null","13","","NaN","","","","","","","","","","","","","",""
"","response","","html-keyboard-response","89","1005747","0.0-1.0-122.0-0.0","0","0","33604","","258","","","75","13","","","1","13","training","adjacent","CD","3","4","N.jpg","Q.jpg","0","1","0","",""
"","feedback","","html-keyboard-response","90","1006751","0.0-1.0-123.0-0.0","0","0","33604","","null","","","null","13","","","","","","","","","","","","","","","",""
"","time_out","","html-keyboard-response","91","1008755","0.0-1.0-125.0-0.0","0","0","33604","","null","","","null","13","","","","","","","","","","","","","","","",""
"","ITI","","html-keyboard-response","92","1009759","0.0-1.0-126.0","0","0","33604","","null","","","null","13","","","","","","","","","","","","","","","NaN",""
"","S1","","html-keyboard-response","93","1010012","0.0-1.0-128.0","0","0","33604","","null","","","null","14","","","","","","","","","","","","","","","",""
"","ISI","","html-keyboard-response","94","1011016","0.0-1.0-129.0","0","0","33604","","null","","","null","14","NaN","","","","","","","","","","","","","","",""
"","S2","","html-keyboard-response","95","1011271","0.0-1.0-130.0","0","0","33604","","null","","","null","14","","NaN","","","","","","","","","","","","","",""
"","response","","html-keyboard-response","96","1011314","0.0-1.0-131.0-0.0","0","0","33604","","40","","","68","14","","","1","14","training","adjacent","DE","4","5","Q.jpg","P.jpg","1","1","1","",""
"","feedback","","html-keyboard-response","97","1012318","0.0-1.0-132.0-0.0","0","0","33604","","null","","","null","14","","","","","","","","","","","","","","","",""
"","ITI","","html-keyboard-response","98","1013324","0.0-1.0-135.0","0","0","33604","","null","","","null","14","","","","","","","","","","","","","","","NaN",""
"","S1","","html-keyboard-response","99","1013594","0.0-1.0-137.0","0","0","33604","","null","","","null","15","","","","","","","","","","","","","","","",""
"","ISI","","html-keyboard-response","100","1014597","0.0-1.0-138.0","0","0","33604","","null","","","null","15","NaN","","","","","","","","","","","","","","",""
"","S2","","html-keyboard-response","101","1014856","0.0-1.0-139.0","0","0","33604","","null","","","null","15","","NaN","","","","","","","","","","","","","",""
"","response","","html-keyboard-response","102","1015209","0.0-1.0-140.0-0.0","0","0","33604","","350","","","68","15","","","1","15","training","adjacent","BA","2","1","L.jpg","R.jpg","1","0","0","",""
"","feedback","","html-keyboard-response","103","1016214","0.0-1.0-141.0-0.0","0","0","33604","","null","","","null","15","","","","","","","","","","","","","","","",""
"","time_out","","html-keyboard-response","104","1018220","0.0-1.0-143.0-0.0","0","0","33604","","null","","","null","15","","","","","","","","","","","","","","","",""
"","ITI","","html-keyboard-response","105","1019223","0.0-1.0-144.0","0","0","33604","","null","","","null","15","","","","","","","","","","","","","","","NaN",""
"","S1","","html-keyboard-response","106","1019482","0.0-1.0-146.0","0","0","33604","","null","","","null","16","","","","","","","","","","","","","","","",""
"","ISI","","html-keyboard-response","107","1020486","0.0-1.0-147.0","0","0","33604","","null","","","null","16","NaN","","","","","","","","","","","","","","",""
"","S2","","html-keyboard-response","108","1020739","0.0-1.0-148.0","0","0","33604","","null","","","null","16","","NaN","","","","","","","","","","","","","",""
"","response","","html-keyboard-response","109","1021002","0.0-1.0-149.0-0.0","0","0","33604","","259","","","68","16","","","1","16","training","adjacent","DE","4","5","Q.jpg","P.jpg","1","1","1","",""
"","feedback","","html-keyboard-response","110","1022013","0.0-1.0-150.0-0.0","0","0","33604","","null","","","null","16","","","","","","","","","","","","","","","",""
"","ITI","","html-keyboard-response","111","1023019","0.0-1.0-153.0","0","0","33604","","null","","","null","16","","","","","","","","","","","","","","","NaN",""
"","S1","","html-keyboard-response","112","1023276","0.0-1.0-155.0","0","0","33604","","null","","","null","17","","","","","","","","","","","","","","","",""
"","ISI","","html-keyboard-response","113","1024284","0.0-1.0-156.0","0","0","33604","","null","","","null","17","NaN","","","","","","","","","","","","","","",""
"","S2","","html-keyboard-response","114","1024539","0.0-1.0-157.0","0","0","33604","","null","","","null","17","","NaN","","","","","","","","","","","","","",""
"","response","","html-keyboard-response","115","1024809","0.0-1.0-158.0-0.0","0","0","33604","","267","","","75","17","","","1","17","training","adjacent","AB","1","2","R.jpg","L.jpg","0","1","0","",""
"","feedback","","html-keyboard-response","116","1025816","0.0-1.0-159.0-0.0","0","0","33604","","null","","","null","17","","","","","","","","","","","","","","","",""
"","time_out","","html-keyboard-response","117","1027821","0.0-1.0-161.0-0.0","0","0","33604","","null","","","null","17","","","","","","","","","","","","","","","",""
"","ITI","","html-keyboard-response","118","1028830","0.0-1.0-162.0","0","0","33604","","null","","","null","17","","","","","","","","","","","","","","","NaN",""
"","S1","","html-keyboard-response","119","1029085","0.0-1.0-164.0","0","0","33604","","null","","","null","18","","","","","","","","","","","","","","","",""
"","ISI","","html-keyboard-response","120","1030089","0.0-1.0-165.0","0","0","33604","","266","","","68","18","d","","","","","","","","","","","","","","",""
"","S2","","html-keyboard-response","121","1030344","0.0-1.0-166.0","0","0","33604","","null","","","null","18","","NaN","","","","","","","","","","","","","",""
"","response","","html-keyboard-response","122","1030602","0.0-1.0-167.0-0.0","0","0","33604","","254","","","68","18","","","1","18","training","adjacent","EF","5","6","P.jpg","M.jpg","1","1","1","",""
"","feedback","","html-keyboard-response","123","1031608","0.0-1.0-168.0-0.0","0","0","33604","","null","","","null","18","","","","","","","","","","","","","","","",""
"","ITI","","html-keyboard-response","124","1032615","0.0-1.0-171.0","0","0","33604","","null","","","null","18","","","","","","","","","","","","","","","NaN",""
"","S1","","html-keyboard-response","125","1032871","0.0-1.0-173.0","0","0","33604","","null","","","null","19","","","","","","","","","","","","","","","",""
"","ISI","","html-keyboard-response","126","1033876","0.0-1.0-174.0","0","0","33604","","null","","","null","19","NaN","","","","","","","","","","","","","","",""
"","S2","","html-keyboard-response","127","1034133","0.0-1.0-175.0","0","0","33604","","null","","","null","19","","NaN","","","","","","","","","","","","","",""
"","response","","html-keyboard-response","128","1034410","0.0-1.0-176.0-0.0","0","0","33604","","274","","","75","19","","","1","19","training","adjacent","FG","6","7","M.jpg","O.jpg","0","1","0","",""
"","feedback","","html-keyboard-response","129","1035416","0.0-1.0-177.0-0.0","0","0","33604","","null","","","null","19","","","","","","","","","","","","","","","",""
"","time_out","","html-keyboard-response","130","1037427","0.0-1.0-179.0-0.0","0","0","33604","","null","","","null","19","","","","","","","","","","","","","","","",""
"","ITI","","html-keyboard-response","131","1038436","0.0-1.0-180.0","0","0","33604","","null","","","null","19","","","","","","","","","","","","","","","NaN",""
"","S1","","html-keyboard-response","132","1038691","0.0-1.0-182.0","0","0","33604","","null","","","null","20","","","","","","","","","","","","","","","",""
"","ISI","","html-keyboard-response","133","1039698","0.0-1.0-183.0","0","0","33604","","null","","","null","20","NaN","","","","","","","","","","","","","","",""
"","S2","","html-keyboard-response","134","1039955","0.0-1.0-184.0","0","0","33604","","null","","","null","20","","NaN","","","","","","","","","","","","","",""
"","response","","html-keyboard-response","135","1040194","0.0-1.0-185.0-0.0","0","0","33604","","236","","","68","20","","","1","20","training","adjacent","CB","3","2","N.jpg","L.jpg","1","0","0","",""
"","feedback","","html-keyboard-response","136","1041197","0.0-1.0-186.0-0.0","0","0","33604","","null","","","null","20","","","","","","","","","","","","","","","",""
"","time_out","","html-keyboard-response","137","1043204","0.0-1.0-188.0-0.0","0","0","33604","","null","","","null","20","","","","","","","","","","","","","","","",""
"","ITI","","html-keyboard-response","138","1044209","0.0-1.0-189.0","0","0","33604","","null","","","null","20","","","","","","","","","","","","","","","NaN",""
"","S1","","html-keyboard-response","139","1044463","0.0-1.0-191.0","0","0","33604","","null","","","null","21","","","","","","","","","","","","","","","",""
"","ISI","","html-keyboard-response","140","1045472","0.0-1.0-192.0","0","0","33604","","null","","","null","21","NaN","","","","","","","","","","","","","","",""
"","S2","","html-keyboard-response","141","1045726","0.0-1.0-193.0","0","0","33604","","null","","","null","21","","NaN","","","","","","","","","","","","","",""
"","response","","html-keyboard-response","142","1045973","0.0-1.0-194.0-0.0","0","0","33604","","242","","","75","21","","","1","21","training","adjacent","DC","4","3","Q.jpg","N.jpg","0","0","1","",""
"","feedback","","html-keyboard-response","143","1046980","0.0-1.0-195.0-0.0","0","0","33604","","null","","","null","21","","","","","","","","","","","","","","","",""
"","ITI","","html-keyboard-response","144","1047987","0.0-1.0-198.0","0","0","33604","","null","","","null","21","","","","","","","","","","","","","","","NaN",""
"","S1","","html-keyboard-response","145","1048243","0.0-1.0-200.0","0","0","33604","","null","","","null","22","","","","","","","","","","","","","","","",""
"","ISI","","html-keyboard-response","146","1049250","0.0-1.0-201.0","0","0","33604","","null","","","null","22","NaN","","","","","","","","","","","","","","",""
"","S2","","html-keyboard-response","147","1049507","0.0-1.0-202.0","0","0","33604","","null","","","null","22","","NaN","","","","","","","","","","","","","",""
"","response","","html-keyboard-response","148","1049717","0.0-1.0-203.0-0.0","0","0","33604","","205","","","68","22","","","1","22","training","adjacent","DE","4","5","Q.jpg","P.jpg","1","1","1","",""
"","feedback","","html-keyboard-response","149","1050730","0.0-1.0-204.0-0.0","0","0","33604","","null","","","null","22","","","","","","","","","","","","","","","",""
"","ITI","","html-keyboard-response","150","1051733","0.0-1.0-207.0","0","0","33604","","null","","","null","22","","","","","","","","","","","","","","","NaN",""
"","S1","","html-keyboard-response","151","1051991","0.0-1.0-209.0","0","0","33604","","null","","","null","23","","","","","","","","","","","","","","","",""
"","ISI","","html-keyboard-response","152","1052999","0.0-1.0-210.0","0","0","33604","","null","","","null","23","NaN","","","","","","","","","","","","","","",""
"","S2","","html-keyboard-response","153","1053170","0.0-1.0-211.0","0","0","33604","","168","","","68","23","","d","1","23","training","adjacent","BA","2","1","L.jpg","R.jpg","1","0","0","",""
"","feedback","","html-keyboard-response","154","1054175","0.0-1.0-213.0-0.0","0","0","33604","","null","","","null","23","","","","","","","","","","","","","","","",""
"","time_out","","html-keyboard-response","155","1056179","0.0-1.0-215.0-0.0","0","0","33604","","null","","","null","23","","","","","","","","","","","","","","","",""
"","ITI","","html-keyboard-response","156","1057187","0.0-1.0-216.0","0","0","33604","","null","","","null","23","","","","","","","","","","","","","","","NaN",""
"","S1","","html-keyboard-response","157","1057441","0.0-1.0-218.0","0","0","33604","","null","","","null","24","","","","","","","","","","","","","","","",""
"","ISI","","html-keyboard-response","158","1058448","0.0-1.0-219.0","0","0","33604","","null","","","null","24","NaN","","","","","","","","","","","","","","",""
"","S2","","html-keyboard-response","159","1058702","0.0-1.0-220.0","0","0","33604","","null","","","null","24","","NaN","","","","","","","","","","","","","",""
"","response","","html-keyboard-response","160","1058829","0.0-1.0-221.0-0.0","0","0","33604","","123","","","68","24","","","1","24","training","adjacent","DC","4","3","Q.jpg","N.jpg","1","0","0","",""
"","feedback","","html-keyboard-response","161","1059834","0.0-1.0-222.0-0.0","0","0","33604","","null","","","null","24","","","","","","","","","","","","","","","",""
"","time_out","","html-keyboard-response","162","1061840","0.0-1.0-224.0-0.0","0","0","33604","","null","","","null","24","","","","","","","","","","","","","","","",""
"","ITI","","html-keyboard-response","163","1062845","0.0-1.0-225.0","0","0","33604","","null","","","null","24","","","","","","","","","","","","","","","NaN",""
"","S1","","html-keyboard-response","164","1063111","0.0-1.0-227.0","0","0","33604","","null","","","null","25","","","","","","","","","","","","","","","",""
"","ISI","","html-keyboard-response","165","1064114","0.0-1.0-228.0","0","0","33604","","null","","","null","25","NaN","","","","","","","","","","","","","","",""
"","S2","","html-keyboard-response","166","1064367","0.0-1.0-229.0","0","0","33604","","null","","","null","25","","NaN","","","","","","","","","","","","","",""
"","response","","html-keyboard-response","167","1064731","0.0-1.0-230.0-0.0","0","0","33604","","360","","","68","25","","","1","25","training","adjacent","BC","2","3","L.jpg","N.jpg","1","1","1","",""
"","feedback","","html-keyboard-response","168","1065735","0.0-1.0-231.0-0.0","0","0","33604","","null","","","null","25","","","","","","","","","","","","","","","",""
"","ITI","","html-keyboard-response","169","1066738","0.0-1.0-234.0","0","0","33604","","null","","","null","25","","","","","","","","","","","","","","","NaN",""
"","S1","","html-keyboard-response","170","1066997","0.0-1.0-236.0","0","0","33604","","null","","","null","26","","","","","","","","","","","","","","","",""
"","ISI","","html-keyboard-response","171","1068003","0.0-1.0-237.0","0","0","33604","","null","","","null","26","NaN","","","","","","","","","","","","","","",""
"","S2","","html-keyboard-response","172","1068258","0.0-1.0-238.0","0","0","33604","","null","","","null","26","","NaN","","","","","","","","","","","","","",""
"","response","","html-keyboard-response","173","1068579","0.0-1.0-239.0-0.0","0","0","33604","","317","","","75","26","","","1","26","training","adjacent","CB","3","2","N.jpg","L.jpg","0","0","1","",""
"","feedback","","html-keyboard-response","174","1069585","0.0-1.0-240.0-0.0","0","0","33604","","null","","","null","26","","","","","","","","","","","","","","","",""
"","ITI","","html-keyboard-response","175","1070589","0.0-1.0-243.0","0","0","33604","","null","","","null","26","","","","","","","","","","","","","","","NaN",""
"","S1","","html-keyboard-response","176","1070847","0.0-1.0-245.0","0","0","33604","","null","","","null","27","","","","","","","","","","","","","","","",""
"","ISI","","html-keyboard-response","177","1071851","0.0-1.0-246.0","0","0","33604","","null","","","null","27","NaN","","","","","","","","","","","","","","",""
"","S2","","html-keyboard-response","178","1072109","0.0-1.0-247.0","0","0","33604","","null","","","null","27","","NaN","","","","","","","","","","","","","",""
"","response","","html-keyboard-response","179","1072467","0.0-1.0-248.0-0.0","0","0","33604","","354","","","68","27","","","1","27","training","adjacent","ED","5","4","P.jpg","Q.jpg","1","0","0","",""
"","feedback","","html-keyboard-response","180","1073471","0.0-1.0-249.0-0.0","0","0","33604","","null","","","null","27","","","","","","","","","","","","","","","",""
"","time_out","","html-keyboard-response","181","1075479","0.0-1.0-251.0-0.0","0","0","33604","","null","","","null","27","","","","","","","","","","","","","","","",""
"","ITI","","html-keyboard-response","182","1076482","0.0-1.0-252.0","0","0","33604","","null","","","null","27","","","","","","","","","","","","","","","NaN",""
"","S1","","html-keyboard-response","183","1076739","0.0-1.0-254.0","0","0","33604","","null","","","null","28","","","","","","","","","","","","","","","",""
"","ISI","","html-keyboard-response","184","1077745","0.0-1.0-255.0","0","0","33604","","null","","","null","28","NaN","","","","","","","","","","","","","","",""
"","S2","","html-keyboard-response","185","1078015","0.0-1.0-256.0","0","0","33604","","null","","","null","28","","NaN","","","","","","","","","","","","","",""
"","response","","html-keyboard-response","186","1078218","0.0-1.0-257.0-0.0","0","0","33604","","200","","","75","28","","","1","28","training","adjacent","EF","5","6","P.jpg","M.jpg","0","1","0","",""
"","feedback","","html-keyboard-response","187","1079225","0.0-1.0-258.0-0.0","0","0","33604","","null","","","null","28","","","","","","","","","","","","","","","",""
"","time_out","","html-keyboard-response","188","1081245","0.0-1.0-260.0-0.0","0","0","33604","","null","","","null","28","","","","","","","","","","","","","","","",""
"","ITI","","html-keyboard-response","189","1082247","0.0-1.0-261.0","0","0","33604","","634","","","68","28","","","","","","","","","","","","","","","d",""
"","S1","","html-keyboard-response","190","1082501","0.0-1.0-263.0","0","0","33604","","null","","","null","29","","","","","","","","","","","","","","","",""
"","ISI","","html-keyboard-response","191","1083506","0.0-1.0-264.0","0","0","33604","","null","","","null","29","NaN","","","","","","","","","","","","","","",""
"","S2","","html-keyboard-response","192","1083764","0.0-1.0-265.0","0","0","33604","","null","","","null","29","","NaN","","","","","","","","","","","","","",""
"","response","","html-keyboard-response","193","1084114","0.0-1.0-266.0-0.0","0","0","33604","","347","","","68","29","","","1","29","training","adjacent","GF","7","6","O.jpg","M.jpg","1","0","0","",""
"","feedback","","html-keyboard-response","194","1085119","0.0-1.0-267.0-0.0","0","0","33604","","null","","","null","29","","","","","","","","","","","","","","","",""
"","time_out","","html-keyboard-response","195","1087127","0.0-1.0-269.0-0.0","0","0","33604","","null","","","null","29","","","","","","","","","","","","","","","",""
"","ITI","","html-keyboard-response","196","1088134","0.0-1.0-270.0","0","0","33604","","null","","","null","29","","","","","","","","","","","","","","","NaN",""
"","S1","","html-keyboard-response","197","1088387","0.0-1.0-272.0","0","0","33604","","null","","","null","30","","","","","","","","","","","","","","","",""
"","ISI","","html-keyboard-response","198","1089391","0.0-1.0-273.0","0","0","33604","","null","","","null","30","NaN","","","","","","","","","","","","","","",""
"","S2","","html-keyboard-response","199","1089646","0.0-1.0-274.0","0","0","33604","","null","","","null","30","","NaN","","","","","","","","","","","","","",""
"","response","","html-keyboard-response","200","1089669","0.0-1.0-275.0-0.0","0","0","33604","","17","","","75","30","","","1","30","training","adjacent","ED","5","4","P.jpg","Q.jpg","0","0","1","",""
"","feedback","","html-keyboard-response","201","1090675","0.0-1.0-276.0-0.0","0","0","33604","","null","","","null","30","","","","","","","","","","","","","","","",""
"","ITI","","html-keyboard-response","202","1091679","0.0-1.0-279.0","0","0","33604","","null","","","null","30","","","","","","","","","","","","","","","NaN",""
"","S1","","html-keyboard-response","203","1091942","0.0-1.0-281.0","0","0","33604","","null","","","null","31","","","","","","","","","","","","","","","",""
"","ISI","","html-keyboard-response","204","1092947","0.0-1.0-282.0","0","0","33604","","null","","","null","31","NaN","","","","","","","","","","","","","","",""
"","S2","","html-keyboard-response","205","1093202","0.0-1.0-283.0","0","0","33604","","null","","","null","31","","NaN","","","","","","","","","","","","","",""
"","response","","html-keyboard-response","206","1094090","0.0-1.0-284.0-0.0","0","0","33604","","885","","","68","31","","","1","31","training","adjacent","AB","1","2","R.jpg","L.jpg","1","1","1","",""
"","feedback","","html-keyboard-response","207","1095096","0.0-1.0-285.0-0.0","0","0","33604","","null","","","null","31","","","","","","","","","","","","","","","",""
"","ITI","","html-keyboard-response","208","1096100","0.0-1.0-288.0","0","0","33604","","null","","","null","31","","","","","","","","","","","","","","","NaN",""
"","S1","","html-keyboard-response","209","1096356","0.0-1.0-290.0","0","0","33604","","null","","","null","32","","","","","","","","","","","","","","","",""
"","ISI","","html-keyboard-response","210","1097361","0.0-1.0-291.0","0","0","33604","","null","","","null","32","NaN","","","","","","","","","","","","","","",""
"","S2","","html-keyboard-response","211","1097618","0.0-1.0-292.0","0","0","33604","","null","","","null","32","","NaN","","","","","","","","","","","","","",""
"","response","","html-keyboard-response","212","1097906","0.0-1.0-293.0-0.0","0","0","33604","","285","","","68","32","","","1","32","training","adjacent","FE","6","5","M.jpg","P.jpg","1","0","0","",""
"","feedback","","html-keyboard-response","213","1098911","0.0-1.0-294.0-0.0","0","0","33604","","null","","","null","32","","","","","","","","","","","","","","","",""
"","time_out","","html-keyboard-response","214","1100915","0.0-1.0-296.0-0.0","0","0","33604","","null","","","null","32","","","","","","","","","","","","","","","",""
"","ITI","","html-keyboard-response","215","1101920","0.0-1.0-297.0","0","0","33604","","null","","","null","32","","","","","","","","","","","","","","","NaN",""
"","S1","","html-keyboard-response","216","1102178","0.0-1.0-299.0","0","0","33604","","null","","","null","33","","","","","","","","","","","","","","","",""
"","ISI","","html-keyboard-response","217","1103183","0.0-1.0-300.0","0","0","33604","","null","","","null","33","NaN","","","","","","","","","","","","","","",""
"","S2","","html-keyboard-response","218","1103443","0.0-1.0-301.0","0","0","33604","","null","","","null","33","","NaN","","","","","","","","","","","","","",""
"","response","","html-keyboard-response","219","1103691","0.0-1.0-302.0-0.0","0","0","33604","","244","","","75","33","","","1","33","training","adjacent","EF","5","6","P.jpg","M.jpg","0","1","0","",""
"","feedback","","html-keyboard-response","220","1104695","0.0-1.0-303.0-0.0","0","0","33604","","null","","","null","33","","","","","","","","","","","","","","","",""
"","time_out","","html-keyboard-response","221","1106702","0.0-1.0-305.0-0.0","0","0","33604","","null","","","null","33","","","","","","","","","","","","","","","",""
"","ITI","","html-keyboard-response","222","1107711","0.0-1.0-306.0","0","0","33604","","null","","","null","33","","","","","","","","","","","","","","","NaN",""
"","S1","","html-keyboard-response","223","1107967","0.0-1.0-308.0","0","0","33604","","null","","","null","34","","","","","","","","","","","","","","","",""
"","ISI","","html-keyboard-response","224","1108976","0.0-1.0-309.0","0","0","33604","","896","","","68","34","d","","","","","","","","","","","","","","",""
"","S2","","html-keyboard-response","225","1109233","0.0-1.0-310.0","0","0","33604","","null","","","null","34","","NaN","","","","","","","","","","","","","",""
"","response","","html-keyboard-response","226","1109755","0.0-1.0-311.0-0.0","0","0","33604","","517","","","68","34","","","1","34","training","adjacent","GF","7","6","O.jpg","M.jpg","1","0","0","",""
"","feedback","","html-keyboard-response","227","1110760","0.0-1.0-312.0-0.0","0","0","33604","","null","","","null","34","","","","","","","","","","","","","","","",""
"","time_out","","html-keyboard-response","228","1112765","0.0-1.0-314.0-0.0","0","0","33604","","null","","","null","34","","","","","","","","","","","","","","","",""
"","ITI","","html-keyboard-response","229","1113771","0.0-1.0-315.0","0","0","33604","","null","","","null","34","","","","","","","","","","","","","","","NaN",""
"","S1","","html-keyboard-response","230","1114026","0.0-1.0-317.0","0","0","33604","","null","","","null","35","","","","","","","","","","","","","","","",""
"","ISI","","html-keyboard-response","231","1115033","0.0-1.0-318.0","0","0","33604","","null","","","null","35","NaN","","","","","","","","","","","","","","",""
"","S2","","html-keyboard-response","232","1115288","0.0-1.0-319.0","0","0","33604","","null","","","null","35","","NaN","","","","","","","","","","","","","",""
"","response","","html-keyboard-response","233","1115555","0.0-1.0-320.0-0.0","0","0","33604","","264","","","75","35","","","1","35","training","adjacent","BA","2","1","L.jpg","R.jpg","0","0","1","",""
"","feedback","","html-keyboard-response","234","1116559","0.0-1.0-321.0-0.0","0","0","33604","","null","","","null","35","","","","","","","","","","","","","","","",""
"","ITI","","html-keyboard-response","235","1117563","0.0-1.0-324.0","0","0","33604","","null","","","null","35","","","","","","","","","","","","","","","NaN",""
"","S1","","html-keyboard-response","236","1117827","0.0-1.0-326.0","0","0","33604","","null","","","null","36","","","","","","","","","","","","","","","",""
"","ISI","","html-keyboard-response","237","1118832","0.0-1.0-327.0","0","0","33604","","null","","","null","36","NaN","","","","","","","","","","","","","","",""
"","S2","","html-keyboard-response","238","1119089","0.0-1.0-328.0","0","0","33604","","null","","","null","36","","NaN","","","","","","","","","","","","","",""
"","response","","html-keyboard-response","239","1119588","0.0-1.0-329.0-0.0","0","0","33604","","495","","","68","36","","","1","36","training","adjacent","BC","2","3","L.jpg","N.jpg","1","1","1","",""
"","feedback","","html-keyboard-response","240","1120595","0.0-1.0-330.0-0.0","0","0","33604","","null","","","null","36","","","","","","","","","","","","","","","",""
"","ITI","","html-keyboard-response","241","1121600","0.0-1.0-333.0","0","0","33604","","null","","","null","36","","","","","","","","","","","","","","","NaN",""
"","S1","","html-keyboard-response","242","1121861","0.0-1.0-335.0","0","0","33604","","null","","","null","37","","","","","","","","","","","","","","","",""
"","ISI","","html-keyboard-response","243","1122866","0.0-1.0-336.0","0","0","33604","","null","","","null","37","NaN","","","","","","","","","","","","","","",""
"","S2","","html-keyboard-response","244","1123120","0.0-1.0-337.0","0","0","33604","","null","","","null","37","","NaN","","","","","","","","","","","","","",""
"","response","","html-keyboard-response","245","1123771","0.0-1.0-338.0-0.0","0","0","33604","","647","","","68","37","","","1","37","training","adjacent","CD","3","4","N.jpg","Q.jpg","1","1","1","",""
"","feedback","","html-keyboard-response","246","1124780","0.0-1.0-339.0-0.0","0","0","33604","","null","","","null","37","","","","","","","","","","","","","","","",""
"","ITI","","html-keyboard-response","247","1125786","0.0-1.0-342.0","0","0","33604","","null","","","null","37","","","","","","","","","","","","","","","NaN",""
"","S1","","html-keyboard-response","248","1126044","0.0-1.0-344.0","0","0","33604","","null","","","null","38","","","","","","","","","","","","","","","",""
"","ISI","","html-keyboard-response","249","1127049","0.0-1.0-345.0","0","0","33604","","null","","","null","38","NaN","","","","","","","","","","","","","","",""
"","S2","","html-keyboard-response","250","1127304","0.0-1.0-346.0","0","0","33604","","null","","","null","38","","NaN","","","","","","","","","","","","","",""
"","response","","html-keyboard-response","251","1128444","0.0-1.0-347.0-0.0","0","0","33604","","1136","","","68","38","","","1","38","training","adjacent","FE","6","5","M.jpg","P.jpg","1","0","0","",""
"","feedback","","html-keyboard-response","252","1129449","0.0-1.0-348.0-0.0","0","0","33604","","null","","","null","38","","","","","","","","","","","","","","","",""
"","time_out","","html-keyboard-response","253","1131457","0.0-1.0-350.0-0.0","0","0","33604","","null","","","null","38","","","","","","","","","","","","","","","",""
"","ITI","","html-keyboard-response","254","1132462","0.0-1.0-351.0","0","0","33604","","null","","","null","38","","","","","","","","","","","","","","","NaN",""
"","S1","","html-keyboard-response","255","1132721","0.0-1.0-353.0","0","0","33604","","null","","","null","39","","","","","","","","","","","","","","","",""
"","ISI","","html-keyboard-response","256","1133725","0.0-1.0-354.0","0","0","33604","","null","","","null","39","NaN","","","","","","","","","","","","","","",""
"","S2","","html-keyboard-response","257","1133986","0.0-1.0-355.0","0","0","33604","","null","","","null","39","","NaN","","","","","","","","","","","","","",""
"","response","","html-keyboard-response","258","1134253","0.0-1.0-356.0-0.0","0","0","33604","","261","","","75","39","","","1","39","training","adjacent","FE","6","5","M.jpg","P.jpg","0","0","1","",""
"","feedback","","html-keyboard-response","259","1135261","0.0-1.0-357.0-0.0","0","0","33604","","null","","","null","39","","","","","","","","","","","","","","","",""
"","ITI","","html-keyboard-response","260","1136265","0.0-1.0-360.0","0","0","33604","","null","","","null","39","","","","","","","","","","","","","","","NaN",""
"","S1","","html-keyboard-response","261","1136521","0.0-1.0-362.0","0","0","33604","","null","","","null","40","","","","","","","","","","","","","","","",""
"","ISI","","html-keyboard-response","262","1137525","0.0-1.0-363.0","0","0","33604","","null","","","null","40","NaN","","","","","","","","","","","","","","",""
"","S2","","html-keyboard-response","263","1137781","0.0-1.0-364.0","0","0","33604","","null","","","null","40","","NaN","","","","","","","","","","","","","",""
"","response","","html-keyboard-response","264","1139130","0.0-1.0-365.0-0.0","0","0","33604","","1344","","","75","40","","","1","40","training","adjacent","CB","3","2","N.jpg","L.jpg","0","0","1","",""
"","feedback","","html-keyboard-response","265","1140137","0.0-1.0-366.0-0.0","0","0","33604","","null","","","null","40","","","","","","","","","","","","","","","",""
"","ITI","","html-keyboard-response","266","1141143","0.0-1.0-369.0","0","0","33604","","null","","","null","40","","","","","","","","","","","","","","","NaN",""
"","S1","","html-keyboard-response","267","1141398","0.0-1.0-371.0","0","0","33604","","null","","","null","41","","","","","","","","","","","","","","","",""
"","ISI","","html-keyboard-response","268","1142402","0.0-1.0-372.0","0","0","33604","","null","","","null","41","NaN","","","","","","","","","","","","","","",""
"","S2","","html-keyboard-response","269","1142657","0.0-1.0-373.0","0","0","33604","","null","","","null","41","","NaN","","","","","","","","","","","","","",""
"","response","","html-keyboard-response","270","1143125","0.0-1.0-374.0-0.0","0","0","33604","","462","","","68","41","","","1","41","training","adjacent","GF","7","6","O.jpg","M.jpg","1","0","0","",""
"","feedback","","html-keyboard-response","271","1144130","0.0-1.0-375.0-0.0","0","0","33604","","null","","","null","41","","","","","","","","","","","","","","","",""
"","time_out","","html-keyboard-response","272","1146139","0.0-1.0-377.0-0.0","0","0","33604","","null","","","null","41","","","","","","","","","","","","","","","",""
"","ITI","","html-keyboard-response","273","1147145","0.0-1.0-378.0","0","0","33604","","null","","","null","41","","","","","","","","","","","","","","","NaN",""
"","S1","","html-keyboard-response","274","1147399","0.0-1.0-380.0","0","0","33604","","null","","","null","42","","","","","","","","","","","","","","","",""
"","ISI","","html-keyboard-response","275","1148402","0.0-1.0-381.0","0","0","33604","","null","","","null","42","NaN","","","","","","","","","","","","","","",""
"","S2","","html-keyboard-response","276","1148659","0.0-1.0-382.0","0","0","33604","","null","","","null","42","","NaN","","","","","","","","","","","","","",""
"","response","","html-keyboard-response","277","1148787","0.0-1.0-383.0-0.0","0","0","33604","","121","","","75","42","","","1","42","training","adjacent","CB","3","2","N.jpg","L.jpg","0","0","1","",""
"","feedback","","html-keyboard-response","278","1149792","0.0-1.0-384.0-0.0","0","0","33604","","null","","","null","42","","","","","","","","","","","","","","","",""
"","ITI","","html-keyboard-response","279","1150796","0.0-1.0-387.0","0","0","33604","","null","","","null","42","","","","","","","","","","","","","","","NaN",""
"","S1","","html-keyboard-response","280","1151053","0.0-1.0-389.0","0","0","33604","","null","","","null","43","","","","","","","","","","","","","","","",""
"","ISI","","html-keyboard-response","281","1152058","0.0-1.0-390.0","0","0","33604","","null","","","null","43","NaN","","","","","","","","","","","","","","",""
"","S2","","html-keyboard-response","282","1152315","0.0-1.0-391.0","0","0","33604","","null","","","null","43","","NaN","","","","","","","","","","","","","",""
"","response","","html-keyboard-response","283","1152761","0.0-1.0-392.0-0.0","0","0","33604","","443","","","68","43","","","1","43","training","adjacent","ED","5","4","P.jpg","Q.jpg","1","0","0","",""
"","feedback","","html-keyboard-response","284","1153765","0.0-1.0-393.0-0.0","0","0","33604","","null","","","null","43","","","","","","","","","","","","","","","",""
"","time_out","","html-keyboard-response","285","1155768","0.0-1.0-395.0-0.0","0","0","33604","","null","","","null","43","","","","","","","","","","","","","","","",""
"","ITI","","html-keyboard-response","286","1156772","0.0-1.0-396.0","0","0","33604","","null","","","null","43","","","","","","","","","","","","","","","NaN",""
"","S1","","html-keyboard-response","287","1157027","0.0-1.0-398.0","0","0","33604","","null","","","null","44","","","","","","","","","","","","","","","",""
"","ISI","","html-keyboard-response","288","1158031","0.0-1.0-399.0","0","0","33604","","292","","","68","44","d","","","","","","","","","","","","","","",""
"","S2","","html-keyboard-response","289","1158287","0.0-1.0-400.0","0","0","33604","","null","","","null","44","","NaN","","","","","","","","","","","","","",""
"","response","","html-keyboard-response","290","1158554","0.0-1.0-401.0-0.0","0","0","33604","","263","","","68","44","","","1","44","training","adjacent","DE","4","5","Q.jpg","P.jpg","1","1","1","",""
"","feedback","","html-keyboard-response","291","1159560","0.0-1.0-402.0-0.0","0","0","33604","","null","","","null","44","","","","","","","","","","","","","","","",""
"","ITI","","html-keyboard-response","292","1160569","0.0-1.0-405.0","0","0","33604","","null","","","null","44","","","","","","","","","","","","","","","NaN",""
"","S1","","html-keyboard-response","293","1160827","0.0-1.0-407.0","0","0","33604","","null","","","null","45","","","","","","","","","","","","","","","",""
"","ISI","","html-keyboard-response","294","1161832","0.0-1.0-408.0","0","0","33604","","null","","","null","45","NaN","","","","","","","","","","","","","","",""
"","S2","","html-keyboard-response","295","1162088","0.0-1.0-409.0","0","0","33604","","null","","","null","45","","NaN","","","","","","","","","","","","","",""
"","response","","html-keyboard-response","296","1163844","0.0-1.0-410.0-0.0","0","0","33604","","null","","","null","45","","","1","45","training","adjacent","AB","1","2","R.jpg","L.jpg","NaN","1","0","",""
"","too_slow_prompt","","html-keyboard-response","297","1164850","0.0-1.0-412.0-0.0","1","0","33604","","null","","","null","","","","","","","","","","","","","","","","",""
"","time_out","","html-keyboard-response","298","1166854","0.0-1.0-413.0-0.0","0","0","33604","","null","","","null","45","","","","","","","","","","","","","","","",""
"","ITI","","html-keyboard-response","299","1167861","0.0-1.0-414.0","0","0","33604","","null","","","null","45","","","","","","","","","","","","","","","NaN",""
"","S1","","html-keyboard-response","300","1168116","0.0-1.0-416.0","0","0","33604","","null","","","null","46","","","","","","","","","","","","","","","",""
"","ISI","","html-keyboard-response","301","1169120","0.0-1.0-417.0","0","0","33604","","null","","","null","46","NaN","","","","","","","","","","","","","","",""
"","S2","","html-keyboard-response","302","1169376","0.0-1.0-418.0","0","0","33604","","null","","","null","46","","NaN","","","","","","","","","","","","","",""
"","response","","html-keyboard-response","303","1169650","0.0-1.0-419.0-0.0","0","0","33604","","272","","","68","46","","","1","46","training","adjacent","EF","5","6","P.jpg","M.jpg","1","1","1","",""
"","feedback","","html-keyboard-response","304","1170654","0.0-1.0-420.0-0.0","0","0","33604","","null","","","null","46","","","","","","","","","","","","","","","",""
"","ITI","","html-keyboard-response","305","1171662","0.0-1.0-423.0","0","0","33604","","null","","","null","46","","","","","","","","","","","","","","","NaN",""
"","S1","","html-keyboard-response","306","1171919","0.0-1.0-425.0","0","0","33604","","null","","","null","47","","","","","","","","","","","","","","","",""
"","ISI","","html-keyboard-response","307","1172931","0.0-1.0-426.0","0","0","33604","","null","","","null","47","NaN","","","","","","","","","","","","","","",""
"","S2","","html-keyboard-response","308","1173185","0.0-1.0-427.0","0","0","33604","","null","","","null","47","","NaN","","","","","","","","","","","","","",""
"","response","","html-keyboard-response","309","1174596","0.0-1.0-428.0-0.0","0","0","33604","","1406","","","75","47","","","1","47","training","adjacent","ED","5","4","P.jpg","Q.jpg","0","0","1","",""
"","feedback","","html-keyboard-response","310","1175601","0.0-1.0-429.0-0.0","0","0","33604","","null","","","null","47","","","","","","","","","","","","","","","",""
"","ITI","","html-keyboard-response","311","1176605","0.0-1.0-432.0","0","0","33604","","null","","","null","47","","","","","","","","","","","","","","","NaN",""
"","block_over","","html-keyboard-response","312","1188362","0.0-1.0-433.0-0.0","0","0","33604","","11754","","","32","47","","","","","","","","","","","","","","","",""
"","S1","","html-keyboard-response","313","1188619","0.0-1.0-434.0","0","0","33604","","null","","","null","48","","","","","","","","","","","","","","","",""
"","ISI","","html-keyboard-response","314","1189628","0.0-1.0-435.0","0","0","33604","","null","","","null","48","NaN","","","","","","","","","","","","","","",""
"","S2","","html-keyboard-response","315","1189887","0.0-1.0-436.0","0","0","33604","","null","","","null","48","","NaN","","","","","","","","","","","","","",""
"","response","","html-keyboard-response","316","1190121","0.0-1.0-437.0-0.0","0","0","33604","","231","","","75","48","","","2","48","training","adjacent","FG","6","7","M.jpg","O.jpg","0","1","0","",""
"","feedback","","html-keyboard-response","317","1191130","0.0-1.0-438.0-0.0","0","0","33604","","null","","","null","48","","","","","","","","","","","","","","","",""
"","time_out","","html-keyboard-response","318","1193135","0.0-1.0-440.0-0.0","0","0","33604","","null","","","null","48","","","","","","","","","","","","","","","",""
"","ITI","","html-keyboard-response","319","1194140","0.0-1.0-441.0","0","0","33604","","null","","","null","48","","","","","","","","","","","","","","","NaN",""
"","S1","","html-keyboard-response","320","1194398","0.0-1.0-443.0","0","0","33604","","null","","","null","49","","","","","","","","","","","","","","","",""
"","ISI","","html-keyboard-response","321","1195403","0.0-1.0-444.0","0","0","33604","","null","","","null","49","NaN","","","","","","","","","","","","","","",""
"","S2","","html-keyboard-response","322","1195657","0.0-1.0-445.0","0","0","33604","","null","","","null","49","","NaN","","","","","","","","","","","","","",""
"","response","","html-keyboard-response","323","1195842","0.0-1.0-446.0-0.0","0","0","33604","","182","","","68","49","","","2","49","training","adjacent","GF","7","6","O.jpg","M.jpg","1","0","0","",""
"","feedback","","html-keyboard-response","324","1196847","0.0-1.0-447.0-0.0","0","0","33604","","null","","","null","49","","","","","","","","","","","","","","","",""
"","time_out","","html-keyboard-response","325","1198851","0.0-1.0-449.0-0.0","0","0","33604","","null","","","null","49","","","","","","","","","","","","","","","",""
"","ITI","","html-keyboard-response","326","1199855","0.0-1.0-450.0","0","0","33604","","null","","","null","49","","","","","","","","","","","","","","","NaN",""
"","S1","","html-keyboard-response","327","1200119","0.0-1.0-452.0","0","0","33604","","null","","","null","50","","","","","","","","","","","","","","","",""
"","ISI","","html-keyboard-response","328","1201123","0.0-1.0-453.0","0","0","33604","","null","","","null","50","NaN","","","","","","","","","","","","","","",""
"","S2","","html-keyboard-response","329","1201380","0.0-1.0-454.0","0","0","33604","","null","","","null","50","","NaN","","","","","","","","","","","","","",""
"","response","","html-keyboard-response","330","1201539","0.0-1.0-455.0-0.0","0","0","33604","","154","","","75","50","","","2","50","training","adjacent","CB","3","2","N.jpg","L.jpg","0","0","1","",""
"","feedback","","html-keyboard-response","331","1202543","0.0-1.0-456.0-0.0","0","0","33604","","null","","","null","50","","","","","","","","","","","","","","","",""
"","ITI","","html-keyboard-response","332","1203547","0.0-1.0-459.0","0","0","33604","","null","","","null","50","","","","","","","","","","","","","","","NaN",""
"","S1","","html-keyboard-response","333","1203800","0.0-1.0-461.0","0","0","33604","","null","","","null","51","","","","","","","","","","","","","","","",""
"","ISI","","html-keyboard-response","334","1204804","0.0-1.0-462.0","0","0","33604","","null","","","null","51","NaN","","","","","","","","","","","","","","",""
"","S2","","html-keyboard-response","335","1205068","0.0-1.0-463.0","0","0","33604","","null","","","null","51","","NaN","","","","","","","","","","","","","",""
"","response","","html-keyboard-response","336","1205556","0.0-1.0-464.0-0.0","0","0","33604","","483","","","75","51","","","2","51","training","adjacent","CD","3","4","N.jpg","Q.jpg","0","1","0","",""
"","feedback","","html-keyboard-response","337","1206563","0.0-1.0-465.0-0.0","0","0","33604","","null","","","null","51","","","","","","","","","","","","","","","",""
"","time_out","","html-keyboard-response","338","1208567","0.0-1.0-467.0-0.0","0","0","33604","","null","","","null","51","","","","","","","","","","","","","","","",""
"","ITI","","html-keyboard-response","339","1209576","0.0-1.0-468.0","0","0","33604","","null","","","null","51","","","","","","","","","","","","","","","NaN",""
"","S1","","html-keyboard-response","340","1209830","0.0-1.0-470.0","0","0","33604","","null","","","null","52","","","","","","","","","","","","","","","",""
"","ISI","","html-keyboard-response","341","1210836","0.0-1.0-471.0","0","0","33604","","null","","","null","52","NaN","","","","","","","","","","","","","","",""
"","S2","","html-keyboard-response","342","1211095","0.0-1.0-472.0","0","0","33604","","null","","","null","52","","NaN","","","","","","","","","","","","","",""
"","response","","html-keyboard-response","343","1211355","0.0-1.0-473.0-0.0","0","0","33604","","255","","","68","52","","","2","52","training","adjacent","EF","5","6","P.jpg","M.jpg","1","1","1","",""
"","feedback","","html-keyboard-response","344","1212362","0.0-1.0-474.0-0.0","0","0","33604","","null","","","null","52","","","","","","","","","","","","","","","",""
"","ITI","","html-keyboard-response","345","1213367","0.0-1.0-477.0","0","0","33604","","null","","","null","52","","","","","","","","","","","","","","","NaN",""
"","S1","","html-keyboard-response","346","1213626","0.0-1.0-479.0","0","0","33604","","null","","","null","53","","","","","","","","","","","","","","","",""
"","ISI","","html-keyboard-response","347","1214632","0.0-1.0-480.0","0","0","33604","","null","","","null","53","NaN","","","","","","","","","","","","","","",""
"","S2","","html-keyboard-response","348","1214889","0.0-1.0-481.0","0","0","33604","","null","","","null","53","","NaN","","","","","","","","","","","","","",""
"","response","","html-keyboard-response","349","1215401","0.0-1.0-482.0-0.0","0","0","33604","","508","","","75","53","","","2","53","training","adjacent","BA","2","1","L.jpg","R.jpg","0","0","1","",""
"","feedback","","html-keyboard-response","350","1216408","0.0-1.0-483.0-0.0","0","0","33604","","null","","","null","53","","","","","","","","","","","","","","","",""
"","ITI","","html-keyboard-response","351","1217414","0.0-1.0-486.0","0","0","33604","","null","","","null","53","","","","","","","","","","","","","","","NaN",""
"","S1","","html-keyboard-response","352","1217669","0.0-1.0-488.0","0","0","33604","","null","","","null","54","","","","","","","","","","","","","","","",""
"","ISI","","html-keyboard-response","353","1218685","0.0-1.0-489.0","0","0","33604","","null","","","null","54","NaN","","","","","","","","","","","","","","",""
"","S2","","html-keyboard-response","354","1218939","0.0-1.0-490.0","0","0","33604","","null","","","null","54","","NaN","","","","","","","","","","","","","",""
"","response","","html-keyboard-response","355","1219353","0.0-1.0-491.0-0.0","0","0","33604","","411","","","68","54","","","2","54","training","adjacent","CB","3","2","N.jpg","L.jpg","1","0","0","",""
"","feedback","","html-keyboard-response","356","1220361","0.0-1.0-492.0-0.0","0","0","33604","","null","","","null","54","","","","","","","","","","","","","","","",""
"","time_out","","html-keyboard-response","357","1222366","0.0-1.0-494.0-0.0","0","0","33604","","null","","","null","54","","","","","","","","","","","","","","","",""
"","ITI","","html-keyboard-response","358","1223373","0.0-1.0-495.0","0","0","33604","","null","","","null","54","","","","","","","","","","","","","","","NaN",""
"","S1","","html-keyboard-response","359","1223636","0.0-1.0-497.0","0","0","33604","","null","","","null","55","","","","","","","","","","","","","","","",""
"","ISI","","html-keyboard-response","360","1224641","0.0-1.0-498.0","0","0","33604","","null","","","null","55","NaN","","","","","","","","","","","","","","",""
"","S2","","html-keyboard-response","361","1224897","0.0-1.0-499.0","0","0","33604","","null","","","null","55","","NaN","","","","","","","","","","","","","",""
"","response","","html-keyboard-response","362","1225217","0.0-1.0-500.0-0.0","0","0","33604","","316","","","68","55","","","2","55","training","adjacent","BA","2","1","L.jpg","R.jpg","1","0","0","",""
"","feedback","","html-keyboard-response","363","1226230","0.0-1.0-501.0-0.0","0","0","33604","","null","","","null","55","","","","","","","","","","","","","","","",""
"","time_out","","html-keyboard-response","364","1228235","0.0-1.0-503.0-0.0","0","0","33604","","null","","","null","55","","","","","","","","","","","","","","","",""
"","ITI","","html-keyboard-response","365","1229241","0.0-1.0-504.0","0","0","33604","","null","","","null","55","","","","","","","","","","","","","","","NaN",""
"","S1","","html-keyboard-response","366","1229502","0.0-1.0-506.0","0","0","33604","","null","","","null","56","","","","","","","","","","","","","","","",""
"","ISI","","html-keyboard-response","367","1230508","0.0-1.0-507.0","0","0","33604","","null","","","null","56","NaN","","","","","","","","","","","","","","",""
"","S2","","html-keyboard-response","368","1230762","0.0-1.0-508.0","0","0","33604","","null","","","null","56","","NaN","","","","","","","","","","","","","",""
"","response","","html-keyboard-response","369","1230996","0.0-1.0-509.0-0.0","0","0","33604","","229","","","75","56","","","2","56","training","adjacent","BA","2","1","L.jpg","R.jpg","0","0","1","",""
"","feedback","","html-keyboard-response","370","1232002","0.0-1.0-510.0-0.0","0","0","33604","","null","","","null","56","","","","","","","","","","","","","","","",""
"","ITI","","html-keyboard-response","371","1233007","0.0-1.0-513.0","0","0","33604","","null","","","null","56","","","","","","","","","","","","","","","NaN",""
"","S1","","html-keyboard-response","372","1233262","0.0-1.0-515.0","0","0","33604","","null","","","null","57","","","","","","","","","","","","","","","",""
"","ISI","","html-keyboard-response","373","1234270","0.0-1.0-516.0","0","0","33604","","null","","","null","57","NaN","","","","","","","","","","","","","","",""
"","S2","","html-keyboard-response","374","1234527","0.0-1.0-517.0","0","0","33604","","null","","","null","57","","NaN","","","","","","","","","","","","","",""
"","response","","html-keyboard-response","375","1234788","0.0-1.0-518.0-0.0","0","0","33604","","256","","","75","57","","","2","57","training","adjacent","AB","1","2","R.jpg","L.jpg","0","1","0","",""
"","feedback","","html-keyboard-response","376","1235795","0.0-1.0-519.0-0.0","0","0","33604","","null","","","null","57","","","","","","","","","","","","","","","",""
"","time_out","","html-keyboard-response","377","1237799","0.0-1.0-521.0-0.0","0","0","33604","","null","","","null","57","","","","","","","","","","","","","","","",""
"","ITI","","html-keyboard-response","378","1238803","0.0-1.0-522.0","0","0","33604","","null","","","null","57","","","","","","","","","","","","","","","NaN",""
"","S1","","html-keyboard-response","379","1239058","0.0-1.0-524.0","0","0","33604","","null","","","null","58","","","","","","","","","","","","","","","",""
"","ISI","","html-keyboard-response","380","1240062","0.0-1.0-525.0","0","0","33604","","null","","","null","58","NaN","","","","","","","","","","","","","","",""
"","S2","","html-keyboard-response","381","1240316","0.0-1.0-526.0","0","0","33604","","null","","","null","58","","NaN","","","","","","","","","","","","","",""
"","response","","html-keyboard-response","382","1240553","0.0-1.0-527.0-0.0","0","0","33604","","236","","","68","58","","","2","58","training","adjacent","DC","4","3","Q.jpg","N.jpg","1","0","0","",""
"","feedback","","html-keyboard-response","383","1241557","0.0-1.0-528.0-0.0","0","0","33604","","null","","","null","58","","","","","","","","","","","","","","","",""
"","time_out","","html-keyboard-response","384","1243564","0.0-1.0-530.0-0.0","0","0","33604","","null","","","null","58","","","","","","","","","","","","","","","",""
"","ITI","","html-keyboard-response","385","1244569","0.0-1.0-531.0","0","0","33604","","null","","","null","58","","","","","","","","","","","","","","","NaN",""
"","S1","","html-keyboard-response","386","1244826","0.0-1.0-533.0","0","0","33604","","null","","","null","59","","","","","","","","","","","","","","","",""
"","ISI","","html-keyboard-response","387","1245833","0.0-1.0-534.0","0","0","33604","","null","","","null","59","NaN","","","","","","","","","","","","","","",""
"","S2","","html-keyboard-response","388","1246088","0.0-1.0-535.0","0","0","33604","","null","","","null","59","","NaN","","","","","","","","","","","","","",""
"","response","","html-keyboard-response","389","1246322","0.0-1.0-536.0-0.0","0","0","33604","","230","","","75","59","","","2","59","training","adjacent","AB","1","2","R.jpg","L.jpg","0","1","0","",""
"","feedback","","html-keyboard-response","390","1247327","0.0-1.0-537.0-0.0","0","0","33604","","null","","","null","59","","","","","","","","","","","","","","","",""
"","time_out","","html-keyboard-response","391","1249335","0.0-1.0-539.0-0.0","0","0","33604","","null","","","null","59","","","","","","","","","","","","","","","",""
"","ITI","","html-keyboard-response","392","1250340","0.0-1.0-540.0","0","0","33604","","null","","","null","59","","","","","","","","","","","","","","","NaN",""
"","S1","","html-keyboard-response","393","1250596","0.0-1.0-542.0","0","0","33604","","null","","","null","60","","","","","","","","","","","","","","","",""
"","ISI","","html-keyboard-response","394","1251603","0.0-1.0-543.0","0","0","33604","","null","","","null","60","NaN","","","","","","","","","","","","","","",""
"","S2","","html-keyboard-response","395","1251858","0.0-1.0-544.0","0","0","33604","","null","","","null","60","","NaN","","","","","","","","","","","","","",""
"","response","","html-keyboard-response","396","1252034","0.0-1.0-545.0-0.0","0","0","33604","","172","","","75","60","","","2","60","training","adjacent","GF","7","6","O.jpg","M.jpg","0","0","1","",""
"","feedback","","html-keyboard-response","397","1253041","0.0-1.0-546.0-0.0","0","0","33604","","null","","","null","60","","","","","","","","","","","","","","","",""
"","ITI","","html-keyboard-response","398","1254056","0.0-1.0-549.0","0","0","33604","","null","","","null","60","","","","","","","","","","","","","","","NaN",""
"","S1","","html-keyboard-response","399","1254314","0.0-1.0-551.0","0","0","33604","","null","","","null","61","","","","","","","","","","","","","","","",""
"","ISI","","html-keyboard-response","400","1255321","0.0-1.0-552.0","0","0","33604","","null","","","null","61","NaN","","","","","","","","","","","","","","",""
"","S2","","html-keyboard-response","401","1255576","0.0-1.0-553.0","0","0","33604","","null","","","null","61","","NaN","","","","","","","","","","","","","",""
"","response","","html-keyboard-response","402","1256201","0.0-1.0-554.0-0.0","0","0","33604","","622","","","75","61","","","2","61","training","adjacent","CD","3","4","N.jpg","Q.jpg","0","1","0","",""
"","feedback","","html-keyboard-response","403","1257209","0.0-1.0-555.0-0.0","0","0","33604","","null","","","null","61","","","","","","","","","","","","","","","",""
"","time_out","","html-keyboard-response","404","1259214","0.0-1.0-557.0-0.0","0","0","33604","","null","","","null","61","","","","","","","","","","","","","","","",""
"","ITI","","html-keyboard-response","405","1260221","0.0-1.0-558.0","0","0","33604","","null","","","null","61","","","","","","","","","","","","","","","NaN",""
"","S1","","html-keyboard-response","406","1260477","0.0-1.0-560.0","0","0","33604","","null","","","null","62","","","","","","","","","","","","","","","",""
"","ISI","","html-keyboard-response","407","1261482","0.0-1.0-561.0","0","0","33604","","null","","","null","62","NaN","","","","","","","","","","","","","","",""
"","S2","","html-keyboard-response","408","1261739","0.0-1.0-562.0","0","0","33604","","null","","","null","62","","NaN","","","","","","","","","","","","","",""
"","response","","html-keyboard-response","409","1261954","0.0-1.0-563.0-0.0","0","0","33604","","211","","","68","62","","","2","62","training","adjacent","ED","5","4","P.jpg","Q.jpg","1","0","0","",""
"","feedback","","html-keyboard-response","410","1262960","0.0-1.0-564.0-0.0","0","0","33604","","null","","","null","62","","","","","","","","","","","","","","","",""
"","time_out","","html-keyboard-response","411","1264964","0.0-1.0-566.0-0.0","0","0","33604","","null","","","null","62","","","","","","","","","","","","","","","",""
"","ITI","","html-keyboard-response","412","1265969","0.0-1.0-567.0","0","0","33604","","null","","","null","62","","","","","","","","","","","","","","","NaN",""
"","S1","","html-keyboard-response","413","1266228","0.0-1.0-569.0","0","0","33604","","null","","","null","63","","","","","","","","","","","","","","","",""
"","ISI","","html-keyboard-response","414","1267233","0.0-1.0-570.0","0","0","33604","","null","","","null","63","NaN","","","","","","","","","","","","","","",""
"","S2","","html-keyboard-response","415","1267492","0.0-1.0-571.0","0","0","33604","","null","","","null","63","","NaN","","","","","","","","","","","","","",""
"","response","","html-keyboard-response","416","1267747","0.0-1.0-572.0-0.0","0","0","33604","","251","","","68","63","","","2","63","training","adjacent","FG","6","7","M.jpg","O.jpg","1","1","1","",""
"","feedback","","html-keyboard-response","417","1268752","0.0-1.0-573.0-0.0","0","0","33604","","null","","","null","63","","","","","","","","","","","","","","","",""
"","ITI","","html-keyboard-response","418","1269756","0.0-1.0-576.0","0","0","33604","","null","","","null","63","","","","","","","","","","","","","","","NaN",""
"","S1","","html-keyboard-response","419","1270012","0.0-1.0-578.0","0","0","33604","","null","","","null","64","","","","","","","","","","","","","","","",""
"","ISI","","html-keyboard-response","420","1271018","0.0-1.0-579.0","0","0","33604","","null","","","null","64","NaN","","","","","","","","","","","","","","",""
"","S2","","html-keyboard-response","421","1271274","0.0-1.0-580.0","0","0","33604","","null","","","null","64","","NaN","","","","","","","","","","","","","",""
"","response","","html-keyboard-response","422","1273029","0.0-1.0-581.0-0.0","0","0","33604","","null","","","null","64","","","2","64","training","adjacent","CB","3","2","N.jpg","L.jpg","NaN","0","0","",""
"","too_slow_prompt","","html-keyboard-response","423","1274034","0.0-1.0-583.0-0.0","1","0","33604","","null","","","null","","","","","","","","","","","","","","","","",""
"","time_out","","html-keyboard-response","424","1276038","0.0-1.0-584.0-0.0","0","0","33604","","null","","","null","64","","","","","","","","","","","","","","","",""
"","ITI","","html-keyboard-response","425","1277046","0.0-1.0-585.0","0","0","33604","","null","","","null","64","","","","","","","","","","","","","","","NaN",""
"","S1","","html-keyboard-response","426","1277300","0.0-1.0-587.0","0","0","33604","","null","","","null","65","","","","","","","","","","","","","","","",""
"","ISI","","html-keyboard-response","427","1278308","0.0-1.0-588.0","0","0","33604","","396","","","68","65","d","","","","","","","","","","","","","","",""
"","S2","","html-keyboard-response","428","1278568","0.0-1.0-589.0","0","0","33604","","null","","","null","65","","NaN","","","","","","","","","","","","","",""
"","response","","html-keyboard-response","429","1278874","0.0-1.0-590.0-0.0","0","0","33604","","303","","","68","65","","","2","65","training","adjacent","DE","4","5","Q.jpg","P.jpg","1","1","1","",""
"","feedback","","html-keyboard-response","430","1279879","0.0-1.0-591.0-0.0","0","0","33604","","null","","","null","65","","","","","","","","","","","","","","","",""
"","ITI","","html-keyboard-response","431","1280884","0.0-1.0-594.0","0","0","33604","","null","","","null","65","","","","","","","","","","","","","","","NaN",""
"","S1","","html-keyboard-response","432","1281149","0.0-1.0-596.0","0","0","33604","","null","","","null","66","","","","","","","","","","","","","","","",""
"","ISI","","html-keyboard-response","433","1282154","0.0-1.0-597.0","0","0","33604","","null","","","null","66","NaN","","","","","","","","","","","","","","",""
"","S2","","html-keyboard-response","434","1282415","0.0-1.0-598.0","0","0","33604","","null","","","null","66","","NaN","","","","","","","","","","","","","",""
"","response","","html-keyboard-response","435","1282825","0.0-1.0-599.0-0.0","0","0","33604","","408","","","75","66","","","2","66","training","adjacent","BC","2","3","L.jpg","N.jpg","0","1","0","",""
"","feedback","","html-keyboard-response","436","1283830","0.0-1.0-600.0-0.0","0","0","33604","","null","","","null","66","","","","","","","","","","","","","","","",""
"","time_out","","html-keyboard-response","437","1285835","0.0-1.0-602.0-0.0","0","0","33604","","null","","","null","66","","","","","","","","","","","","","","","",""
"","ITI","","html-keyboard-response","438","1286840","0.0-1.0-603.0","0","0","33604","","null","","","null","66","","","","","","","","","","","","","","","NaN",""
"","S1","","html-keyboard-response","439","1287093","0.0-1.0-605.0","0","0","33604","","null","","","null","67","","","","","","","","","","","","","","","",""
"","ISI","","html-keyboard-response","440","1288099","0.0-1.0-606.0","0","0","33604","","456","","","68","67","d","","","","","","","","","","","","","","",""
"","S2","","html-keyboard-response","441","1288358","0.0-1.0-607.0","0","0","33604","","null","","","null","67","","NaN","","","","","","","","","","","","","",""
"","response","","html-keyboard-response","442","1288788","0.0-1.0-608.0-0.0","0","0","33604","","426","","","68","67","","","2","67","training","adjacent","BC","2","3","L.jpg","N.jpg","1","1","1","",""
"","feedback","","html-keyboard-response","443","1289795","0.0-1.0-609.0-0.0","0","0","33604","","null","","","null","67","","","","","","","","","","","","","","","",""
"","ITI","","html-keyboard-response","444","1290803","0.0-1.0-612.0","0","0","33604","","null","","","null","67","","","","","","","","","","","","","","","NaN",""
"","S1","","html-keyboard-response","445","1291058","0.0-1.0-614.0","0","0","33604","","null","","","null","68","","","","","","","","","","","","","","","",""
"","ISI","","html-keyboard-response","446","1292062","0.0-1.0-615.0","0","0","33604","","null","","","null","68","NaN","","","","","","","","","","","","","","",""
"","S2","","html-keyboard-response","447","1292316","0.0-1.0-616.0","0","0","33604","","null","","","null","68","","NaN","","","","","","","","","","","","","",""
"","response","","html-keyboard-response","448","1292785","0.0-1.0-617.0-0.0","0","0","33604","","467","","","68","68","","","2","68","training","adjacent","FG","6","7","M.jpg","O.jpg","1","1","1","",""
"","feedback","","html-keyboard-response","449","1293788","0.0-1.0-618.0-0.0","0","0","33604","","null","","","null","68","","","","","","","","","","","","","","","",""
"","ITI","","html-keyboard-response","450","1294794","0.0-1.0-621.0","0","0","33604","","null","","","null","68","","","","","","","","","","","","","","","NaN",""
"","S1","","html-keyboard-response","451","1295052","0.0-1.0-623.0","0","0","33604","","null","","","null","69","","","","","","","","","","","","","","","",""
"","ISI","","html-keyboard-response","452","1296057","0.0-1.0-624.0","0","0","33604","","null","","","null","69","NaN","","","","","","","","","","","","","","",""
"","S2","","html-keyboard-response","453","1296316","0.0-1.0-625.0","0","0","33604","","null","","","null","69","","NaN","","","","","","","","","","","","","",""
"","response","","html-keyboard-response","454","1297089","0.0-1.0-626.0-0.0","0","0","33604","","771","","","68","69","","","2","69","training","adjacent","DE","4","5","Q.jpg","P.jpg","1","1","1","",""
"","feedback","","html-keyboard-response","455","1298095","0.0-1.0-627.0-0.0","0","0","33604","","null","","","null","69","","","","","","","","","","","","","","","",""
"","ITI","","html-keyboard-response","456","1299100","0.0-1.0-630.0","0","0","33604","","null","","","null","69","","","","","","","","","","","","","","","NaN",""
"","S1","","html-keyboard-response","457","1299354","0.0-1.0-632.0","0","0","33604","","null","","","null","70","","","","","","","","","","","","","","","",""
"","ISI","","html-keyboard-response","458","1300359","0.0-1.0-633.0","0","0","33604","","null","","","null","70","NaN","","","","","","","","","","","","","","",""
"","S2","","html-keyboard-response","459","1300610","0.0-1.0-634.0","0","0","33604","","248","","","68","70","","d","2","70","training","adjacent","ED","5","4","P.jpg","Q.jpg","1","0","0","",""
"","feedback","","html-keyboard-response","460","1301616","0.0-1.0-636.0-0.0","0","0","33604","","null","","","null","70","","","","","","","","","","","","","","","",""
"","time_out","","html-keyboard-response","461","1303620","0.0-1.0-638.0-0.0","0","0","33604","","null","","","null","70","","","","","","","","","","","","","","","",""
"","ITI","","html-keyboard-response","462","1304624","0.0-1.0-639.0","0","0","33604","","null","","","null","70","","","","","","","","","","","","","","","NaN",""
"","S1","","html-keyboard-response","463","1304882","0.0-1.0-641.0","0","0","33604","","null","","","null","71","","","","","","","","","","","","","","","",""
"","ISI","","html-keyboard-response","464","1305886","0.0-1.0-642.0","0","0","33604","","null","","","null","71","NaN","","","","","","","","","","","","","","",""
"","S2","","html-keyboard-response","465","1306146","0.0-1.0-643.0","0","0","33604","","null","","","null","71","","NaN","","","","","","","","","","","","","",""
"","response","","html-keyboard-response","466","1306420","0.0-1.0-644.0-0.0","0","0","33604","","269","","","75","71","","","2","71","training","adjacent","FE","6","5","M.jpg","P.jpg","0","0","1","",""
"","feedback","","html-keyboard-response","467","1307425","0.0-1.0-645.0-0.0","0","0","33604","","null","","","null","71","","","","","","","","","","","","","","","",""
"","ITI","","html-keyboard-response","468","1308433","0.0-1.0-648.0","0","0","33604","","null","","","null","71","","","","","","","","","","","","","","","NaN",""
"","S1","","html-keyboard-response","469","1308689","0.0-1.0-650.0","0","0","33604","","null","","","null","72","","","","","","","","","","","","","","","",""
"","ISI","","html-keyboard-response","470","1309697","0.0-1.0-651.0","0","0","33604","","null","","","null","72","NaN","","","","","","","","","","","","","","",""
"","S2","","html-keyboard-response","471","1309952","0.0-1.0-652.0","0","0","33604","","null","","","null","72","","NaN","","","","","","","","","","","","","",""
"","response","","html-keyboard-response","472","1310482","0.0-1.0-653.0-0.0","0","0","33604","","526","","","68","72","","","2","72","training","adjacent","FG","6","7","M.jpg","O.jpg","1","1","1","",""
"","feedback","","html-keyboard-response","473","1311487","0.0-1.0-654.0-0.0","0","0","33604","","null","","","null","72","","","","","","","","","","","","","","","",""
"","ITI","","html-keyboard-response","474","1312491","0.0-1.0-657.0","0","0","33604","","null","","","null","72","","","","","","","","","","","","","","","NaN",""
"","S1","","html-keyboard-response","475","1312752","0.0-1.0-659.0","0","0","33604","","null","","","null","73","","","","","","","","","","","","","","","",""
"","ISI","","html-keyboard-response","476","1313760","0.0-1.0-660.0","0","0","33604","","null","","","null","73","NaN","","","","","","","","","","","","","","",""
"","S2","","html-keyboard-response","477","1314019","0.0-1.0-661.0","0","0","33604","","null","","","null","73","","NaN","","","","","","","","","","","","","",""
"","response","","html-keyboard-response","478","1315042","0.0-1.0-662.0-0.0","0","0","33604","","1020","","","75","73","","","2","73","training","adjacent","FE","6","5","M.jpg","P.jpg","0","0","1","",""
"","feedback","","html-keyboard-response","479","1316047","0.0-1.0-663.0-0.0","0","0","33604","","null","","","null","73","","","","","","","","","","","","","","","",""
"","ITI","","html-keyboard-response","480","1317050","0.0-1.0-666.0","0","0","33604","","null","","","null","73","","","","","","","","","","","","","","","NaN",""
"","S1","","html-keyboard-response","481","1317312","0.0-1.0-668.0","0","0","33604","","null","","","null","74","","","","","","","","","","","","","","","",""
"","ISI","","html-keyboard-response","482","1318323","0.0-1.0-669.0","0","0","33604","","null","","","null","74","NaN","","","","","","","","","","","","","","",""
"","S2","","html-keyboard-response","483","1318579","0.0-1.0-670.0","0","0","33604","","null","","","null","74","","NaN","","","","","","","","","","","","","",""
"","response","","html-keyboard-response","484","1318851","0.0-1.0-671.0-0.0","0","0","33604","","267","","","68","74","","","2","74","training","adjacent","AB","1","2","R.jpg","L.jpg","1","1","1","",""
"","feedback","","html-keyboard-response","485","1319860","0.0-1.0-672.0-0.0","0","0","33604","","null","","","null","74","","","","","","","","","","","","","","","",""
"","ITI","","html-keyboard-response","486","1320867","0.0-1.0-675.0","0","0","33604","","null","","","null","74","","","","","","","","","","","","","","","NaN",""
"","S1","","html-keyboard-response","487","1321121","0.0-1.0-677.0","0","0","33604","","null","","","null","75","","","","","","","","","","","","","","","",""
"","ISI","","html-keyboard-response","488","1322126","0.0-1.0-678.0","0","0","33604","","null","","","null","75","NaN","","","","","","","","","","","","","","",""
"","S2","","html-keyboard-response","489","1322381","0.0-1.0-679.0","0","0","33604","","null","","","null","75","","NaN","","","","","","","","","","","","","",""
"","response","","html-keyboard-response","490","1322425","0.0-1.0-680.0-0.0","0","0","33604","","41","","","75","75","","","2","75","training","adjacent","GF","7","6","O.jpg","M.jpg","0","0","1","",""
"","feedback","","html-keyboard-response","491","1323430","0.0-1.0-681.0-0.0","0","0","33604","","null","","","null","75","","","","","","","","","","","","","","","",""
"","ITI","","html-keyboard-response","492","1324436","0.0-1.0-684.0","0","0","33604","","null","","","null","75","","","","","","","","","","","","","","","NaN",""
"","S1","","html-keyboard-response","493","1324692","0.0-1.0-686.0","0","0","33604","","null","","","null","76","","","","","","","","","","","","","","","",""
"","ISI","","html-keyboard-response","494","1325695","0.0-1.0-687.0","0","0","33604","","null","","","null","76","NaN","","","","","","","","","","","","","","",""
"","S2","","html-keyboard-response","495","1325951","0.0-1.0-688.0","0","0","33604","","null","","","null","76","","NaN","","","","","","","","","","","","","",""
"","response","","html-keyboard-response","496","1326418","0.0-1.0-689.0-0.0","0","0","33604","","464","","","68","76","","","2","76","training","adjacent","BC","2","3","L.jpg","N.jpg","1","1","1","",""
"","feedback","","html-keyboard-response","497","1327422","0.0-1.0-690.0-0.0","0","0","33604","","null","","","null","76","","","","","","","","","","","","","","","",""
"","ITI","","html-keyboard-response","498","1328426","0.0-1.0-693.0","0","0","33604","","null","","","null","76","","","","","","","","","","","","","","","NaN",""
"","S1","","html-keyboard-response","499","1328681","0.0-1.0-695.0","0","0","33604","","null","","","null","77","","","","","","","","","","","","","","","",""
"","ISI","","html-keyboard-response","500","1329686","0.0-1.0-696.0","0","0","33604","","null","","","null","77","NaN","","","","","","","","","","","","","","",""
"","S2","","html-keyboard-response","501","1329943","0.0-1.0-697.0","0","0","33604","","null","","","null","77","","NaN","","","","","","","","","","","","","",""
"","response","","html-keyboard-response","502","1330497","0.0-1.0-698.0-0.0","0","0","33604","","551","","","75","77","","","2","77","training","adjacent","EF","5","6","P.jpg","M.jpg","0","1","0","",""
"","feedback","","html-keyboard-response","503","1331504","0.0-1.0-699.0-0.0","0","0","33604","","null","","","null","77","","","","","","","","","","","","","","","",""
"","time_out","","html-keyboard-response","504","1333510","0.0-1.0-701.0-0.0","0","0","33604","","null","","","null","77","","","","","","","","","","","","","","","",""
"","ITI","","html-keyboard-response","505","1334515","0.0-1.0-702.0","0","0","33604","","null","","","null","77","","","","","","","","","","","","","","","NaN",""
"","S1","","html-keyboard-response","506","1334771","0.0-1.0-704.0","0","0","33604","","null","","","null","78","","","","","","","","","","","","","","","",""
"","ISI","","html-keyboard-response","507","1335778","0.0-1.0-705.0","0","0","33604","","null","","","null","78","NaN","","","","","","","","","","","","","","",""
"","S2","","html-keyboard-response","508","1336032","0.0-1.0-706.0","0","0","33604","","null","","","null","78","","NaN","","","","","","","","","","","","","",""
"","response","","html-keyboard-response","509","1336370","0.0-1.0-707.0-0.0","0","0","33604","","335","","","68","78","","","2","78","training","adjacent","ED","5","4","P.jpg","Q.jpg","1","0","0","",""
"","feedback","","html-keyboard-response","510","1337377","0.0-1.0-708.0-0.0","0","0","33604","","null","","","null","78","","","","","","","","","","","","","","","",""
"","time_out","","html-keyboard-response","511","1339384","0.0-1.0-710.0-0.0","0","0","33604","","null","","","null","78","","","","","","","","","","","","","","","",""
"","ITI","","html-keyboard-response","512","1340387","0.0-1.0-711.0","0","0","33604","","null","","","null","78","","","","","","","","","","","","","","","NaN",""
"","S1","","html-keyboard-response","513","1340646","0.0-1.0-713.0","0","0","33604","","null","","","null","79","","","","","","","","","","","","","","","",""
"","ISI","","html-keyboard-response","514","1341654","0.0-1.0-714.0","0","0","33604","","null","","","null","79","NaN","","","","","","","","","","","","","","",""
"","S2","","html-keyboard-response","515","1341910","0.0-1.0-715.0","0","0","33604","","null","","","null","79","","NaN","","","","","","","","","","","","","",""
"","response","","html-keyboard-response","516","1342075","0.0-1.0-716.0-0.0","0","0","33604","","161","","","75","79","","","2","79","training","adjacent","CB","3","2","N.jpg","L.jpg","0","0","1","",""
"","feedback","","html-keyboard-response","517","1343079","0.0-1.0-717.0-0.0","0","0","33604","","null","","","null","79","","","","","","","","","","","","","","","",""
"","ITI","","html-keyboard-response","518","1344087","0.0-1.0-720.0","0","0","33604","","null","","","null","79","","","","","","","","","","","","","","","NaN",""
"","S1","","html-keyboard-response","519","1344343","0.0-1.0-722.0","0","0","33604","","null","","","null","80","","","","","","","","","","","","","","","",""
"","ISI","","html-keyboard-response","520","1345349","0.0-1.0-723.0","0","0","33604","","null","","","null","80","NaN","","","","","","","","","","","","","","",""
"","S2","","html-keyboard-response","521","1345605","0.0-1.0-724.0","0","0","33604","","null","","","null","80","","NaN","","","","","","","","","","","","","",""
"","response","","html-keyboard-response","522","1346092","0.0-1.0-725.0-0.0","0","0","33604","","482","","","68","80","","","2","80","training","adjacent","DE","4","5","Q.jpg","P.jpg","1","1","1","",""
"","feedback","","html-keyboard-response","523","1347098","0.0-1.0-726.0-0.0","0","0","33604","","null","","","null","80","","","","","","","","","","","","","","","",""
"","ITI","","html-keyboard-response","524","1348106","0.0-1.0-729.0","0","0","33604","","null","","","null","80","","","","","","","","","","","","","","","NaN",""
"","S1","","html-keyboard-response","525","1348363","0.0-1.0-731.0","0","0","33604","","null","","","null","81","","","","","","","","","","","","","","","",""
"","ISI","","html-keyboard-response","526","1349367","0.0-1.0-732.0","0","0","33604","","null","","","null","81","NaN","","","","","","","","","","","","","","",""
"","S2","","html-keyboard-response","527","1349622","0.0-1.0-733.0","0","0","33604","","null","","","null","81","","NaN","","","","","","","","","","","","","",""
"","response","","html-keyboard-response","528","1350156","0.0-1.0-734.0-0.0","0","0","33604","","530","","","75","81","","","2","81","training","adjacent","CD","3","4","N.jpg","Q.jpg","0","1","0","",""
"","feedback","","html-keyboard-response","529","1351162","0.0-1.0-735.0-0.0","0","0","33604","","null","","","null","81","","","","","","","","","","","","","","","",""
"","time_out","","html-keyboard-response","530","1353169","0.0-1.0-737.0-0.0","0","0","33604","","null","","","null","81","","","","","","","","","","","","","","","",""
"","ITI","","html-keyboard-response","531","1354175","0.0-1.0-738.0","0","0","33604","","null","","","null","81","","","","","","","","","","","","","","","NaN",""
"","S1","","html-keyboard-response","532","1354433","0.0-1.0-740.0","0","0","33604","","null","","","null","82","","","","","","","","","","","","","","","",""
"","ISI","","html-keyboard-response","533","1355441","0.0-1.0-741.0","0","0","33604","","null","","","null","82","NaN","","","","","","","","","","","","","","",""
"","S2","","html-keyboard-response","534","1355697","0.0-1.0-742.0","0","0","33604","","null","","","null","82","","NaN","","","","","","","","","","","","","",""
"","response","","html-keyboard-response","535","1355987","0.0-1.0-743.0-0.0","0","0","33604","","286","","","68","82","","","2","82","training","adjacent","FE","6","5","M.jpg","P.jpg","1","0","0","",""
"","feedback","","html-keyboard-response","536","1356992","0.0-1.0-744.0-0.0","0","0","33604","","null","","","null","82","","","","","","","","","","","","","","","",""
"","time_out","","html-keyboard-response","537","1358997","0.0-1.0-746.0-0.0","0","0","33604","","null","","","null","82","","","","","","","","","","","","","","","",""
"","ITI","","html-keyboard-response","538","1360000","0.0-1.0-747.0","0","0","33604","","null","","","null","82","","","","","","","","","","","","","","","NaN",""
"","S1","","html-keyboard-response","539","1360259","0.0-1.0-749.0","0","0","33604","","null","","","null","83","","","","","","","","","","","","","","","",""
"","ISI","","html-keyboard-response","540","1361265","0.0-1.0-750.0","0","0","33604","","null","","","null","83","NaN","","","","","","","","","","","","","","",""
"","S2","","html-keyboard-response","541","1361521","0.0-1.0-751.0","0","0","33604","","null","","","null","83","","NaN","","","","","","","","","","","","","",""
"","response","","html-keyboard-response","542","1361889","0.0-1.0-752.0-0.0","0","0","33604","","363","","","68","83","","","2","83","training","adjacent","DC","4","3","Q.jpg","N.jpg","1","0","0","",""
"","feedback","","html-keyboard-response","543","1362898","0.0-1.0-753.0-0.0","0","0","33604","","null","","","null","83","","","","","","","","","","","","","","","",""
"","time_out","","html-keyboard-response","544","1364903","0.0-1.0-755.0-0.0","0","0","33604","","null","","","null","83","","","","","","","","","","","","","","","",""
"","ITI","","html-keyboard-response","545","1365907","0.0-1.0-756.0","0","0","33604","","null","","","null","83","","","","","","","","","","","","","","","NaN",""
"","S1","","html-keyboard-response","546","1366162","0.0-1.0-758.0","0","0","33604","","null","","","null","84","","","","","","","","","","","","","","","",""
"","ISI","","html-keyboard-response","547","1367170","0.0-1.0-759.0","0","0","33604","","null","","","null","84","NaN","","","","","","","","","","","","","","",""
"","S2","","html-keyboard-response","548","1367424","0.0-1.0-760.0","0","0","33604","","null","","","null","84","","NaN","","","","","","","","","","","","","",""
"","response","","html-keyboard-response","549","1367529","0.0-1.0-761.0-0.0","0","0","33604","","103","","","75","84","","","2","84","training","adjacent","DC","4","3","Q.jpg","N.jpg","0","0","1","",""
"","feedback","","html-keyboard-response","550","1368534","0.0-1.0-762.0-0.0","0","0","33604","","null","","","null","84","","","","","","","","","","","","","","","",""
"","ITI","","html-keyboard-response","551","1369540","0.0-1.0-765.0","0","0","33604","","null","","","null","84","","","","","","","","","","","","","","","NaN",""
"","S1","","html-keyboard-response","552","1369795","0.0-1.0-767.0","0","0","33604","","null","","","null","85","","","","","","","","","","","","","","","",""
"","ISI","","html-keyboard-response","553","1370798","0.0-1.0-768.0","0","0","33604","","null","","","null","85","NaN","","","","","","","","","","","","","","",""
"","S2","","html-keyboard-response","554","1371053","0.0-1.0-769.0","0","0","33604","","null","","","null","85","","NaN","","","","","","","","","","","","","",""
"","response","","html-keyboard-response","555","1372219","0.0-1.0-770.0-0.0","0","0","33604","","1161","","","75","85","","","2","85","training","adjacent","GF","7","6","O.jpg","M.jpg","0","0","1","",""
"","feedback","","html-keyboard-response","556","1373227","0.0-1.0-771.0-0.0","0","0","33604","","null","","","null","85","","","","","","","","","","","","","","","",""
"","ITI","","html-keyboard-response","557","1374232","0.0-1.0-774.0","0","0","33604","","null","","","null","85","","","","","","","","","","","","","","","NaN",""
"","S1","","html-keyboard-response","558","1374488","0.0-1.0-776.0","0","0","33604","","null","","","null","86","","","","","","","","","","","","","","","",""
"","ISI","","html-keyboard-response","559","1375496","0.0-1.0-777.0","0","0","33604","","null","","","null","86","NaN","","","","","","","","","","","","","","",""
"","S2","","html-keyboard-response","560","1375750","0.0-1.0-778.0","0","0","33604","","null","","","null","86","","NaN","","","","","","","","","","","","","",""
"","response","","html-keyboard-response","561","1377417","0.0-1.0-779.0-0.0","0","0","33604","","1664","","","75","86","","","2","86","training","adjacent","BA","2","1","L.jpg","R.jpg","0","0","1","",""
"","feedback","","html-keyboard-response","562","1378435","0.0-1.0-780.0-0.0","0","0","33604","","null","","","null","86","","","","","","","","","","","","","","","",""
"","ITI","","html-keyboard-response","563","1379441","0.0-1.0-783.0","0","0","33604","","null","","","null","86","","","","","","","","","","","","","","","NaN",""
"","S1","","html-keyboard-response","564","1379698","0.0-1.0-785.0","0","0","33604","","null","","","null","87","","","","","","","","","","","","","","","",""
"","ISI","","html-keyboard-response","565","1380708","0.0-1.0-786.0","0","0","33604","","null","","","null","87","NaN","","","","","","","","","","","","","","",""
"","S2","","html-keyboard-response","566","1380964","0.0-1.0-787.0","0","0","33604","","null","","","null","87","","NaN","","","","","","","","","","","","","",""
"","response","","html-keyboard-response","567","1382290","0.0-1.0-788.0-0.0","0","0","33604","","1323","","","75","87","","","2","87","training","adjacent","FE","6","5","M.jpg","P.jpg","0","0","1","",""
"","feedback","","html-keyboard-response","568","1383298","0.0-1.0-789.0-0.0","0","0","33604","","null","","","null","87","","","","","","","","","","","","","","","",""
"","ITI","","html-keyboard-response","569","1384305","0.0-1.0-792.0","0","0","33604","","null","","","null","87","","","","","","","","","","","","","","","NaN",""
"","S1","","html-keyboard-response","570","1384560","0.0-1.0-794.0","0","0","33604","","null","","","null","88","","","","","","","","","","","","","","","",""
"","ISI","","html-keyboard-response","571","1385568","0.0-1.0-795.0","0","0","33604","","null","","","null","88","NaN","","","","","","","","","","","","","","",""
"","S2","","html-keyboard-response","572","1385824","0.0-1.0-796.0","0","0","33604","","null","","","null","88","","NaN","","","","","","","","","","","","","",""
"","response","","html-keyboard-response","573","1386752","0.0-1.0-797.0-0.0","0","0","33604","","926","","","75","88","","","2","88","training","adjacent","EF","5","6","P.jpg","M.jpg","0","1","0","",""
"","feedback","","html-keyboard-response","574","1387758","0.0-1.0-798.0-0.0","0","0","33604","","null","","","null","88","","","","","","","","","","","","","","","",""
"","time_out","","html-keyboard-response","575","1389767","0.0-1.0-800.0-0.0","0","0","33604","","null","","","null","88","","","","","","","","","","","","","","","",""
"","ITI","","html-keyboard-response","576","1390773","0.0-1.0-801.0","0","0","33604","","null","","","null","88","","","","","","","","","","","","","","","NaN",""
"","S1","","html-keyboard-response","577","1391030","0.0-1.0-803.0","0","0","33604","","null","","","null","89","","","","","","","","","","","","","","","",""
"","ISI","","html-keyboard-response","578","1392032","0.0-1.0-804.0","0","0","33604","","97","","","68","89","d","","","","","","","","","","","","","","",""
"","S2","","html-keyboard-response","579","1392243","0.0-1.0-805.0","0","0","33604","","206","","","68","89","","d","2","89","training","adjacent","DC","4","3","Q.jpg","N.jpg","1","0","0","",""
