"success","ttype","start_time","trial_type","trial_index","time_elapsed","internal_node_id","warning","missed_checkup","PID","view_history","rt","responses","repeat_instructions","key_press","index","keypress_isi","keypress_S2","block","trial_num","phase","group_type","pair_type","S1_stim","S2_stim","S1_img","S2_img","S1_chosen","S1_higher","accuracy","keypress_iti","total_bonus_tally"
"true","full_screen","d04142023hr0631","fullscreen","0","9545","0.0-0.0","0","0","51444","","","","","","","","","","","","","","","","","","","","","",""
"","instructions","","instructions","1","37317","0.0-1.0-0.0-0.0","0","0","51444","[{""page_index"":0,""viewing_time"":5296},{""page_index"":1,""viewing_time"":17100},{""page_index"":2,""viewing_time"":2972},{""page_index"":3,""viewing_time"":2386}]","27756","","","","","","","","","","","","","","","","","","","",""
"","comprehension_check","","survey-multi-choice","2","64253","0.0-1.0-0.0-1.0","0","0","51444","","26837","{""Q0"":""True"",""Q1"":""D"",""Q2"":""Once the second image appears and while the screen 'MAKE A CHOICE' is shown"",""Q3"":""Green mark"",""Q4"":""either D or K""}","0","","","","","","","","","","","","","","","","","",""
"","start_exp","","html-keyboard-response","3","67928","0.0-1.0-1.0","0","0","51444","","3637","","","32","","","","","","","","","","","","","","","","",""
"","S1","","html-keyboard-response","4","68471","0.0-1.0-2.0","0","0","51444","","null","","","null","0","","","","","","","","","","","","","","","",""
"","ISI","","html-keyboard-response","5","69489","0.0-1.0-3.0","0","0","51444","","null","","","null","0","NaN","","","","","","","","","","","","","","",""
"","S2","","html-keyboard-response","6","69753","0.0-1.0-4.0","0","0","51444","","null","","","null","0","","NaN","","","","","","","","","","","","","",""
"","response","","html-keyboard-response","7","70799","0.0-1.0-5.0-0.0","0","0","51444","","1041","","","75","0","","","1","0","training","adjacent","DE","4","5","Q.jpg","P.jpg","0","1","0","",""
"","feedback","","html-keyboard-response","8","71808","0.0-1.0-6.0-0.0","0","0","51444","","null","","","null","0","","","","","","","","","","","","","","","",""
"","time_out","","html-keyboard-response","9","73816","0.0-1.0-8.0-0.0","0","0","51444","","null","","","null","0","","","","","","","","","","","","","","","",""
"","ITI","","html-keyboard-response","10","74825","0.0-1.0-9.0","0","0","51444","","null","","","null","0","","","","","","","","","","","","","","","NaN",""
"","S1","","html-keyboard-response","11","75097","0.0-1.0-11.0","0","0","51444","","null","","","null","1","","","","","","","","","","","","","","","",""
"","ISI","","html-keyboard-response","12","76105","0.0-1.0-12.0","0","0","51444","","null","","","null","1","NaN","","","","","","","","","","","","","","",""
"","S2","","html-keyboard-response","13","76401","0.0-1.0-13.0","0","0","51444","","null","","","null","1","","NaN","","","","","","","","","","","","","",""
"","response","","html-keyboard-response","14","77422","0.0-1.0-14.0-0.0","0","0","51444","","1015","","","75","1","","","1","1","training","adjacent","DC","4","3","Q.jpg","N.jpg","0","0","1","",""
"","feedback","","html-keyboard-response","15","78433","0.0-1.0-15.0-0.0","0","0","51444","","null","","","null","1","","","","","","","","","","","","","","","",""
"","ITI","","html-keyboard-response","16","79441","0.0-1.0-18.0","0","0","51444","","null","","","null","1","","","","","","","","","","","","","","","NaN",""
"","S1","","html-keyboard-response","17","79698","0.0-1.0-20.0","0","0","51444","","null","","","null","2","","","","","","","","","","","","","","","",""
"","ISI","","html-keyboard-response","18","80730","0.0-1.0-21.0","0","0","51444","","null","","","null","2","NaN","","","","","","","","","","","","","","",""
"","S2","","html-keyboard-response","19","81001","0.0-1.0-22.0","0","0","51444","","null","","","null","2","","NaN","","","","","","","","","","","","","",""
"","response","","html-keyboard-response","20","81338","0.0-1.0-23.0-0.0","0","0","51444","","332","","","75","2","","","1","2","training","adjacent","GF","7","6","R.jpg","L.jpg","0","0","1","",""
"","feedback","","html-keyboard-response","21","82346","0.0-1.0-24.0-0.0","0","0","51444","","null","","","null","2","","","","","","","","","","","","","","","",""
"","ITI","","html-keyboard-response","22","83365","0.0-1.0-27.0","0","0","51444","","null","","","null","2","","","","","","","","","","","","","","","NaN",""
"","S1","","html-keyboard-response","23","83625","0.0-1.0-29.0","0","0","51444","","null","","","null","3","","","","","","","","","","","","","","","",""
"","ISI","","html-keyboard-response","24","84649","0.0-1.0-30.0","0","0","51444","","null","","","null","3","NaN","","","","","","","","","","","","","","",""
"","S2","","html-keyboard-response","25","84913","0.0-1.0-31.0","0","0","51444","","null","","","null","3","","NaN","","","","","","","","","","","","","",""
"","response","","html-keyboard-response","26","85827","0.0-1.0-32.0-0.0","0","0","51444","","905","","","75","3","","","1","3","training","adjacent","CB","3","2","N.jpg","O.jpg","0","0","1","",""
"","feedback","","html-keyboard-response","27","87301","0.0-1.0-33.0-0.0","0","0","51444","","null","","","null","3","","","","","","","","","","","","","","","",""
"","ITI","","html-keyboard-response","28","88312","0.0-1.0-36.0","0","0","51444","","null","","","null","3","","","","","","","","","","","","","","","NaN",""
"","S1","","html-keyboard-response","29","88972","0.0-1.0-38.0","0","0","51444","","null","","","null","4","","","","","","","","","","","","","","","",""
"","ISI","","html-keyboard-response","30","89985","0.0-1.0-39.0","0","0","51444","","null","","","null","4","NaN","","","","","","","","","","","","","","",""
"","S2","","html-keyboard-response","31","90249","0.0-1.0-40.0","0","0","51444","","null","","","null","4","","NaN","","","","","","","","","","","","","",""
"","response","","html-keyboard-response","32","91144","0.0-1.0-41.0-0.0","0","0","51444","","879","","","75","4","","","1","4","training","adjacent","BA","2","1","O.jpg","M.jpg","0","0","1","",""
"","feedback","","html-keyboard-response","33","92185","0.0-1.0-42.0-0.0","0","0","51444","","null","","","null","4","","","","","","","","","","","","","","","",""
"","ITI","","html-keyboard-response","34","93203","0.0-1.0-45.0","0","0","51444","","null","","","null","4","","","","","","","","","","","","","","","NaN",""
"","S1","","html-keyboard-response","35","93465","0.0-1.0-47.0","0","0","51444","","null","","","null","5","","","","","","","","","","","","","","","",""
"","ISI","","html-keyboard-response","36","94474","0.0-1.0-48.0","0","0","51444","","null","","","null","5","NaN","","","","","","","","","","","","","","",""
"","S2","","html-keyboard-response","37","94807","0.0-1.0-49.0","0","0","51444","","null","","","null","5","","NaN","","","","","","","","","","","","","",""
"","response","","html-keyboard-response","38","94875","0.0-1.0-50.0-0.0","0","0","51444","","42","","","75","5","","","1","5","training","adjacent","DE","4","5","Q.jpg","P.jpg","0","1","0","",""
"","feedback","","html-keyboard-response","39","95889","0.0-1.0-51.0-0.0","0","0","51444","","null","","","null","5","","","","","","","","","","","","","","","",""
"","time_out","","html-keyboard-response","40","97899","0.0-1.0-53.0-0.0","0","0","51444","","null","","","null","5","","","","","","","","","","","","","","","",""
"","ITI","","html-keyboard-response","41","98914","0.0-1.0-54.0","0","0","51444","","null","","","null","5","","","","","","","","","","","","","","","NaN",""
"","S1","","html-keyboard-response","42","99178","0.0-1.0-56.0","0","0","51444","","null","","","null","6","","","","","","","","","","","","","","","",""
"","ISI","","html-keyboard-response","43","100434","0.0-1.0-57.0","0","0","51444","","null","","","null","6","NaN","","","","","","","","","","","","","","",""
"","S2","","html-keyboard-response","44","100733","0.0-1.0-58.0","0","0","51444","","null","","","null","6","","NaN","","","","","","","","","","","","","",""
"","response","","html-keyboard-response","45","101316","0.0-1.0-59.0-0.0","0","0","51444","","578","","","68","6","","","1","6","training","adjacent","FE","6","5","L.jpg","P.jpg","1","0","0","",""
"","feedback","","html-keyboard-response","46","102329","0.0-1.0-60.0-0.0","0","0","51444","","null","","","null","6","","","","","","","","","","","","","","","",""
"","time_out","","html-keyboard-response","47","104561","0.0-1.0-62.0-0.0","0","0","51444","","null","","","null","6","","","","","","","","","","","","","","","",""
"","ITI","","html-keyboard-response","48","105569","0.0-1.0-63.0","0","0","51444","","null","","","null","6","","","","","","","","","","","","","","","NaN",""
"","S1","","html-keyboard-response","49","105847","0.0-1.0-65.0","0","0","51444","","null","","","null","7","","","","","","","","","","","","","","","",""
"","ISI","","html-keyboard-response","50","106883","0.0-1.0-66.0","0","0","51444","","null","","","null","7","NaN","","","","","","","","","","","","","","",""
"","S2","","html-keyboard-response","51","107145","0.0-1.0-67.0","0","0","51444","","null","","","null","7","","NaN","","","","","","","","","","","","","",""
"","response","","html-keyboard-response","52","107563","0.0-1.0-68.0-0.0","0","0","51444","","413","","","75","7","","","1","7","training","adjacent","ED","5","4","P.jpg","Q.jpg","0","0","1","",""
"","feedback","","html-keyboard-response","53","108654","0.0-1.0-69.0-0.0","0","0","51444","","null","","","null","7","","","","","","","","","","","","","","","",""
"","ITI","","html-keyboard-response","54","109665","0.0-1.0-72.0","0","0","51444","","null","","","null","7","","","","","","","","","","","","","","","NaN",""
"","S1","","html-keyboard-response","55","109920","0.0-1.0-74.0","0","0","51444","","null","","","null","8","","","","","","","","","","","","","","","",""
"","ISI","","html-keyboard-response","56","111254","0.0-1.0-75.0","0","0","51444","","null","","","null","8","NaN","","","","","","","","","","","","","","",""
"","S2","","html-keyboard-response","57","111587","0.0-1.0-76.0","0","0","51444","","null","","","null","8","","NaN","","","","","","","","","","","","","",""
"","response","","html-keyboard-response","58","112149","0.0-1.0-77.0-0.0","0","0","51444","","551","","","75","8","","","1","8","training","adjacent","AB","1","2","M.jpg","O.jpg","0","1","0","",""
"","feedback","","html-keyboard-response","59","113162","0.0-1.0-78.0-0.0","0","0","51444","","null","","","null","8","","","","","","","","","","","","","","","",""
"","time_out","","html-keyboard-response","60","115169","0.0-1.0-80.0-0.0","0","0","51444","","null","","","null","8","","","","","","","","","","","","","","","",""
"","ITI","","html-keyboard-response","61","116177","0.0-1.0-81.0","0","0","51444","","null","","","null","8","","","","","","","","","","","","","","","NaN",""
"","S1","","html-keyboard-response","62","116437","0.0-1.0-83.0","0","0","51444","","null","","","null","9","","","","","","","","","","","","","","","",""
"","ISI","","html-keyboard-response","63","117666","0.0-1.0-84.0","0","0","51444","","null","","","null","9","NaN","","","","","","","","","","","","","","",""
"","S2","","html-keyboard-response","64","117967","0.0-1.0-85.0","0","0","51444","","null","","","null","9","","NaN","","","","","","","","","","","","","",""
"","response","","html-keyboard-response","65","118014","0.0-1.0-86.0-0.0","0","0","51444","","27","","","68","9","","","1","9","training","adjacent","BC","2","3","O.jpg","N.jpg","1","1","1","",""
"","feedback","","html-keyboard-response","66","119033","0.0-1.0-87.0-0.0","0","0","51444","","null","","","null","9","","","","","","","","","","","","","","","",""
"","ITI","","html-keyboard-response","67","120063","0.0-1.0-90.0","0","0","51444","","null","","","null","9","","","","","","","","","","","","","","","NaN",""
"","S1","","html-keyboard-response","68","120340","0.0-1.0-92.0","0","0","51444","","null","","","null","10","","","","","","","","","","","","","","","",""
"","ISI","","html-keyboard-response","69","121352","0.0-1.0-93.0","0","0","51444","","null","","","null","10","NaN","","","","","","","","","","","","","","",""
"","S2","","html-keyboard-response","70","121609","0.0-1.0-94.0","0","0","51444","","null","","","null","10","","NaN","","","","","","","","","","","","","",""
"","response","","html-keyboard-response","71","121935","0.0-1.0-95.0-0.0","0","0","51444","","304","","","68","10","","","1","10","training","adjacent","EF","5","6","P.jpg","L.jpg","1","1","1","",""
"","feedback","","html-keyboard-response","72","123292","0.0-1.0-96.0-0.0","0","0","51444","","null","","","null","10","","","","","","","","","","","","","","","",""
"","ITI","","html-keyboard-response","73","124638","0.0-1.0-99.0","0","0","51444","","null","","","null","10","","","","","","","","","","","","","","","NaN",""
"","S1","","html-keyboard-response","74","124904","0.0-1.0-101.0","0","0","51444","","null","","","null","11","","","","","","","","","","","","","","","",""
"","ISI","","html-keyboard-response","75","125914","0.0-1.0-102.0","0","0","51444","","null","","","null","11","NaN","","","","","","","","","","","","","","",""
"","S2","","html-keyboard-response","76","126181","0.0-1.0-103.0","0","0","51444","","null","","","null","11","","NaN","","","","","","","","","","","","","",""
"","response","","html-keyboard-response","77","126203","0.0-1.0-104.0-0.0","0","0","51444","","17","","","68","11","","","1","11","training","adjacent","FE","6","5","L.jpg","P.jpg","1","0","0","",""
"","feedback","","html-keyboard-response","78","127249","0.0-1.0-105.0-0.0","0","0","51444","","null","","","null","11","","","","","","","","","","","","","","","",""
"","time_out","","html-keyboard-response","79","129278","0.0-1.0-107.0-0.0","0","0","51444","","null","","","null","11","","","","","","","","","","","","","","","",""
"","ITI","","html-keyboard-response","80","130517","0.0-1.0-108.0","0","0","51444","","null","","","null","11","","","","","","","","","","","","","","","NaN",""
"","S1","","html-keyboard-response","81","130842","0.0-1.0-110.0","0","0","51444","","null","","","null","12","","","","","","","","","","","","","","","",""
"","ISI","","html-keyboard-response","82","131849","0.0-1.0-111.0","0","0","51444","","null","","","null","12","NaN","","","","","","","","","","","","","","",""
"","S2","","html-keyboard-response","83","132113","0.0-1.0-112.0","0","0","51444","","null","","","null","12","","NaN","","","","","","","","","","","","","",""
"","response","","html-keyboard-response","84","132554","0.0-1.0-113.0-0.0","0","0","51444","","423","","","75","12","","","1","12","training","adjacent","AB","1","2","M.jpg","O.jpg","0","1","0","",""
"","feedback","","html-keyboard-response","85","133564","0.0-1.0-114.0-0.0","0","0","51444","","null","","","null","12","","","","","","","","","","","","","","","",""
"","time_out","","html-keyboard-response","86","135576","0.0-1.0-116.0-0.0","0","0","51444","","null","","","null","12","","","","","","","","","","","","","","","",""
"","ITI","","html-keyboard-response","87","136638","0.0-1.0-117.0","0","0","51444","","null","","","null","12","","","","","","","","","","","","","","","NaN",""
"","S1","","html-keyboard-response","88","136928","0.0-1.0-119.0","0","0","51444","","null","","","null","13","","","","","","","","","","","","","","","",""
"","ISI","","html-keyboard-response","89","137962","0.0-1.0-120.0","0","0","51444","","null","","","null","13","NaN","","","","","","","","","","","","","","",""
"","S2","","html-keyboard-response","90","138637","0.0-1.0-121.0","0","0","51444","","null","","","null","13","","NaN","","","","","","","","","","","","","",""
"","response","","html-keyboard-response","91","139049","0.0-1.0-122.0-0.0","0","0","51444","","406","","","68","13","","","1","13","training","adjacent","BA","2","1","O.jpg","M.jpg","1","0","0","",""
"","feedback","","html-keyboard-response","92","140061","0.0-1.0-123.0-0.0","0","0","51444","","null","","","null","13","","","","","","","","","","","","","","","",""
"","time_out","","html-keyboard-response","93","142072","0.0-1.0-125.0-0.0","0","0","51444","","null","","","null","13","","","","","","","","","","","","","","","",""
"","ITI","","html-keyboard-response","94","143084","0.0-1.0-126.0","0","0","51444","","null","","","null","13","","","","","","","","","","","","","","","NaN",""
"","S1","","html-keyboard-response","95","143354","0.0-1.0-128.0","0","0","51444","","null","","","null","14","","","","","","","","","","","","","","","",""
"","ISI","","html-keyboard-response","96","144425","0.0-1.0-129.0","0","0","51444","","null","","","null","14","NaN","","","","","","","","","","","","","","",""
"","S2","","html-keyboard-response","97","144689","0.0-1.0-130.0","0","0","51444","","null","","","null","14","","NaN","","","","","","","","","","","","","",""
"","response","","html-keyboard-response","98","144746","0.0-1.0-131.0-0.0","0","0","51444","","25","","","75","14","","","1","14","training","adjacent","FG","6","7","L.jpg","R.jpg","0","1","0","",""
"","feedback","","html-keyboard-response","99","145753","0.0-1.0-132.0-0.0","0","0","51444","","null","","","null","14","","","","","","","","","","","","","","","",""
"","time_out","","html-keyboard-response","100","147760","0.0-1.0-134.0-0.0","0","0","51444","","null","","","null","14","","","","","","","","","","","","","","","",""
"","ITI","","html-keyboard-response","101","148830","0.0-1.0-135.0","0","0","51444","","null","","","null","14","","","","","","","","","","","","","","","NaN",""
"","S1","","html-keyboard-response","102","149089","0.0-1.0-137.0","0","0","51444","","null","","","null","15","","","","","","","","","","","","","","","",""
"","ISI","","html-keyboard-response","103","150096","0.0-1.0-138.0","0","0","51444","","null","","","null","15","NaN","","","","","","","","","","","","","","",""
"","S2","","html-keyboard-response","104","150367","0.0-1.0-139.0","0","0","51444","","null","","","null","15","","NaN","","","","","","","","","","","","","",""
"","response","","html-keyboard-response","105","150465","0.0-1.0-140.0-0.0","0","0","51444","","83","","","68","15","","","1","15","training","adjacent","FE","6","5","L.jpg","P.jpg","1","0","0","",""
"","feedback","","html-keyboard-response","106","151515","0.0-1.0-141.0-0.0","0","0","51444","","null","","","null","15","","","","","","","","","","","","","","","",""
"","time_out","","html-keyboard-response","107","153525","0.0-1.0-143.0-0.0","0","0","51444","","null","","","null","15","","","","","","","","","","","","","","","",""
"","ITI","","html-keyboard-response","108","154538","0.0-1.0-144.0","0","0","51444","","null","","","null","15","","","","","","","","","","","","","","","NaN",""
"","S1","","html-keyboard-response","109","155078","0.0-1.0-146.0","0","0","51444","","null","","","null","16","","","","","","","","","","","","","","","",""
"","ISI","","html-keyboard-response","110","156104","0.0-1.0-147.0","0","0","51444","","null","","","null","16","NaN","","","","","","","","","","","","","","",""
"","S2","","html-keyboard-response","111","156360","0.0-1.0-148.0","0","0","51444","","null","","","null","16","","NaN","","","","","","","","","","","","","",""
"","response","","html-keyboard-response","112","156480","0.0-1.0-149.0-0.0","0","0","51444","","114","","","75","16","","","1","16","training","adjacent","EF","5","6","P.jpg","L.jpg","0","1","0","",""
"","feedback","","html-keyboard-response","113","157498","0.0-1.0-150.0-0.0","0","0","51444","","null","","","null","16","","","","","","","","","","","","","","","",""
"","time_out","","html-keyboard-response","114","159505","0.0-1.0-152.0-0.0","0","0","51444","","null","","","null","16","","","","","","","","","","","","","","","",""
"","ITI","","html-keyboard-response","115","160596","0.0-1.0-153.0","0","0","51444","","null","","","null","16","","","","","","","","","","","","","","","NaN",""
"","S1","","html-keyboard-response","116","160903","0.0-1.0-155.0","0","0","51444","","null","","","null","17","","","","","","","","","","","","","","","",""
"","ISI","","html-keyboard-response","117","161912","0.0-1.0-156.0","0","0","51444","","null","","","null","17","NaN","","","","","","","","","","","","","","",""
"","S2","","html-keyboard-response","118","162204","0.0-1.0-157.0","0","0","51444","","null","","","null","17","","NaN","","","","","","","","","","","","","",""
"","response","","html-keyboard-response","119","162790","0.0-1.0-158.0-0.0","0","0","51444","","568","","","68","17","","","1","17","training","adjacent","FG","6","7","L.jpg","R.jpg","1","1","1","",""
"","feedback","","html-keyboard-response","120","163818","0.0-1.0-159.0-0.0","0","0","51444","","null","","","null","17","","","","","","","","","","","","","","","",""
"","ITI","","html-keyboard-response","121","164831","0.0-1.0-162.0","0","0","51444","","null","","","null","17","","","","","","","","","","","","","","","NaN",""
"","S1","","html-keyboard-response","122","165089","0.0-1.0-164.0","0","0","51444","","null","","","null","18","","","","","","","","","","","","","","","",""
"","ISI","","html-keyboard-response","123","166553","0.0-1.0-165.0","0","0","51444","","null","","","null","18","NaN","","","","","","","","","","","","","","",""
"","S2","","html-keyboard-response","124","166818","0.0-1.0-166.0","0","0","51444","","null","","","null","18","","NaN","","","","","","","","","","","","","",""
"","response","","html-keyboard-response","125","167508","0.0-1.0-167.0-0.0","0","0","51444","","679","","","68","18","","","1","18","training","adjacent","CB","3","2","N.jpg","O.jpg","1","0","0","",""
"","feedback","","html-keyboard-response","126","168534","0.0-1.0-168.0-0.0","0","0","51444","","null","","","null","18","","","","","","","","","","","","","","","",""
"","time_out","","html-keyboard-response","127","170558","0.0-1.0-170.0-0.0","0","0","51444","","null","","","null","18","","","","","","","","","","","","","","","",""
"","ITI","","html-keyboard-response","128","171568","0.0-1.0-171.0","0","0","51444","","null","","","null","18","","","","","","","","","","","","","","","NaN",""
"","S1","","html-keyboard-response","129","171824","0.0-1.0-173.0","0","0","51444","","null","","","null","19","","","","","","","","","","","","","","","",""
"","ISI","","html-keyboard-response","130","172892","0.0-1.0-174.0","0","0","51444","","null","","","null","19","NaN","","","","","","","","","","","","","","",""
"","S2","","html-keyboard-response","131","173152","0.0-1.0-175.0","0","0","51444","","null","","","null","19","","NaN","","","","","","","","","","","","","",""
"","response","","html-keyboard-response","132","173804","0.0-1.0-176.0-0.0","0","0","51444","","644","","","75","19","","","1","19","training","adjacent","ED","5","4","P.jpg","Q.jpg","0","0","1","",""
"","feedback","","html-keyboard-response","133","174817","0.0-1.0-177.0-0.0","0","0","51444","","null","","","null","19","","","","","","","","","","","","","","","",""
"","ITI","","html-keyboard-response","134","175824","0.0-1.0-180.0","0","0","51444","","null","","","null","19","","","","","","","","","","","","","","","NaN",""
"","S1","","html-keyboard-response","135","176081","0.0-1.0-182.0","0","0","51444","","null","","","null","20","","","","","","","","","","","","","","","",""
"","ISI","","html-keyboard-response","136","177089","0.0-1.0-183.0","0","0","51444","","null","","","null","20","NaN","","","","","","","","","","","","","","",""
"","S2","","html-keyboard-response","137","177353","0.0-1.0-184.0","0","0","51444","","null","","","null","20","","NaN","","","","","","","","","","","","","",""
"","response","","html-keyboard-response","138","177853","0.0-1.0-185.0-0.0","0","0","51444","","495","","","75","20","","","1","20","training","adjacent","DC","4","3","Q.jpg","N.jpg","0","0","1","",""
"","feedback","","html-keyboard-response","139","179173","0.0-1.0-186.0-0.0","0","0","51444","","null","","","null","20","","","","","","","","","","","","","","","",""
"","ITI","","html-keyboard-response","140","180184","0.0-1.0-189.0","0","0","51444","","null","","","null","20","","","","","","","","","","","","","","","NaN",""
"","S1","","html-keyboard-response","141","180442","0.0-1.0-191.0","0","0","51444","","null","","","null","21","","","","","","","","","","","","","","","",""
"","ISI","","html-keyboard-response","142","181448","0.0-1.0-192.0","0","0","51444","","null","","","null","21","NaN","","","","","","","","","","","","","","",""
"","S2","","html-keyboard-response","143","181713","0.0-1.0-193.0","0","0","51444","","null","","","null","21","","NaN","","","","","","","","","","","","","",""
"","response","","html-keyboard-response","144","181944","0.0-1.0-194.0-0.0","0","0","51444","","226","","","75","21","","","1","21","training","adjacent","DE","4","5","Q.jpg","P.jpg","0","1","0","",""
"","feedback","","html-keyboard-response","145","182960","0.0-1.0-195.0-0.0","0","0","51444","","null","","","null","21","","","","","","","","","","","","","","","",""
"","time_out","","html-keyboard-response","146","185035","0.0-1.0-197.0-0.0","0","0","51444","","null","","","null","21","","","","","","","","","","","","","","","",""
"","ITI","","html-keyboard-response","147","186050","0.0-1.0-198.0","0","0","51444","","null","","","null","21","","","","","","","","","","","","","","","NaN",""
"","S1","","html-keyboard-response","148","186321","0.0-1.0-200.0","0","0","51444","","null","","","null","22","","","","","","","","","","","","","","","",""
"","ISI","","html-keyboard-response","149","187339","0.0-1.0-201.0","0","0","51444","","null","","","null","22","NaN","","","","","","","","","","","","","","",""
"","S2","","html-keyboard-response","150","187605","0.0-1.0-202.0","0","0","51444","","null","","","null","22","","NaN","","","","","","","","","","","","","",""
"","response","","html-keyboard-response","151","187712","0.0-1.0-203.0-0.0","0","0","51444","","97","","","68","22","","","1","22","training","adjacent","BA","2","1","O.jpg","M.jpg","1","0","0","",""
"","feedback","","html-keyboard-response","152","188931","0.0-1.0-204.0-0.0","0","0","51444","","null","","","null","22","","","","","","","","","","","","","","","",""
"","time_out","","html-keyboard-response","153","191303","0.0-1.0-206.0-0.0","0","0","51444","","null","","","null","22","","","","","","","","","","","","","","","",""
"","ITI","","html-keyboard-response","154","192318","0.0-1.0-207.0","0","0","51444","","null","","","null","22","","","","","","","","","","","","","","","NaN",""
"","S1","","html-keyboard-response","155","192716","0.0-1.0-209.0","0","0","51444","","null","","","null","23","","","","","","","","","","","","","","","",""
"","ISI","","html-keyboard-response","156","193737","0.0-1.0-210.0","0","0","51444","","286","","","75","23","k","","","","","","","","","","","","","","",""
"","S2","","html-keyboard-response","157","194001","0.0-1.0-211.0","0","0","51444","","null","","","null","23","","NaN","","","","","","","","","","","","","",""
"","response","","html-keyboard-response","158","194256","0.0-1.0-212.0-0.0","0","0","51444","","250","","","75","23","","","1","23","training","adjacent","AB","1","2","M.jpg","O.jpg","0","1","0","",""
"","feedback","","html-keyboard-response","159","195264","0.0-1.0-213.0-0.0","0","0","51444","","null","","","null","23","","","","","","","","","","","","","","","",""
"","time_out","","html-keyboard-response","160","197273","0.0-1.0-215.0-0.0","0","0","51444","","null","","","null","23","","","","","","","","","","","","","","","",""
"","ITI","","html-keyboard-response","161","198528","0.0-1.0-216.0","0","0","51444","","null","","","null","23","","","","","","","","","","","","","","","NaN",""
"","S1","","html-keyboard-response","162","198809","0.0-1.0-218.0","0","0","51444","","null","","","null","24","","","","","","","","","","","","","","","",""
"","ISI","","html-keyboard-response","163","199817","0.0-1.0-219.0","0","0","51444","","null","","","null","24","NaN","","","","","","","","","","","","","","",""
"","S2","","html-keyboard-response","164","200082","0.0-1.0-220.0","0","0","51444","","null","","","null","24","","NaN","","","","","","","","","","","","","",""
"","response","","html-keyboard-response","165","200473","0.0-1.0-221.0-0.0","0","0","51444","","386","","","68","24","","","1","24","training","adjacent","CD","3","4","N.jpg","Q.jpg","1","1","1","",""
"","feedback","","html-keyboard-response","166","201481","0.0-1.0-222.0-0.0","0","0","51444","","null","","","null","24","","","","","","","","","","","","","","","",""
"","ITI","","html-keyboard-response","167","202788","0.0-1.0-225.0","0","0","51444","","null","","","null","24","","","","","","","","","","","","","","","NaN",""
"","S1","","html-keyboard-response","168","203070","0.0-1.0-227.0","0","0","51444","","null","","","null","25","","","","","","","","","","","","","","","",""
"","ISI","","html-keyboard-response","169","204482","0.0-1.0-228.0","0","0","51444","","null","","","null","25","NaN","","","","","","","","","","","","","","",""
"","S2","","html-keyboard-response","170","204746","0.0-1.0-229.0","0","0","51444","","null","","","null","25","","NaN","","","","","","","","","","","","","",""
"","response","","html-keyboard-response","171","204762","0.0-1.0-230.0-0.0","0","0","51444","","10","","","68","25","","","1","25","training","adjacent","CD","3","4","N.jpg","Q.jpg","1","1","1","",""
"","feedback","","html-keyboard-response","172","205769","0.0-1.0-231.0-0.0","0","0","51444","","null","","","null","25","","","","","","","","","","","","","","","",""
"","ITI","","html-keyboard-response","173","206778","0.0-1.0-234.0","0","0","51444","","null","","","null","25","","","","","","","","","","","","","","","NaN",""
"","S1","","html-keyboard-response","174","207041","0.0-1.0-236.0","0","0","51444","","null","","","null","26","","","","","","","","","","","","","","","",""
"","ISI","","html-keyboard-response","175","208049","0.0-1.0-237.0","0","0","51444","","null","","","null","26","NaN","","","","","","","","","","","","","","",""
"","S2","","html-keyboard-response","176","208312","0.0-1.0-238.0","0","0","51444","","null","","","null","26","","NaN","","","","","","","","","","","","","",""
"","response","","html-keyboard-response","177","208607","0.0-1.0-239.0-0.0","0","0","51444","","281","","","68","26","","","1","26","training","adjacent","AB","1","2","M.jpg","O.jpg","1","1","1","",""
"","feedback","","html-keyboard-response","178","209667","0.0-1.0-240.0-0.0","0","0","51444","","null","","","null","26","","","","","","","","","","","","","","","",""
"","ITI","","html-keyboard-response","179","210858","0.0-1.0-243.0","0","0","51444","","null","","","null","26","","","","","","","","","","","","","","","NaN",""
"","S1","","html-keyboard-response","180","211124","0.0-1.0-245.0","0","0","51444","","null","","","null","27","","","","","","","","","","","","","","","",""
"","ISI","","html-keyboard-response","181","212349","0.0-1.0-246.0","0","0","51444","","null","","","null","27","NaN","","","","","","","","","","","","","","",""
"","S2","","html-keyboard-response","182","212622","0.0-1.0-247.0","0","0","51444","","null","","","null","27","","NaN","","","","","","","","","","","","","",""
"","response","","html-keyboard-response","183","212906","0.0-1.0-248.0-0.0","0","0","51444","","278","","","68","27","","","1","27","training","adjacent","GF","7","6","R.jpg","L.jpg","1","0","0","",""
"","feedback","","html-keyboard-response","184","213912","0.0-1.0-249.0-0.0","0","0","51444","","null","","","null","27","","","","","","","","","","","","","","","",""
"","time_out","","html-keyboard-response","185","215930","0.0-1.0-251.0-0.0","0","0","51444","","null","","","null","27","","","","","","","","","","","","","","","",""
"","ITI","","html-keyboard-response","186","216948","0.0-1.0-252.0","0","0","51444","","null","","","null","27","","","","","","","","","","","","","","","NaN",""
"","S1","","html-keyboard-response","187","217224","0.0-1.0-254.0","0","0","51444","","null","","","null","28","","","","","","","","","","","","","","","",""
"","ISI","","html-keyboard-response","188","218314","0.0-1.0-255.0","0","0","51444","","null","","","null","28","NaN","","","","","","","","","","","","","","",""
"","S2","","html-keyboard-response","189","218594","0.0-1.0-256.0","0","0","51444","","null","","","null","28","","NaN","","","","","","","","","","","","","",""
"","response","","html-keyboard-response","190","218930","0.0-1.0-257.0-0.0","0","0","51444","","321","","","75","28","","","1","28","training","adjacent","EF","5","6","P.jpg","L.jpg","0","1","0","",""
"","feedback","","html-keyboard-response","191","219944","0.0-1.0-258.0-0.0","0","0","51444","","null","","","null","28","","","","","","","","","","","","","","","",""
"","time_out","","html-keyboard-response","192","221952","0.0-1.0-260.0-0.0","0","0","51444","","null","","","null","28","","","","","","","","","","","","","","","",""
"","ITI","","html-keyboard-response","193","222960","0.0-1.0-261.0","0","0","51444","","null","","","null","28","","","","","","","","","","","","","","","NaN",""
"","S1","","html-keyboard-response","194","223217","0.0-1.0-263.0","0","0","51444","","null","","","null","29","","","","","","","","","","","","","","","",""
"","ISI","","html-keyboard-response","195","224232","0.0-1.0-264.0","0","0","51444","","null","","","null","29","NaN","","","","","","","","","","","","","","",""
"","S2","","html-keyboard-response","196","224640","0.0-1.0-265.0","0","0","51444","","402","","","68","29","","d","1","29","training","adjacent","GF","7","6","R.jpg","L.jpg","1","0","0","",""
"","feedback","","html-keyboard-response","197","225649","0.0-1.0-267.0-0.0","0","0","51444","","null","","","null","29","","","","","","","","","","","","","","","",""
"","time_out","","html-keyboard-response","198","227657","0.0-1.0-269.0-0.0","0","0","51444","","null","","","null","29","","","","","","","","","","","","","","","",""
"","ITI","","html-keyboard-response","199","228664","0.0-1.0-270.0","0","0","51444","","null","","","null","29","","","","","","","","","","","","","","","NaN",""
"","S1","","html-keyboard-response","200","228930","0.0-1.0-272.0","0","0","51444","","null","","","null","30","","","","","","","","","","","","","","","",""
"","ISI","","html-keyboard-response","201","229937","0.0-1.0-273.0","0","0","51444","","null","","","null","30","NaN","","","","","","","","","","","","","","",""
"","S2","","html-keyboard-response","202","230378","0.0-1.0-274.0","0","0","51444","","435","","","75","30","","k","1","30","training","adjacent","EF","5","6","P.jpg","L.jpg","0","1","0","",""
"","feedback","","html-keyboard-response","203","231385","0.0-1.0-276.0-0.0","0","0","51444","","null","","","null","30","","","","","","","","","","","","","","","",""
"","time_out","","html-keyboard-response","204","233393","0.0-1.0-278.0-0.0","0","0","51444","","null","","","null","30","","","","","","","","","","","","","","","",""
"","ITI","","html-keyboard-response","205","234436","0.0-1.0-279.0","0","0","51444","","null","","","null","30","","","","","","","","","","","","","","","NaN",""
"","S1","","html-keyboard-response","206","234702","0.0-1.0-281.0","0","0","51444","","null","","","null","31","","","","","","","","","","","","","","","",""
"","ISI","","html-keyboard-response","207","235713","0.0-1.0-282.0","0","0","51444","","null","","","null","31","NaN","","","","","","","","","","","","","","",""
"","S2","","html-keyboard-response","208","235969","0.0-1.0-283.0","0","0","51444","","null","","","null","31","","NaN","","","","","","","","","","","","","",""
"","response","","html-keyboard-response","209","236513","0.0-1.0-284.0-0.0","0","0","51444","","516","","","68","31","","","1","31","training","adjacent","FG","6","7","L.jpg","R.jpg","1","1","1","",""
"","feedback","","html-keyboard-response","210","237521","0.0-1.0-285.0-0.0","0","0","51444","","null","","","null","31","","","","","","","","","","","","","","","",""
"","ITI","","html-keyboard-response","211","238528","0.0-1.0-288.0","0","0","51444","","null","","","null","31","","","","","","","","","","","","","","","NaN",""
"","S1","","html-keyboard-response","212","238792","0.0-1.0-290.0","0","0","51444","","null","","","null","32","","","","","","","","","","","","","","","",""
"","ISI","","html-keyboard-response","213","239808","0.0-1.0-291.0","0","0","51444","","null","","","null","32","NaN","","","","","","","","","","","","","","",""
"","S2","","html-keyboard-response","214","240064","0.0-1.0-292.0","0","0","51444","","null","","","null","32","","NaN","","","","","","","","","","","","","",""
"","response","","html-keyboard-response","215","240366","0.0-1.0-293.0-0.0","0","0","51444","","292","","","68","32","","","1","32","training","adjacent","DE","4","5","Q.jpg","P.jpg","1","1","1","",""
"","feedback","","html-keyboard-response","216","241386","0.0-1.0-294.0-0.0","0","0","51444","","null","","","null","32","","","","","","","","","","","","","","","",""
"","ITI","","html-keyboard-response","217","242475","0.0-1.0-297.0","0","0","51444","","null","","","null","32","","","","","","","","","","","","","","","NaN",""
"","S1","","html-keyboard-response","218","242760","0.0-1.0-299.0","0","0","51444","","null","","","null","33","","","","","","","","","","","","","","","",""
"","ISI","","html-keyboard-response","219","243776","0.0-1.0-300.0","0","0","51444","","null","","","null","33","NaN","","","","","","","","","","","","","","",""
"","S2","","html-keyboard-response","220","244033","0.0-1.0-301.0","0","0","51444","","null","","","null","33","","NaN","","","","","","","","","","","","","",""
"","response","","html-keyboard-response","221","244213","0.0-1.0-302.0-0.0","0","0","51444","","174","","","68","33","","","1","33","training","adjacent","ED","5","4","P.jpg","Q.jpg","1","0","0","",""
"","feedback","","html-keyboard-response","222","245227","0.0-1.0-303.0-0.0","0","0","51444","","null","","","null","33","","","","","","","","","","","","","","","",""
"","time_out","","html-keyboard-response","223","247236","0.0-1.0-305.0-0.0","0","0","51444","","null","","","null","33","","","","","","","","","","","","","","","",""
"","ITI","","html-keyboard-response","224","248256","0.0-1.0-306.0","0","0","51444","","null","","","null","33","","","","","","","","","","","","","","","NaN",""
"","S1","","html-keyboard-response","225","248513","0.0-1.0-308.0","0","0","51444","","null","","","null","34","","","","","","","","","","","","","","","",""
"","ISI","","html-keyboard-response","226","249521","0.0-1.0-309.0","0","0","51444","","null","","","null","34","NaN","","","","","","","","","","","","","","",""
"","S2","","html-keyboard-response","227","249784","0.0-1.0-310.0","0","0","51444","","null","","","null","34","","NaN","","","","","","","","","","","","","",""
"","response","","html-keyboard-response","228","250243","0.0-1.0-311.0-0.0","0","0","51444","","452","","","75","34","","","1","34","training","adjacent","DC","4","3","Q.jpg","N.jpg","0","0","1","",""
"","feedback","","html-keyboard-response","229","251249","0.0-1.0-312.0-0.0","0","0","51444","","null","","","null","34","","","","","","","","","","","","","","","",""
"","ITI","","html-keyboard-response","230","252266","0.0-1.0-315.0","0","0","51444","","null","","","null","34","","","","","","","","","","","","","","","NaN",""
"","S1","","html-keyboard-response","231","252526","0.0-1.0-317.0","0","0","51444","","null","","","null","35","","","","","","","","","","","","","","","",""
"","ISI","","html-keyboard-response","232","253542","0.0-1.0-318.0","0","0","51444","","null","","","null","35","NaN","","","","","","","","","","","","","","",""
"","S2","","html-keyboard-response","233","253801","0.0-1.0-319.0","0","0","51444","","null","","","null","35","","NaN","","","","","","","","","","","","","",""
"","response","","html-keyboard-response","234","254004","0.0-1.0-320.0-0.0","0","0","51444","","197","","","75","35","","","1","35","training","adjacent","CB","3","2","N.jpg","O.jpg","0","0","1","",""
"","feedback","","html-keyboard-response","235","255017","0.0-1.0-321.0-0.0","0","0","51444","","null","","","null","35","","","","","","","","","","","","","","","",""
"","ITI","","html-keyboard-response","236","256025","0.0-1.0-324.0","0","0","51444","","null","","","null","35","","","","","","","","","","","","","","","NaN",""
"","S1","","html-keyboard-response","237","256289","0.0-1.0-326.0","0","0","51444","","null","","","null","36","","","","","","","","","","","","","","","",""
"","ISI","","html-keyboard-response","238","257297","0.0-1.0-327.0","0","0","51444","","null","","","null","36","NaN","","","","","","","","","","","","","","",""
"","S2","","html-keyboard-response","239","257560","0.0-1.0-328.0","0","0","51444","","null","","","null","36","","NaN","","","","","","","","","","","","","",""
"","response","","html-keyboard-response","240","257819","0.0-1.0-329.0-0.0","0","0","51444","","253","","","75","36","","","1","36","training","adjacent","CD","3","4","N.jpg","Q.jpg","0","1","0","",""
"","feedback","","html-keyboard-response","241","258833","0.0-1.0-330.0-0.0","0","0","51444","","null","","","null","36","","","","","","","","","","","","","","","",""
"","time_out","","html-keyboard-response","242","260841","0.0-1.0-332.0-0.0","0","0","51444","","null","","","null","36","","","","","","","","","","","","","","","",""
"","ITI","","html-keyboard-response","243","261851","0.0-1.0-333.0","0","0","51444","","null","","","null","36","","","","","","","","","","","","","","","NaN",""
"","S1","","html-keyboard-response","244","262907","0.0-1.0-335.0","0","0","51444","","null","","","null","37","","","","","","","","","","","","","","","",""
"","ISI","","html-keyboard-response","245","263922","0.0-1.0-336.0","0","0","51444","","520","","","68","37","d","","","","","","","","","","","","","","",""
"","S2","","html-keyboard-response","246","264193","0.0-1.0-337.0","0","0","51444","","null","","","null","37","","NaN","","","","","","","","","","","","","",""
"","response","","html-keyboard-response","247","264250","0.0-1.0-338.0-0.0","0","0","51444","","51","","","68","37","","","1","37","training","adjacent","BC","2","3","O.jpg","N.jpg","1","1","1","",""
"","feedback","","html-keyboard-response","248","265257","0.0-1.0-339.0-0.0","0","0","51444","","null","","","null","37","","","","","","","","","","","","","","","",""
"","ITI","","html-keyboard-response","249","266539","0.0-1.0-342.0","0","0","51444","","null","","","null","37","","","","","","","","","","","","","","","NaN",""
"","S1","","html-keyboard-response","250","266810","0.0-1.0-344.0","0","0","51444","","null","","","null","38","","","","","","","","","","","","","","","",""
"","ISI","","html-keyboard-response","251","267816","0.0-1.0-345.0","0","0","51444","","null","","","null","38","NaN","","","","","","","","","","","","","","",""
"","S2","","html-keyboard-response","252","268073","0.0-1.0-346.0","0","0","51444","","null","","","null","38","","NaN","","","","","","","","","","","","","",""
"","response","","html-keyboard-response","253","268661","0.0-1.0-347.0-0.0","0","0","51444","","578","","","68","38","","","1","38","training","adjacent","BC","2","3","O.jpg","N.jpg","1","1","1","",""
"","feedback","","html-keyboard-response","254","269680","0.0-1.0-348.0-0.0","0","0","51444","","null","","","null","38","","","","","","","","","","","","","","","",""
"","ITI","","html-keyboard-response","255","270689","0.0-1.0-351.0","0","0","51444","","null","","","null","38","","","","","","","","","","","","","","","NaN",""
"","S1","","html-keyboard-response","256","270952","0.0-1.0-353.0","0","0","51444","","null","","","null","39","","","","","","","","","","","","","","","",""
"","ISI","","html-keyboard-response","257","271961","0.0-1.0-354.0","0","0","51444","","null","","","null","39","NaN","","","","","","","","","","","","","","",""
"","S2","","html-keyboard-response","258","272311","0.0-1.0-355.0","0","0","51444","","null","","","null","39","","NaN","","","","","","","","","","","","","",""
"","response","","html-keyboard-response","259","272595","0.0-1.0-356.0-0.0","0","0","51444","","262","","","68","39","","","1","39","training","adjacent","BC","2","3","O.jpg","N.jpg","1","1","1","",""
"","feedback","","html-keyboard-response","260","273609","0.0-1.0-357.0-0.0","0","0","51444","","null","","","null","39","","","","","","","","","","","","","","","",""
"","ITI","","html-keyboard-response","261","274623","0.0-1.0-360.0","0","0","51444","","null","","","null","39","","","","","","","","","","","","","","","NaN",""
"","S1","","html-keyboard-response","262","274881","0.0-1.0-362.0","0","0","51444","","null","","","null","40","","","","","","","","","","","","","","","",""
"","ISI","","html-keyboard-response","263","275888","0.0-1.0-363.0","0","0","51444","","null","","","null","40","NaN","","","","","","","","","","","","","","",""
"","S2","","html-keyboard-response","264","276144","0.0-1.0-364.0","0","0","51444","","null","","","null","40","","NaN","","","","","","","","","","","","","",""
"","response","","html-keyboard-response","265","276225","0.0-1.0-365.0-0.0","0","0","51444","","75","","","68","40","","","1","40","training","adjacent","DC","4","3","Q.jpg","N.jpg","1","0","0","",""
"","feedback","","html-keyboard-response","266","277233","0.0-1.0-366.0-0.0","0","0","51444","","null","","","null","40","","","","","","","","","","","","","","","",""
"","time_out","","html-keyboard-response","267","279241","0.0-1.0-368.0-0.0","0","0","51444","","null","","","null","40","","","","","","","","","","","","","","","",""
"","ITI","","html-keyboard-response","268","280309","0.0-1.0-369.0","0","0","51444","","null","","","null","40","","","","","","","","","","","","","","","NaN",""
"","S1","","html-keyboard-response","269","280576","0.0-1.0-371.0","0","0","51444","","null","","","null","41","","","","","","","","","","","","","","","",""
"","ISI","","html-keyboard-response","270","281585","0.0-1.0-372.0","0","0","51444","","null","","","null","41","NaN","","","","","","","","","","","","","","",""
"","S2","","html-keyboard-response","271","281843","0.0-1.0-373.0","0","0","51444","","null","","","null","41","","NaN","","","","","","","","","","","","","",""
"","response","","html-keyboard-response","272","281883","0.0-1.0-374.0-0.0","0","0","51444","","33","","","75","41","","","1","41","training","adjacent","BA","2","1","O.jpg","M.jpg","0","0","1","",""
"","feedback","","html-keyboard-response","273","282897","0.0-1.0-375.0-0.0","0","0","51444","","null","","","null","41","","","","","","","","","","","","","","","",""
"","ITI","","html-keyboard-response","274","283909","0.0-1.0-378.0","0","0","51444","","null","","","null","41","","","","","","","","","","","","","","","NaN",""
"","S1","","html-keyboard-response","275","284170","0.0-1.0-380.0","0","0","51444","","null","","","null","42","","","","","","","","","","","","","","","",""
"","ISI","","html-keyboard-response","276","285187","0.0-1.0-381.0","0","0","51444","","null","","","null","42","NaN","","","","","","","","","","","","","","",""
"","S2","","html-keyboard-response","277","285457","0.0-1.0-382.0","0","0","51444","","null","","","null","42","","NaN","","","","","","","","","","","","","",""
"","response","","html-keyboard-response","278","285765","0.0-1.0-383.0-0.0","0","0","51444","","300","","","75","42","","","1","42","training","adjacent","FE","6","5","L.jpg","P.jpg","0","0","1","",""
"","feedback","","html-keyboard-response","279","286777","0.0-1.0-384.0-0.0","0","0","51444","","null","","","null","42","","","","","","","","","","","","","","","",""
"","ITI","","html-keyboard-response","280","287784","0.0-1.0-387.0","0","0","51444","","null","","","null","42","","","","","","","","","","","","","","","NaN",""
"","S1","","html-keyboard-response","281","288049","0.0-1.0-389.0","0","0","51444","","null","","","null","43","","","","","","","","","","","","","","","",""
"","ISI","","html-keyboard-response","282","289056","0.0-1.0-390.0","0","0","51444","","null","","","null","43","NaN","","","","","","","","","","","","","","",""
"","S2","","html-keyboard-response","283","289312","0.0-1.0-391.0","0","0","51444","","null","","","null","43","","NaN","","","","","","","","","","","","","",""
"","response","","html-keyboard-response","284","289766","0.0-1.0-392.0-0.0","0","0","51444","","448","","","75","43","","","1","43","training","adjacent","FG","6","7","L.jpg","R.jpg","0","1","0","",""
"","feedback","","html-keyboard-response","285","290949","0.0-1.0-393.0-0.0","0","0","51444","","null","","","null","43","","","","","","","","","","","","","","","",""
"","time_out","","html-keyboard-response","286","292960","0.0-1.0-395.0-0.0","0","0","51444","","null","","","null","43","","","","","","","","","","","","","","","",""
"","ITI","","html-keyboard-response","287","293969","0.0-1.0-396.0","0","0","51444","","null","","","null","43","","","","","","","","","","","","","","","NaN",""
"","S1","","html-keyboard-response","288","294481","0.0-1.0-398.0","0","0","51444","","null","","","null","44","","","","","","","","","","","","","","","",""
"","ISI","","html-keyboard-response","289","295489","0.0-1.0-399.0","0","0","51444","","46","","","68","44","d","","","","","","","","","","","","","","",""
"","S2","","html-keyboard-response","290","295745","0.0-1.0-400.0","0","0","51444","","null","","","null","44","","NaN","","","","","","","","","","","","","",""
"","response","","html-keyboard-response","291","295827","0.0-1.0-401.0-0.0","0","0","51444","","77","","","68","44","","","1","44","training","adjacent","GF","7","6","R.jpg","L.jpg","1","0","0","",""
"","feedback","","html-keyboard-response","292","296843","0.0-1.0-402.0-0.0","0","0","51444","","null","","","null","44","","","","","","","","","","","","","","","",""
"","time_out","","html-keyboard-response","293","298856","0.0-1.0-404.0-0.0","0","0","51444","","null","","","null","44","","","","","","","","","","","","","","","",""
"","ITI","","html-keyboard-response","294","299868","0.0-1.0-405.0","0","0","51444","","null","","","null","44","","","","","","","","","","","","","","","NaN",""
"","S1","","html-keyboard-response","295","300557","0.0-1.0-407.0","0","0","51444","","null","","","null","45","","","","","","","","","","","","","","","",""
"","ISI","","html-keyboard-response","296","301570","0.0-1.0-408.0","0","0","51444","","null","","","null","45","NaN","","","","","","","","","","","","","","",""
"","S2","","html-keyboard-response","297","301832","0.0-1.0-409.0","0","0","51444","","null","","","null","45","","NaN","","","","","","","","","","","","","",""
"","response","","html-keyboard-response","298","301854","0.0-1.0-410.0-0.0","0","0","51444","","17","","","75","45","","","1","45","training","adjacent","CB","3","2","N.jpg","O.jpg","0","0","1","",""
"","feedback","","html-keyboard-response","299","302864","0.0-1.0-411.0-0.0","0","0","51444","","null","","","null","45","","","","","","","","","","","","","","","",""
"","ITI","","html-keyboard-response","300","303873","0.0-1.0-414.0","0","0","51444","","null","","","null","45","","","","","","","","","","","","","","","NaN",""
"","S1","","html-keyboard-response","301","304336","0.0-1.0-416.0","0","0","51444","","null","","","null","46","","","","","","","","","","","","","","","",""
"","ISI","","html-keyboard-response","302","305345","0.0-1.0-417.0","0","0","51444","","null","","","null","46","NaN","","","","","","","","","","","","","","",""
"","S2","","html-keyboard-response","303","305609","0.0-1.0-418.0","0","0","51444","","null","","","null","46","","NaN","","","","","","","","","","","","","",""
"","response","","html-keyboard-response","304","305871","0.0-1.0-419.0-0.0","0","0","51444","","256","","","75","46","","","1","46","training","adjacent","ED","5","4","P.jpg","Q.jpg","0","0","1","",""
"","feedback","","html-keyboard-response","305","306880","0.0-1.0-420.0-0.0","0","0","51444","","null","","","null","46","","","","","","","","","","","","","","","",""
"","ITI","","html-keyboard-response","306","307892","0.0-1.0-423.0","0","0","51444","","null","","","null","46","","","","","","","","","","","","","","","NaN",""
"","S1","","html-keyboard-response","307","308288","0.0-1.0-425.0","0","0","51444","","null","","","null","47","","","","","","","","","","","","","","","",""
"","ISI","","html-keyboard-response","308","309299","0.0-1.0-426.0","0","0","51444","","null","","","null","47","NaN","","","","","","","","","","","","","","",""
"","S2","","html-keyboard-response","309","309561","0.0-1.0-427.0","0","0","51444","","null","","","null","47","","NaN","","","","","","","","","","","","","",""
"","response","","html-keyboard-response","310","310467","0.0-1.0-428.0-0.0","0","0","51444","","898","","","75","47","","","1","47","training","adjacent","CD","3","4","N.jpg","Q.jpg","0","1","0","",""
"","feedback","","html-keyboard-response","311","311473","0.0-1.0-429.0-0.0","0","0","51444","","null","","","null","47","","","","","","","","","","","","","","","",""
"","time_out","","html-keyboard-response","312","313480","0.0-1.0-431.0-0.0","0","0","51444","","null","","","null","47","","","","","","","","","","","","","","","",""
"","ITI","","html-keyboard-response","313","314489","0.0-1.0-432.0","0","0","51444","","null","","","null","47","","","","","","","","","","","","","","","NaN",""
"","block_over","","html-keyboard-response","314","319881","0.0-1.0-433.0-0.0","0","0","51444","","5381","","","32","47","","","","","","","","","","","","","","","",""
"","S1","","html-keyboard-response","315","320371","0.0-1.0-434.0","0","0","51444","","null","","","null","48","","","","","","","","","","","","","","","",""
"","ISI","","html-keyboard-response","316","321384","0.0-1.0-435.0","0","0","51444","","326","","","68","48","d","","","","","","","","","","","","","","",""
"","S2","","html-keyboard-response","317","321641","0.0-1.0-436.0","0","0","51444","","null","","","null","48","","NaN","","","","","","","","","","","","","",""
"","response","","html-keyboard-response","318","322283","0.0-1.0-437.0-0.0","0","0","51444","","637","","","68","48","","","2","48","training","adjacent","GF","7","6","R.jpg","L.jpg","1","0","0","",""
"","feedback","","html-keyboard-response","319","323288","0.0-1.0-438.0-0.0","0","0","51444","","null","","","null","48","","","","","","","","","","","","","","","",""
"","time_out","","html-keyboard-response","320","325296","0.0-1.0-440.0-0.0","0","0","51444","","null","","","null","48","","","","","","","","","","","","","","","",""
"","ITI","","html-keyboard-response","321","326330","0.0-1.0-441.0","0","0","51444","","null","","","null","48","","","","","","","","","","","","","","","NaN",""
"","S1","","html-keyboard-response","322","326601","0.0-1.0-443.0","0","0","51444","","null","","","null","49","","","","","","","","","","","","","","","",""
"","ISI","","html-keyboard-response","323","327609","0.0-1.0-444.0","0","0","51444","","null","","","null","49","NaN","","","","","","","","","","","","","","",""
"","S2","","html-keyboard-response","324","327873","0.0-1.0-445.0","0","0","51444","","null","","","null","49","","NaN","","","","","","","","","","","","","",""
"","response","","html-keyboard-response","325","328457","0.0-1.0-446.0-0.0","0","0","51444","","559","","","75","49","","","2","49","training","adjacent","DE","4","5","Q.jpg","P.jpg","0","1","0","",""
"","feedback","","html-keyboard-response","326","329481","0.0-1.0-447.0-0.0","0","0","51444","","null","","","null","49","","","","","","","","","","","","","","","",""
"","time_out","","html-keyboard-response","327","331489","0.0-1.0-449.0-0.0","0","0","51444","","null","","","null","49","","","","","","","","","","","","","","","",""
"","ITI","","html-keyboard-response","328","332503","0.0-1.0-450.0","0","0","51444","","null","","","null","49","","","","","","","","","","","","","","","NaN",""
"","S1","","html-keyboard-response","329","332789","0.0-1.0-452.0","0","0","51444","","null","","","null","50","","","","","","","","","","","","","","","",""
"","ISI","","html-keyboard-response","330","333810","0.0-1.0-453.0","0","0","51444","","null","","","null","50","NaN","","","","","","","","","","","","","","",""
"","S2","","html-keyboard-response","331","334260","0.0-1.0-454.0","0","0","51444","","null","","","null","50","","NaN","","","","","","","","","","","","","",""
"","response","","html-keyboard-response","332","334593","0.0-1.0-455.0-0.0","0","0","51444","","327","","","68","50","","","2","50","training","adjacent","CD","3","4","N.jpg","Q.jpg","1","1","1","",""
"","feedback","","html-keyboard-response","333","335601","0.0-1.0-456.0-0.0","0","0","51444","","null","","","null","50","","","","","","","","","","","","","","","",""
"","ITI","","html-keyboard-response","334","336609","0.0-1.0-459.0","0","0","51444","","null","","","null","50","","","","","","","","","","","","","","","NaN",""
"","S1","","html-keyboard-response","335","336874","0.0-1.0-461.0","0","0","51444","","null","","","null","51","","","","","","","","","","","","","","","",""
"","ISI","","html-keyboard-response","336","337881","0.0-1.0-462.0","0","0","51444","","null","","","null","51","NaN","","","","","","","","","","","","","","",""
"","S2","","html-keyboard-response","337","338150","0.0-1.0-463.0","0","0","51444","","null","","","null","51","","NaN","","","","","","","","","","","","","",""
"","response","","html-keyboard-response","338","338577","0.0-1.0-464.0-0.0","0","0","51444","","407","","","68","51","","","2","51","training","adjacent","BA","2","1","O.jpg","M.jpg","1","0","0","",""
"","feedback","","html-keyboard-response","339","339597","0.0-1.0-465.0-0.0","0","0","51444","","null","","","null","51","","","","","","","","","","","","","","","",""
"","time_out","","html-keyboard-response","340","341624","0.0-1.0-467.0-0.0","0","0","51444","","null","","","null","51","","","","","","","","","","","","","","","",""
"","ITI","","html-keyboard-response","341","342672","0.0-1.0-468.0","0","0","51444","","null","","","null","51","","","","","","","","","","","","","","","NaN",""
"","S1","","html-keyboard-response","342","342945","0.0-1.0-470.0","0","0","51444","","null","","","null","52","","","","","","","","","","","","","","","",""
"","ISI","","html-keyboard-response","343","343954","0.0-1.0-471.0","0","0","51444","","467","","","75","52","k","","","","","","","","","","","","","","",""
"","S2","","html-keyboard-response","344","344401","0.0-1.0-472.0","0","0","51444","","null","","","null","52","","NaN","","","","","","","","","","","","","",""
"","response","","html-keyboard-response","345","344652","0.0-1.0-473.0-0.0","0","0","51444","","245","","","75","52","","","2","52","training","adjacent","BC","2","3","O.jpg","N.jpg","0","1","0","",""
"","feedback","","html-keyboard-response","346","345673","0.0-1.0-474.0-0.0","0","0","51444","","null","","","null","52","","","","","","","","","","","","","","","",""
"","time_out","","html-keyboard-response","347","347681","0.0-1.0-476.0-0.0","0","0","51444","","null","","","null","52","","","","","","","","","","","","","","","",""
"","ITI","","html-keyboard-response","348","348691","0.0-1.0-477.0","0","0","51444","","null","","","null","52","","","","","","","","","","","","","","","NaN",""
"","S1","","html-keyboard-response","349","348955","0.0-1.0-479.0","0","0","51444","","null","","","null","53","","","","","","","","","","","","","","","",""
"","ISI","","html-keyboard-response","350","349961","0.0-1.0-480.0","0","0","51444","","null","","","null","53","NaN","","","","","","","","","","","","","","",""
"","S2","","html-keyboard-response","351","350360","0.0-1.0-481.0","0","0","51444","","null","","","null","53","","NaN","","","","","","","","","","","","","",""
"","response","","html-keyboard-response","352","350751","0.0-1.0-482.0-0.0","0","0","51444","","385","","","68","53","","","2","53","training","adjacent","DE","4","5","Q.jpg","P.jpg","1","1","1","",""
"","feedback","","html-keyboard-response","353","351762","0.0-1.0-483.0-0.0","0","0","51444","","null","","","null","53","","","","","","","","","","","","","","","",""
"","ITI","","html-keyboard-response","354","352777","0.0-1.0-486.0","0","0","51444","","null","","","null","53","","","","","","","","","","","","","","","NaN",""
"","S1","","html-keyboard-response","355","353034","0.0-1.0-488.0","0","0","51444","","null","","","null","54","","","","","","","","","","","","","","","",""
"","ISI","","html-keyboard-response","356","354041","0.0-1.0-489.0","0","0","51444","","null","","","null","54","NaN","","","","","","","","","","","","","","",""
"","S2","","html-keyboard-response","357","354526","0.0-1.0-490.0","0","0","51444","","null","","","null","54","","NaN","","","","","","","","","","","","","",""
"","response","","html-keyboard-response","358","355283","0.0-1.0-491.0-0.0","0","0","51444","","753","","","75","54","","","2","54","training","adjacent","FG","6","7","L.jpg","R.jpg","0","1","0","",""
"","feedback","","html-keyboard-response","359","356549","0.0-1.0-492.0-0.0","0","0","51444","","null","","","null","54","","","","","","","","","","","","","","","",""
"","time_out","","html-keyboard-response","360","358566","0.0-1.0-494.0-0.0","0","0","51444","","null","","","null","54","","","","","","","","","","","","","","","",""
"","ITI","","html-keyboard-response","361","359577","0.0-1.0-495.0","0","0","51444","","null","","","null","54","","","","","","","","","","","","","","","NaN",""
"","S1","","html-keyboard-response","362","359834","0.0-1.0-497.0","0","0","51444","","null","","","null","55","","","","","","","","","","","","","","","",""
"","ISI","","html-keyboard-response","363","360842","0.0-1.0-498.0","0","0","51444","","null","","","null","55","NaN","","","","","","","","","","","","","","",""
"","S2","","html-keyboard-response","364","361116","0.0-1.0-499.0","0","0","51444","","null","","","null","55","","NaN","","","","","","","","","","","","","",""
"","response","","html-keyboard-response","365","361764","0.0-1.0-500.0-0.0","0","0","51444","","643","","","68","55","","","2","55","training","adjacent","ED","5","4","P.jpg","Q.jpg","1","0","0","",""
"","feedback","","html-keyboard-response","366","362777","0.0-1.0-501.0-0.0","0","0","51444","","null","","","null","55","","","","","","","","","","","","","","","",""
"","time_out","","html-keyboard-response","367","364786","0.0-1.0-503.0-0.0","0","0","51444","","null","","","null","55","","","","","","","","","","","","","","","",""
"","ITI","","html-keyboard-response","368","365792","0.0-1.0-504.0","0","0","51444","","null","","","null","55","","","","","","","","","","","","","","","NaN",""
"","S1","","html-keyboard-response","369","366048","0.0-1.0-506.0","0","0","51444","","null","","","null","56","","","","","","","","","","","","","","","",""
"","ISI","","html-keyboard-response","370","367057","0.0-1.0-507.0","0","0","51444","","null","","","null","56","NaN","","","","","","","","","","","","","","",""
"","S2","","html-keyboard-response","371","367321","0.0-1.0-508.0","0","0","51444","","null","","","null","56","","NaN","","","","","","","","","","","","","",""
"","response","","html-keyboard-response","372","367361","0.0-1.0-509.0-0.0","0","0","51444","","33","","","75","56","","","2","56","training","adjacent","ED","5","4","P.jpg","Q.jpg","0","0","1","",""
"","feedback","","html-keyboard-response","373","368384","0.0-1.0-510.0-0.0","0","0","51444","","null","","","null","56","","","","","","","","","","","","","","","",""
"","ITI","","html-keyboard-response","374","369402","0.0-1.0-513.0","0","0","51444","","null","","","null","56","","","","","","","","","","","","","","","NaN",""
"","S1","","html-keyboard-response","375","369666","0.0-1.0-515.0","0","0","51444","","null","","","null","57","","","","","","","","","","","","","","","",""
"","ISI","","html-keyboard-response","376","370674","0.0-1.0-516.0","0","0","51444","","null","","","null","57","NaN","","","","","","","","","","","","","","",""
"","S2","","html-keyboard-response","377","370951","0.0-1.0-517.0","0","0","51444","","null","","","null","57","","NaN","","","","","","","","","","","","","",""
"","response","","html-keyboard-response","378","371294","0.0-1.0-518.0-0.0","0","0","51444","","338","","","75","57","","","2","57","training","adjacent","CB","3","2","N.jpg","O.jpg","0","0","1","",""
"","feedback","","html-keyboard-response","379","372325","0.0-1.0-519.0-0.0","0","0","51444","","null","","","null","57","","","","","","","","","","","","","","","",""
"","ITI","","html-keyboard-response","380","373337","0.0-1.0-522.0","0","0","51444","","null","","","null","57","","","","","","","","","","","","","","","NaN",""
"","S1","","html-keyboard-response","381","373603","0.0-1.0-524.0","0","0","51444","","null","","","null","58","","","","","","","","","","","","","","","",""
"","ISI","","html-keyboard-response","382","374608","0.0-1.0-525.0","0","0","51444","","null","","","null","58","NaN","","","","","","","","","","","","","","",""
"","S2","","html-keyboard-response","383","374864","0.0-1.0-526.0","0","0","51444","","null","","","null","58","","NaN","","","","","","","","","","","","","",""
"","response","","html-keyboard-response","384","375095","0.0-1.0-527.0-0.0","0","0","51444","","225","","","75","58","","","2","58","training","adjacent","FG","6","7","L.jpg","R.jpg","0","1","0","",""
"","feedback","","html-keyboard-response","385","376104","0.0-1.0-528.0-0.0","0","0","51444","","null","","","null","58","","","","","","","","","","","","","","","",""
"","time_out","","html-keyboard-response","386","378112","0.0-1.0-530.0-0.0","0","0","51444","","null","","","null","58","","","","","","","","","","","","","","","",""
"","ITI","","html-keyboard-response","387","379125","0.0-1.0-531.0","0","0","51444","","null","","","null","58","","","","","","","","","","","","","","","NaN",""
"","S1","","html-keyboard-response","388","379392","0.0-1.0-533.0","0","0","51444","","null","","","null","59","","","","","","","","","","","","","","","",""
"","ISI","","html-keyboard-response","389","380415","0.0-1.0-534.0","0","0","51444","","317","","","68","59","d","","","","","","","","","","","","","","",""
"","S2","","html-keyboard-response","390","380681","0.0-1.0-535.0","0","0","51444","","null","","","null","59","","NaN","","","","","","","","","","","","","",""
"","response","","html-keyboard-response","391","380816","0.0-1.0-536.0-0.0","0","0","51444","","129","","","68","59","","","2","59","training","adjacent","EF","5","6","P.jpg","L.jpg","1","1","1","",""
"","feedback","","html-keyboard-response","392","381825","0.0-1.0-537.0-0.0","0","0","51444","","null","","","null","59","","","","","","","","","","","","","","","",""
"","ITI","","html-keyboard-response","393","382832","0.0-1.0-540.0","0","0","51444","","null","","","null","59","","","","","","","","","","","","","","","NaN",""
"","S1","","html-keyboard-response","394","383089","0.0-1.0-542.0","0","0","51444","","null","","","null","60","","","","","","","","","","","","","","","",""
"","ISI","","html-keyboard-response","395","384278","0.0-1.0-543.0","0","0","51444","","null","","","null","60","NaN","","","","","","","","","","","","","","",""
"","S2","","html-keyboard-response","396","384547","0.0-1.0-544.0","0","0","51444","","null","","","null","60","","NaN","","","","","","","","","","","","","",""
"","response","","html-keyboard-response","397","384873","0.0-1.0-545.0-0.0","0","0","51444","","320","","","68","60","","","2","60","training","adjacent","DC","4","3","Q.jpg","N.jpg","1","0","0","",""
"","feedback","","html-keyboard-response","398","385881","0.0-1.0-546.0-0.0","0","0","51444","","null","","","null","60","","","","","","","","","","","","","","","",""
"","time_out","","html-keyboard-response","399","387889","0.0-1.0-548.0-0.0","0","0","51444","","null","","","null","60","","","","","","","","","","","","","","","",""
"","ITI","","html-keyboard-response","400","388897","0.0-1.0-549.0","0","0","51444","","null","","","null","60","","","","","","","","","","","","","","","NaN",""
"","S1","","html-keyboard-response","401","389167","0.0-1.0-551.0","0","0","51444","","null","","","null","61","","","","","","","","","","","","","","","",""
"","ISI","","html-keyboard-response","402","390285","0.0-1.0-552.0","0","0","51444","","264","","","75","61","k","","","","","","","","","","","","","","",""
"","S2","","html-keyboard-response","403","390544","0.0-1.0-553.0","0","0","51444","","null","","","null","61","","NaN","","","","","","","","","","","","","",""
"","response","","html-keyboard-response","404","390739","0.0-1.0-554.0-0.0","0","0","51444","","188","","","75","61","","","2","61","training","adjacent","CD","3","4","N.jpg","Q.jpg","0","1","0","",""
"","feedback","","html-keyboard-response","405","391756","0.0-1.0-555.0-0.0","0","0","51444","","null","","","null","61","","","","","","","","","","","","","","","",""
"","time_out","","html-keyboard-response","406","393768","0.0-1.0-557.0-0.0","0","0","51444","","null","","","null","61","","","","","","","","","","","","","","","",""
"","ITI","","html-keyboard-response","407","394794","0.0-1.0-558.0","0","0","51444","","null","","","null","61","","","","","","","","","","","","","","","NaN",""
"","S1","","html-keyboard-response","408","395057","0.0-1.0-560.0","0","0","51444","","null","","","null","62","","","","","","","","","","","","","","","",""
"","ISI","","html-keyboard-response","409","396064","0.0-1.0-561.0","0","0","51444","","null","","","null","62","NaN","","","","","","","","","","","","","","",""
"","S2","","html-keyboard-response","410","396322","0.0-1.0-562.0","0","0","51444","","null","","","null","62","","NaN","","","","","","","","","","","","","",""
"","response","","html-keyboard-response","411","396442","0.0-1.0-563.0-0.0","0","0","51444","","109","","","68","62","","","2","62","training","adjacent","BA","2","1","O.jpg","M.jpg","1","0","0","",""
"","feedback","","html-keyboard-response","412","397449","0.0-1.0-564.0-0.0","0","0","51444","","null","","","null","62","","","","","","","","","","","","","","","",""
"","time_out","","html-keyboard-response","413","399456","0.0-1.0-566.0-0.0","0","0","51444","","null","","","null","62","","","","","","","","","","","","","","","",""
"","ITI","","html-keyboard-response","414","400468","0.0-1.0-567.0","0","0","51444","","null","","","null","62","","","","","","","","","","","","","","","NaN",""
"","S1","","html-keyboard-response","415","400729","0.0-1.0-569.0","0","0","51444","","null","","","null","63","","","","","","","","","","","","","","","",""
"","ISI","","html-keyboard-response","416","401737","0.0-1.0-570.0","0","0","51444","","122","","","75","63","k","","","","","","","","","","","","","","",""
"","S2","","html-keyboard-response","417","402001","0.0-1.0-571.0","0","0","51444","","null","","","null","63","","NaN","","","","","","","","","","","","","",""
"","response","","html-keyboard-response","418","402081","0.0-1.0-572.0-0.0","0","0","51444","","75","","","75","63","","","2","63","training","adjacent","DE","4","5","Q.jpg","P.jpg","0","1","0","",""
"","feedback","","html-keyboard-response","419","403096","0.0-1.0-573.0-0.0","0","0","51444","","null","","","null","63","","","","","","","","","","","","","","","",""
"","time_out","","html-keyboard-response","420","405105","0.0-1.0-575.0-0.0","0","0","51444","","null","","","null","63","","","","","","","","","","","","","","","",""
"","ITI","","html-keyboard-response","421","406113","0.0-1.0-576.0","0","0","51444","","null","","","null","63","","","","","","","","","","","","","","","NaN",""
"","S1","","html-keyboard-response","422","406700","0.0-1.0-578.0","0","0","51444","","null","","","null","64","","","","","","","","","","","","","","","",""
"","ISI","","html-keyboard-response","423","407714","0.0-1.0-579.0","0","0","51444","","456","","","68","64","d","","","","","","","","","","","","","","",""
"","S2","","html-keyboard-response","424","407985","0.0-1.0-580.0","0","0","51444","","null","","","null","64","","NaN","","","","","","","","","","","","","",""
"","response","","html-keyboard-response","425","408438","0.0-1.0-581.0-0.0","0","0","51444","","434","","","68","64","","","2","64","training","adjacent","DC","4","3","Q.jpg","N.jpg","1","0","0","",""
"","feedback","","html-keyboard-response","426","409449","0.0-1.0-582.0-0.0","0","0","51444","","null","","","null","64","","","","","","","","","","","","","","","",""
"","time_out","","html-keyboard-response","427","411467","0.0-1.0-584.0-0.0","0","0","51444","","null","","","null","64","","","","","","","","","","","","","","","",""
"","ITI","","html-keyboard-response","428","412490","0.0-1.0-585.0","0","0","51444","","null","","","null","64","","","","","","","","","","","","","","","NaN",""
"","S1","","html-keyboard-response","429","412784","0.0-1.0-587.0","0","0","51444","","null","","","null","65","","","","","","","","","","","","","","","",""
"","ISI","","html-keyboard-response","430","413792","0.0-1.0-588.0","0","0","51444","","507","","","75","65","k","","","","","","","","","","","","","","",""
"","S2","","html-keyboard-response","431","414049","0.0-1.0-589.0","0","0","51444","","null","","","null","65","","NaN","","","","","","","","","","","","","",""
"","response","","html-keyboard-response","432","414374","0.0-1.0-590.0-0.0","0","0","51444","","316","","","75","65","","","2","65","training","adjacent","DE","4","5","Q.jpg","P.jpg","0","1","0","",""
"","feedback","","html-keyboard-response","433","415384","0.0-1.0-591.0-0.0","0","0","51444","","null","","","null","65","","","","","","","","","","","","","","","",""
"","time_out","","html-keyboard-response","434","417394","0.0-1.0-593.0-0.0","0","0","51444","","null","","","null","65","","","","","","","","","","","","","","","",""
"","ITI","","html-keyboard-response","435","418424","0.0-1.0-594.0","0","0","51444","","null","","","null","65","","","","","","","","","","","","","","","NaN",""
"","S1","","html-keyboard-response","436","418759","0.0-1.0-596.0","0","0","51444","","null","","","null","66","","","","","","","","","","","","","","","",""
"","ISI","","html-keyboard-response","437","419784","0.0-1.0-597.0","0","0","51444","","429","","","68","66","d","","","","","","","","","","","","","","",""
"","S2","","html-keyboard-response","438","420041","0.0-1.0-598.0","0","0","51444","","null","","","null","66","","NaN","","","","","","","","","","","","","",""
"","response","","html-keyboard-response","439","420266","0.0-1.0-599.0-0.0","0","0","51444","","219","","","68","66","","","2","66","training","adjacent","BA","2","1","O.jpg","M.jpg","1","0","0","",""
"","feedback","","html-keyboard-response","440","421282","0.0-1.0-600.0-0.0","0","0","51444","","null","","","null","66","","","","","","","","","","","","","","","",""
"","time_out","","html-keyboard-response","441","423288","0.0-1.0-602.0-0.0","0","0","51444","","null","","","null","66","","","","","","","","","","","","","","","",""
"","ITI","","html-keyboard-response","442","424562","0.0-1.0-603.0","0","0","51444","","null","","","null","66","","","","","","","","","","","","","","","NaN",""
"","S1","","html-keyboard-response","443","424872","0.0-1.0-605.0","0","0","51444","","null","","","null","67","","","","","","","","","","","","","","","",""
"","ISI","","html-keyboard-response","444","425897","0.0-1.0-606.0","0","0","51444","","null","","","null","67","NaN","","","","","","","","","","","","","","",""
"","S2","","html-keyboard-response","445","426431","0.0-1.0-607.0","0","0","51444","","529","","","75","67","","k","2","67","training","adjacent","FE","6","5","L.jpg","P.jpg","0","0","1","",""
"","feedback","","html-keyboard-response","446","427442","0.0-1.0-609.0-0.0","0","0","51444","","null","","","null","67","","","","","","","","","","","","","","","",""
"","ITI","","html-keyboard-response","447","428458","0.0-1.0-612.0","0","0","51444","","null","","","null","67","","","","","","","","","","","","","","","NaN",""
"","S1","","html-keyboard-response","448","428776","0.0-1.0-614.0","0","0","51444","","null","","","null","68","","","","","","","","","","","","","","","",""
"","ISI","","html-keyboard-response","449","429802","0.0-1.0-615.0","0","0","51444","","null","","","null","68","NaN","","","","","","","","","","","","","","",""
"","S2","","html-keyboard-response","450","430064","0.0-1.0-616.0","0","0","51444","","null","","","null","68","","NaN","","","","","","","","","","","","","",""
"","response","","html-keyboard-response","451","430530","0.0-1.0-617.0-0.0","0","0","51444","","426","","","75","68","","","2","68","training","adjacent","EF","5","6","P.jpg","L.jpg","0","1","0","",""
"","feedback","","html-keyboard-response","452","431553","0.0-1.0-618.0-0.0","0","0","51444","","null","","","null","68","","","","","","","","","","","","","","","",""
"","time_out","","html-keyboard-response","453","433561","0.0-1.0-620.0-0.0","0","0","51444","","null","","","null","68","","","","","","","","","","","","","","","",""
"","ITI","","html-keyboard-response","454","434570","0.0-1.0-621.0","0","0","51444","","null","","","null","68","","","","","","","","","","","","","","","NaN",""
"","S1","","html-keyboard-response","455","434840","0.0-1.0-623.0","0","0","51444","","null","","","null","69","","","","","","","","","","","","","","","",""
"","ISI","","html-keyboard-response","456","436003","0.0-1.0-624.0","0","0","51444","","null","","","null","69","NaN","","","","","","","","","","","","","","",""
"","S2","","html-keyboard-response","457","436296","0.0-1.0-625.0","0","0","51444","","null","","","null","69","","NaN","","","","","","","","","","","","","",""
"","response","","html-keyboard-response","458","436830","0.0-1.0-626.0-0.0","0","0","51444","","527","","","68","69","","","2","69","training","adjacent","GF","7","6","R.jpg","L.jpg","1","0","0","",""
"","feedback","","html-keyboard-response","459","437842","0.0-1.0-627.0-0.0","0","0","51444","","null","","","null","69","","","","","","","","","","","","","","","",""
"","time_out","","html-keyboard-response","460","439849","0.0-1.0-629.0-0.0","0","0","51444","","null","","","null","69","","","","","","","","","","","","","","","",""
"","ITI","","html-keyboard-response","461","440857","0.0-1.0-630.0","0","0","51444","","null","","","null","69","","","","","","","","","","","","","","","NaN",""
"","S1","","html-keyboard-response","462","441121","0.0-1.0-632.0","0","0","51444","","null","","","null","70","","","","","","","","","","","","","","","",""
"","ISI","","html-keyboard-response","463","442343","0.0-1.0-633.0","0","0","51444","","null","","","null","70","NaN","","","","","","","","","","","","","","",""
"","S2","","html-keyboard-response","464","442629","0.0-1.0-634.0","0","0","51444","","null","","","null","70","","NaN","","","","","","","","","","","","","",""
"","response","","html-keyboard-response","465","443322","0.0-1.0-635.0-0.0","0","0","51444","","687","","","75","70","","","2","70","training","adjacent","AB","1","2","M.jpg","O.jpg","0","1","0","",""
"","feedback","","html-keyboard-response","466","444424","0.0-1.0-636.0-0.0","0","0","51444","","null","","","null","70","","","","","","","","","","","","","","","",""
"","time_out","","html-keyboard-response","467","446462","0.0-1.0-638.0-0.0","0","0","51444","","null","","","null","70","","","","","","","","","","","","","","","",""
"","ITI","","html-keyboard-response","468","447472","0.0-1.0-639.0","0","0","51444","","null","","","null","70","","","","","","","","","","","","","","","NaN",""
"","S1","","html-keyboard-response","469","447729","0.0-1.0-641.0","0","0","51444","","null","","","null","71","","","","","","","","","","","","","","","",""
"","ISI","","html-keyboard-response","470","448737","0.0-1.0-642.0","0","0","51444","","null","","","null","71","NaN","","","","","","","","","","","","","","",""
"","S2","","html-keyboard-response","471","448996","0.0-1.0-643.0","0","0","51444","","null","","","null","71","","NaN","","","","","","","","","","","","","",""
"","response","","html-keyboard-response","472","449515","0.0-1.0-644.0-0.0","0","0","51444","","507","","","75","71","","","2","71","training","adjacent","FG","6","7","L.jpg","R.jpg","0","1","0","",""
"","feedback","","html-keyboard-response","473","450538","0.0-1.0-645.0-0.0","0","0","51444","","null","","","null","71","","","","","","","","","","","","","","","",""
"","time_out","","html-keyboard-response","474","452580","0.0-1.0-647.0-0.0","0","0","51444","","null","","","null","71","","","","","","","","","","","","","","","",""
"","ITI","","html-keyboard-response","475","453593","0.0-1.0-648.0","0","0","51444","","null","","","null","71","","","","","","","","","","","","","","","NaN",""
"","S1","","html-keyboard-response","476","453849","0.0-1.0-650.0","0","0","51444","","null","","","null","72","","","","","","","","","","","","","","","",""
"","ISI","","html-keyboard-response","477","454857","0.0-1.0-651.0","0","0","51444","","null","","","null","72","NaN","","","","","","","","","","","","","","",""
"","S2","","html-keyboard-response","478","455113","0.0-1.0-652.0","0","0","51444","","null","","","null","72","","NaN","","","","","","","","","","","","","",""
"","response","","html-keyboard-response","479","455245","0.0-1.0-653.0-0.0","0","0","51444","","117","","","75","72","","","2","72","training","adjacent","CB","3","2","N.jpg","O.jpg","0","0","1","",""
"","feedback","","html-keyboard-response","480","456257","0.0-1.0-654.0-0.0","0","0","51444","","null","","","null","72","","","","","","","","","","","","","","","",""
"","ITI","","html-keyboard-response","481","457321","0.0-1.0-657.0","0","0","51444","","null","","","null","72","","","","","","","","","","","","","","","NaN",""
"","S1","","html-keyboard-response","482","457593","0.0-1.0-659.0","0","0","51444","","null","","","null","73","","","","","","","","","","","","","","","",""
"","ISI","","html-keyboard-response","483","458618","0.0-1.0-660.0","0","0","51444","","null","","","null","73","NaN","","","","","","","","","","","","","","",""
"","S2","","html-keyboard-response","484","458910","0.0-1.0-661.0","0","0","51444","","null","","","null","73","","NaN","","","","","","","","","","","","","",""
"","response","","html-keyboard-response","485","459095","0.0-1.0-662.0-0.0","0","0","51444","","172","","","75","73","","","2","73","training","adjacent","FE","6","5","L.jpg","P.jpg","0","0","1","",""
"","feedback","","html-keyboard-response","486","460419","0.0-1.0-663.0-0.0","0","0","51444","","null","","","null","73","","","","","","","","","","","","","","","",""
"","ITI","","html-keyboard-response","487","461435","0.0-1.0-666.0","0","0","51444","","null","","","null","73","","","","","","","","","","","","","","","NaN",""
"","S1","","html-keyboard-response","488","461698","0.0-1.0-668.0","0","0","51444","","null","","","null","74","","","","","","","","","","","","","","","",""
"","ISI","","html-keyboard-response","489","462718","0.0-1.0-669.0","0","0","51444","","null","","","null","74","NaN","","","","","","","","","","","","","","",""
"","S2","","html-keyboard-response","490","462977","0.0-1.0-670.0","0","0","51444","","null","","","null","74","","NaN","","","","","","","","","","","","","",""
"","response","","html-keyboard-response","491","463016","0.0-1.0-671.0-0.0","0","0","51444","","33","","","75","74","","","2","74","training","adjacent","FE","6","5","L.jpg","P.jpg","0","0","1","",""
"","feedback","","html-keyboard-response","492","464025","0.0-1.0-672.0-0.0","0","0","51444","","null","","","null","74","","","","","","","","","","","","","","","",""
"","ITI","","html-keyboard-response","493","465032","0.0-1.0-675.0","0","0","51444","","null","","","null","74","","","","","","","","","","","","","","","NaN",""
"","S1","","html-keyboard-response","494","465289","0.0-1.0-677.0","0","0","51444","","null","","","null","75","","","","","","","","","","","","","","","",""
"","ISI","","html-keyboard-response","495","466297","0.0-1.0-678.0","0","0","51444","","null","","","null","75","NaN","","","","","","","","","","","","","","",""
"","S2","","html-keyboard-response","496","466553","0.0-1.0-679.0","0","0","51444","","null","","","null","75","","NaN","","","","","","","","","","","","","",""
"","response","","html-keyboard-response","497","466570","0.0-1.0-680.0-0.0","0","0","51444","","11","","","75","75","","","2","75","training","adjacent","BA","2","1","O.jpg","M.jpg","0","0","1","",""
"","feedback","","html-keyboard-response","498","467576","0.0-1.0-681.0-0.0","0","0","51444","","null","","","null","75","","","","","","","","","","","","","","","",""
"","ITI","","html-keyboard-response","499","468950","0.0-1.0-684.0","0","0","51444","","null","","","null","75","","","","","","","","","","","","","","","NaN",""
"","S1","","html-keyboard-response","500","469221","0.0-1.0-686.0","0","0","51444","","null","","","null","76","","","","","","","","","","","","","","","",""
"","ISI","","html-keyboard-response","501","470372","0.0-1.0-687.0","0","0","51444","","null","","","null","76","NaN","","","","","","","","","","","","","","",""
"","S2","","html-keyboard-response","502","470639","0.0-1.0-688.0","0","0","51444","","null","","","null","76","","NaN","","","","","","","","","","","","","",""
"","response","","html-keyboard-response","503","470666","0.0-1.0-689.0-0.0","0","0","51444","","19","","","75","76","","","2","76","training","adjacent","CB","3","2","N.jpg","O.jpg","0","0","1","",""
"","feedback","","html-keyboard-response","504","471673","0.0-1.0-690.0-0.0","0","0","51444","","null","","","null","76","","","","","","","","","","","","","","","",""
"","ITI","","html-keyboard-response","505","472680","0.0-1.0-693.0","0","0","51444","","null","","","null","76","","","","","","","","","","","","","","","NaN",""
"","S1","","html-keyboard-response","506","472951","0.0-1.0-695.0","0","0","51444","","null","","","null","77","","","","","","","","","","","","","","","",""
"","ISI","","html-keyboard-response","507","473969","0.0-1.0-696.0","0","0","51444","","null","","","null","77","NaN","","","","","","","","","","","","","","",""
"","S2","","html-keyboard-response","508","474393","0.0-1.0-697.0","0","0","51444","","null","","","null","77","","NaN","","","","","","","","","","","","","",""
"","response","","html-keyboard-response","509","474662","0.0-1.0-698.0-0.0","0","0","51444","","243","","","75","77","","","2","77","training","adjacent","DC","4","3","Q.jpg","N.jpg","0","0","1","",""
"","feedback","","html-keyboard-response","510","475682","0.0-1.0-699.0-0.0","0","0","51444","","null","","","null","77","","","","","","","","","","","","","","","",""
"","ITI","","html-keyboard-response","511","476691","0.0-1.0-702.0","0","0","51444","","null","","","null","77","","","","","","","","","","","","","","","NaN",""
"","S1","","html-keyboard-response","512","476953","0.0-1.0-704.0","0","0","51444","","null","","","null","78","","","","","","","","","","","","","","","",""
"","ISI","","html-keyboard-response","513","477961","0.0-1.0-705.0","0","0","51444","","null","","","null","78","NaN","","","","","","","","","","","","","","",""
"","S2","","html-keyboard-response","514","478612","0.0-1.0-706.0","0","0","51444","","643","","","75","78","","k","2","78","training","adjacent","ED","5","4","P.jpg","Q.jpg","0","0","1","",""
"","feedback","","html-keyboard-response","515","479628","0.0-1.0-708.0-0.0","0","0","51444","","null","","","null","78","","","","","","","","","","","","","","","",""
"","ITI","","html-keyboard-response","516","480656","0.0-1.0-711.0","0","0","51444","","null","","","null","78","","","","","","","","","","","","","","","NaN",""
"","S1","","html-keyboard-response","517","480921","0.0-1.0-713.0","0","0","51444","","null","","","null","79","","","","","","","","","","","","","","","",""
"","ISI","","html-keyboard-response","518","481929","0.0-1.0-714.0","0","0","51444","","null","","","null","79","NaN","","","","","","","","","","","","","","",""
"","S2","","html-keyboard-response","519","482428","0.0-1.0-715.0","0","0","51444","","492","","","68","79","","d","2","79","training","adjacent","EF","5","6","P.jpg","L.jpg","1","1","1","",""
"","feedback","","html-keyboard-response","520","483443","0.0-1.0-717.0-0.0","0","0","51444","","null","","","null","79","","","","","","","","","","","","","","","",""
"","ITI","","html-keyboard-response","521","484481","0.0-1.0-720.0","0","0","51444","","null","","","null","79","","","","","","","","","","","","","","","NaN",""
"","S1","","html-keyboard-response","522","484816","0.0-1.0-722.0","0","0","51444","","null","","","null","80","","","","","","","","","","","","","","","",""
"","ISI","","html-keyboard-response","523","485834","0.0-1.0-723.0","0","0","51444","","524","","","68","80","d","","","","","","","","","","","","","","",""
"","S2","","html-keyboard-response","524","486097","0.0-1.0-724.0","0","0","51444","","null","","","null","80","","NaN","","","","","","","","","","","","","",""
"","response","","html-keyboard-response","525","486461","0.0-1.0-725.0-0.0","0","0","51444","","336","","","68","80","","","2","80","training","adjacent","CB","3","2","N.jpg","O.jpg","1","0","0","",""
"","feedback","","html-keyboard-response","526","487480","0.0-1.0-726.0-0.0","0","0","51444","","null","","","null","80","","","","","","","","","","","","","","","",""
"","time_out","","html-keyboard-response","527","489490","0.0-1.0-728.0-0.0","0","0","51444","","null","","","null","80","","","","","","","","","","","","","","","",""
"","ITI","","html-keyboard-response","528","490518","0.0-1.0-729.0","0","0","51444","","null","","","null","80","","","","","","","","","","","","","","","NaN",""
"","S1","","html-keyboard-response","529","490848","0.0-1.0-731.0","0","0","51444","","null","","","null","81","","","","","","","","","","","","","","","",""
"","ISI","","html-keyboard-response","530","491872","0.0-1.0-732.0","0","0","51444","","87","","","75","81","k","","","","","","","","","","","","","","",""
"","S2","","html-keyboard-response","531","492351","0.0-1.0-733.0","0","0","51444","","null","","","null","81","","NaN","","","","","","","","","","","","","",""
"","response","","html-keyboard-response","532","492830","0.0-1.0-734.0-0.0","0","0","51444","","474","","","75","81","","","2","81","training","adjacent","GF","7","6","R.jpg","L.jpg","0","0","1","",""
"","feedback","","html-keyboard-response","533","493841","0.0-1.0-735.0-0.0","0","0","51444","","null","","","null","81","","","","","","","","","","","","","","","",""
"","ITI","","html-keyboard-response","534","494857","0.0-1.0-738.0","0","0","51444","","null","","","null","81","","","","","","","","","","","","","","","NaN",""
"","S1","","html-keyboard-response","535","495125","0.0-1.0-740.0","0","0","51444","","null","","","null","82","","","","","","","","","","","","","","","",""
"","ISI","","html-keyboard-response","536","496140","0.0-1.0-741.0","0","0","51444","","null","","","null","82","NaN","","","","","","","","","","","","","","",""
"","S2","","html-keyboard-response","537","496601","0.0-1.0-742.0","0","0","51444","","null","","","null","82","","NaN","","","","","","","","","","","","","",""
"","response","","html-keyboard-response","538","496649","0.0-1.0-743.0-0.0","0","0","51444","","33","","","75","82","","","2","82","training","adjacent","BC","2","3","O.jpg","N.jpg","0","1","0","",""
"","feedback","","html-keyboard-response","539","497681","0.0-1.0-744.0-0.0","0","0","51444","","null","","","null","82","","","","","","","","","","","","","","","",""
"","time_out","","html-keyboard-response","540","499692","0.0-1.0-746.0-0.0","0","0","51444","","null","","","null","82","","","","","","","","","","","","","","","",""
"","ITI","","html-keyboard-response","541","500712","0.0-1.0-747.0","0","0","51444","","null","","","null","82","","","","","","","","","","","","","","","NaN",""
"","S1","","html-keyboard-response","542","500977","0.0-1.0-749.0","0","0","51444","","null","","","null","83","","","","","","","","","","","","","","","",""
"","ISI","","html-keyboard-response","543","501985","0.0-1.0-750.0","0","0","51444","","null","","","null","83","NaN","","","","","","","","","","","","","","",""
"","S2","","html-keyboard-response","544","502409","0.0-1.0-751.0","0","0","51444","","404","","","68","83","","d","2","83","training","adjacent","EF","5","6","P.jpg","L.jpg","1","1","1","",""
"","feedback","","html-keyboard-response","545","503416","0.0-1.0-753.0-0.0","0","0","51444","","null","","","null","83","","","","","","","","","","","","","","","",""
"","ITI","","html-keyboard-response","546","504520","0.0-1.0-756.0","0","0","51444","","null","","","null","83","","","","","","","","","","","","","","","NaN",""
"","S1","","html-keyboard-response","547","504784","0.0-1.0-758.0","0","0","51444","","null","","","null","84","","","","","","","","","","","","","","","",""
"","ISI","","html-keyboard-response","548","505793","0.0-1.0-759.0","0","0","51444","","null","","","null","84","NaN","","","","","","","","","","","","","","",""
"","S2","","html-keyboard-response","549","506056","0.0-1.0-760.0","0","0","51444","","null","","","null","84","","NaN","","","","","","","","","","","","","",""
"","response","","html-keyboard-response","550","506380","0.0-1.0-761.0-0.0","0","0","51444","","300","","","75","84","","","2","84","training","adjacent","AB","1","2","M.jpg","O.jpg","0","1","0","",""
"","feedback","","html-keyboard-response","551","507400","0.0-1.0-762.0-0.0","0","0","51444","","null","","","null","84","","","","","","","","","","","","","","","",""
"","time_out","","html-keyboard-response","552","509409","0.0-1.0-764.0-0.0","0","0","51444","","null","","","null","84","","","","","","","","","","","","","","","",""
"","ITI","","html-keyboard-response","553","510440","0.0-1.0-765.0","0","0","51444","","null","","","null","84","","","","","","","","","","","","","","","NaN",""
"","S1","","html-keyboard-response","554","510697","0.0-1.0-767.0","0","0","51444","","null","","","null","85","","","","","","","","","","","","","","","",""
"","ISI","","html-keyboard-response","555","511707","0.0-1.0-768.0","0","0","51444","","null","","","null","85","NaN","","","","","","","","","","","","","","",""
"","S2","","html-keyboard-response","556","511969","0.0-1.0-769.0","0","0","51444","","null","","","null","85","","NaN","","","","","","","","","","","","","",""
"","response","","html-keyboard-response","557","512036","0.0-1.0-770.0-0.0","0","0","51444","","62","","","68","85","","","2","85","training","adjacent","BC","2","3","O.jpg","N.jpg","1","1","1","",""
"","feedback","","html-keyboard-response","558","513141","0.0-1.0-771.0-0.0","0","0","51444","","null","","","null","85","","","","","","","","","","","","","","","",""
"","ITI","","html-keyboard-response","559","514408","0.0-1.0-774.0","0","0","51444","","null","","","null","85","","","","","","","","","","","","","","","NaN",""
"","S1","","html-keyboard-response","560","514750","0.0-1.0-776.0","0","0","51444","","null","","","null","86","","","","","","","","","","","","","","","",""
"","ISI","","html-keyboard-response","561","515761","0.0-1.0-777.0","0","0","51444","","null","","","null","86","NaN","","","","","","","","","","","","","","",""
"","S2","","html-keyboard-response","562","516025","0.0-1.0-778.0","0","0","51444","","null","","","null","86","","NaN","","","","","","","","","","","","","",""
"","response","","html-keyboard-response","563","516096","0.0-1.0-779.0-0.0","0","0","51444","","65","","","68","86","","","2","86","training","adjacent","GF","7","6","R.jpg","L.jpg","1","0","0","",""
"","feedback","","html-keyboard-response","564","517106","0.0-1.0-780.0-0.0","0","0","51444","","null","","","null","86","","","","","","","","","","","","","","","",""
"","time_out","","html-keyboard-response","565","519961","0.0-1.0-782.0-0.0","0","0","51444","","null","","","null","86","","","","","","","","","","","","","","","",""
"","ITI","","html-keyboard-response","566","520988","0.0-1.0-783.0","0","0","51444","","null","","","null","86","","","","","","","","","","","","","","","NaN",""
"","S1","","html-keyboard-response","567","521250","0.0-1.0-785.0","0","0","51444","","null","","","null","87","","","","","","","","","","","","","","","",""
"","ISI","","html-keyboard-response","568","522258","0.0-1.0-786.0","0","0","51444","","null","","","null","87","NaN","","","","","","","","","","","","","","",""
"","S2","","html-keyboard-response","569","522527","0.0-1.0-787.0","0","0","51444","","null","","","null","87","","NaN","","","","","","","","","","","","","",""
"","response","","html-keyboard-response","570","523156","0.0-1.0-788.0-0.0","0","0","51444","","577","","","75","87","","","2","87","training","adjacent","FE","6","5","L.jpg","P.jpg","0","0","1","",""
"","feedback","","html-keyboard-response","571","524383","0.0-1.0-789.0-0.0","0","0","51444","","null","","","null","87","","","","","","","","","","","","","","","",""
"","ITI","","html-keyboard-response","572","525409","0.0-1.0-792.0","0","0","51444","","null","","","null","87","","","","","","","","","","","","","","","NaN",""
"","S1","","html-keyboard-response","573","525673","0.0-1.0-794.0","0","0","51444","","null","","","null","88","","","","","","","","","","","","","","","",""
"","ISI","","html-keyboard-response","574","526902","0.0-1.0-795.0","0","0","51444","","null","","","null","88","NaN","","","","","","","","","","","","","","",""
"","S2","","html-keyboard-response","575","527157","0.0-1.0-796.0","0","0","51444","","246","","","75","88","","k","2","88","training","adjacent","CD","3","4","N.jpg","Q.jpg","0","1","0","",""
"","feedback","","html-keyboard-response","576","528423","0.0-1.0-798.0-0.0","0","0","51444","","null","","","null","88","","","","","","","","","","","","","","","",""
"","time_out","","html-keyboard-response","577","530437","0.0-1.0-800.0-0.0","0","0","51444","","null","","","null","88","","","","","","","","","","","","","","","",""
"","ITI","","html-keyboard-response","578","531449","0.0-1.0-801.0","0","0","51444","","null","","","null","88","","","","","","","","","","","","","","","NaN",""
"","S1","","html-keyboard-response","579","531707","0.0-1.0-803.0","0","0","51444","","null","","","null","89","","","","","","","","","","","","","","","",""
"","ISI","","html-keyboard-response","580","532778","0.0-1.0-804.0","0","0","51444","","null","","","null","89","NaN","","","","","","","","","","","","","","",""
"","S2","","html-keyboard-response","581","533040","0.0-1.0-805.0","0","0","51444","","null","","","null","89","","NaN","","","","","","","","","","","","","",""
"","response","","html-keyboard-response","582","533090","0.0-1.0-806.0-0.0","0","0","51444","","34","","","68","89","","","2","89","training","adjacent","BC","2","3","O.jpg","N.jpg","1","1","1","",""
"","feedback","","html-keyboard-response","583","534658","0.0-1.0-807.0-0.0","0","0","51444","","null","","","null","89","","","","","","","","","","","","","","","",""
