"success","ttype","start_time","trial_type","trial_index","time_elapsed","internal_node_id","warning","missed_checkup","PID","view_history","rt","responses","repeat_instructions","key_press","index","keypress_isi","keypress_S2","block","trial_num","phase","group_type","pair_type","S1_stim","S2_stim","S1_img","S2_img","S1_chosen","S1_higher","accuracy","keypress_iti","total_bonus_tally"
"true","full_screen","d04132023hr1532","fullscreen","0","3106","0.0-0.0","0","0","70128","","","","","","","","","","","","","","","","","","","","","",""
"","instructions","","instructions","1","49719","0.0-1.0-0.0-0.0","0","0","70128","[{""page_index"":0,""viewing_time"":3598},{""page_index"":1,""viewing_time"":38043},{""page_index"":2,""viewing_time"":2475},{""page_index"":3,""viewing_time"":2494}]","46610","","","","","","","","","","","","","","","","","","","",""
"","comprehension_check","","survey-multi-choice","2","69999","0.0-1.0-0.0-1.0","0","0","70128","","20275","{""Q0"":""True"",""Q1"":""D"",""Q2"":""Only when the screen 'MAKE A CHOICE' is shown"",""Q3"":""Green mark"",""Q4"":""either D or K""}","1","","","","","","","","","","","","","","","","","",""
"","missed_instruction_checkup","","html-keyboard-response","3","71317","0.0-1.0-0.0-2.0-0.0","0","1","70128","","1314","","","32","","","","","","","","","","","","","","","","",""
"","instructions","","instructions","4","80277","0.0-1.0-0.1-0.1","0","0","70128","[{""page_index"":0,""viewing_time"":3230},{""page_index"":1,""viewing_time"":2146},{""page_index"":2,""viewing_time"":2216},{""page_index"":3,""viewing_time"":1367}]","8959","","","","","","","","","","","","","","","","","","","",""
"","comprehension_check","","survey-multi-choice","5","88847","0.0-1.0-0.1-1.1","0","0","70128","","8565","{""Q0"":""True"",""Q1"":""D"",""Q2"":""Once the second image appears and while the screen 'MAKE A CHOICE' is shown"",""Q3"":""Green mark"",""Q4"":""either D or K""}","0","","","","","","","","","","","","","","","","","",""
"","start_exp","","html-keyboard-response","6","90739","0.0-1.0-1.0","0","0","70128","","1890","","","32","","","","","","","","","","","","","","","","",""
"","S1","","html-keyboard-response","7","91000","0.0-1.0-2.0","0","0","70128","","null","","","null","0","","","","","","","","","","","","","","","",""
"","ISI","","html-keyboard-response","8","92004","0.0-1.0-3.0","0","0","70128","","null","","","null","0","NaN","","","","","","","","","","","","","","",""
"","S2","","html-keyboard-response","9","92260","0.0-1.0-4.0","0","0","70128","","null","","","null","0","","NaN","","","","","","","","","","","","","",""
"","response","","html-keyboard-response","10","92673","0.0-1.0-5.0-0.0","0","0","70128","","411","","","68","0","","","1","0","training","adjacent","FG","6","7","N.jpg","R.jpg","1","1","1","",""
"","feedback","","html-keyboard-response","11","93683","0.0-1.0-6.0-0.0","0","0","70128","","null","","","null","0","","","","","","","","","","","","","","","",""
"","ITI","","html-keyboard-response","12","94695","0.0-1.0-9.0","0","0","70128","","null","","","null","0","","","","","","","","","","","","","","","NaN",""
"","S1","","html-keyboard-response","13","94953","0.0-1.0-11.0","0","0","70128","","null","","","null","1","","","","","","","","","","","","","","","",""
"","ISI","","html-keyboard-response","14","95958","0.0-1.0-12.0","0","0","70128","","null","","","null","1","NaN","","","","","","","","","","","","","","",""
"","S2","","html-keyboard-response","15","96216","0.0-1.0-13.0","0","0","70128","","null","","","null","1","","NaN","","","","","","","","","","","","","",""
"","response","","html-keyboard-response","16","97060","0.0-1.0-14.0-0.0","0","0","70128","","842","","","75","1","","","1","1","training","adjacent","ED","5","4","M.jpg","O.jpg","0","0","1","",""
"","feedback","","html-keyboard-response","17","98065","0.0-1.0-15.0-0.0","0","0","70128","","null","","","null","1","","","","","","","","","","","","","","","",""
"","ITI","","html-keyboard-response","18","99069","0.0-1.0-18.0","0","0","70128","","null","","","null","1","","","","","","","","","","","","","","","NaN",""
"","S1","","html-keyboard-response","19","99326","0.0-1.0-20.0","0","0","70128","","null","","","null","2","","","","","","","","","","","","","","","",""
"","ISI","","html-keyboard-response","20","100335","0.0-1.0-21.0","0","0","70128","","null","","","null","2","NaN","","","","","","","","","","","","","","",""
"","S2","","html-keyboard-response","21","100591","0.0-1.0-22.0","0","0","70128","","null","","","null","2","","NaN","","","","","","","","","","","","","",""
"","response","","html-keyboard-response","22","100928","0.0-1.0-23.0-0.0","0","0","70128","","336","","","75","2","","","1","2","training","adjacent","EF","5","6","M.jpg","N.jpg","0","1","0","",""
"","feedback","","html-keyboard-response","23","101934","0.0-1.0-24.0-0.0","0","0","70128","","null","","","null","2","","","","","","","","","","","","","","","",""
"","time_out","","html-keyboard-response","24","103936","0.0-1.0-26.0-0.0","0","0","70128","","null","","","null","2","","","","","","","","","","","","","","","",""
"","ITI","","html-keyboard-response","25","104945","0.0-1.0-27.0","0","0","70128","","null","","","null","2","","","","","","","","","","","","","","","NaN",""
"","S1","","html-keyboard-response","26","105205","0.0-1.0-29.0","0","0","70128","","null","","","null","3","","","","","","","","","","","","","","","",""
"","ISI","","html-keyboard-response","27","106214","0.0-1.0-30.0","0","0","70128","","null","","","null","3","NaN","","","","","","","","","","","","","","",""
"","S2","","html-keyboard-response","28","106470","0.0-1.0-31.0","0","0","70128","","null","","","null","3","","NaN","","","","","","","","","","","","","",""
"","response","","html-keyboard-response","29","107166","0.0-1.0-32.0-0.0","0","0","70128","","695","","","75","3","","","1","3","training","adjacent","DE","4","5","O.jpg","M.jpg","0","1","0","",""
"","feedback","","html-keyboard-response","30","108172","0.0-1.0-33.0-0.0","0","0","70128","","null","","","null","3","","","","","","","","","","","","","","","",""
"","time_out","","html-keyboard-response","31","110183","0.0-1.0-35.0-0.0","0","0","70128","","null","","","null","3","","","","","","","","","","","","","","","",""
"","ITI","","html-keyboard-response","32","111193","0.0-1.0-36.0","0","0","70128","","null","","","null","3","","","","","","","","","","","","","","","NaN",""
"","S1","","html-keyboard-response","33","111458","0.0-1.0-38.0","0","0","70128","","null","","","null","4","","","","","","","","","","","","","","","",""
"","ISI","","html-keyboard-response","34","112464","0.0-1.0-39.0","0","0","70128","","null","","","null","4","NaN","","","","","","","","","","","","","","",""
"","S2","","html-keyboard-response","35","112720","0.0-1.0-40.0","0","0","70128","","null","","","null","4","","NaN","","","","","","","","","","","","","",""
"","response","","html-keyboard-response","36","113893","0.0-1.0-41.0-0.0","0","0","70128","","1171","","","68","4","","","1","4","training","adjacent","BC","2","3","L.jpg","P.jpg","1","1","1","",""
"","feedback","","html-keyboard-response","37","114912","0.0-1.0-42.0-0.0","0","0","70128","","null","","","null","4","","","","","","","","","","","","","","","",""
"","ITI","","html-keyboard-response","38","115917","0.0-1.0-45.0","0","0","70128","","null","","","null","4","","","","","","","","","","","","","","","NaN",""
"","S1","","html-keyboard-response","39","116178","0.0-1.0-47.0","0","0","70128","","null","","","null","5","","","","","","","","","","","","","","","",""
"","ISI","","html-keyboard-response","40","117190","0.0-1.0-48.0","0","0","70128","","null","","","null","5","NaN","","","","","","","","","","","","","","",""
"","S2","","html-keyboard-response","41","117445","0.0-1.0-49.0","0","0","70128","","null","","","null","5","","NaN","","","","","","","","","","","","","",""
"","response","","html-keyboard-response","42","117870","0.0-1.0-50.0-0.0","0","0","70128","","423","","","68","5","","","1","5","training","adjacent","BC","2","3","L.jpg","P.jpg","1","1","1","",""
"","feedback","","html-keyboard-response","43","118873","0.0-1.0-51.0-0.0","0","0","70128","","null","","","null","5","","","","","","","","","","","","","","","",""
"","ITI","","html-keyboard-response","44","119875","0.0-1.0-54.0","0","0","70128","","null","","","null","5","","","","","","","","","","","","","","","NaN",""
"","S1","","html-keyboard-response","45","120133","0.0-1.0-56.0","0","0","70128","","null","","","null","6","","","","","","","","","","","","","","","",""
"","ISI","","html-keyboard-response","46","121153","0.0-1.0-57.0","0","0","70128","","null","","","null","6","NaN","","","","","","","","","","","","","","",""
"","S2","","html-keyboard-response","47","121409","0.0-1.0-58.0","0","0","70128","","null","","","null","6","","NaN","","","","","","","","","","","","","",""
"","response","","html-keyboard-response","48","122284","0.0-1.0-59.0-0.0","0","0","70128","","874","","","75","6","","","1","6","training","adjacent","ED","5","4","M.jpg","O.jpg","0","0","1","",""
"","feedback","","html-keyboard-response","49","123298","0.0-1.0-60.0-0.0","0","0","70128","","null","","","null","6","","","","","","","","","","","","","","","",""
"","ITI","","html-keyboard-response","50","124314","0.0-1.0-63.0","0","0","70128","","null","","","null","6","","","","","","","","","","","","","","","NaN",""
"","S1","","html-keyboard-response","51","124573","0.0-1.0-65.0","0","0","70128","","null","","","null","7","","","","","","","","","","","","","","","",""
"","ISI","","html-keyboard-response","52","125593","0.0-1.0-66.0","0","0","70128","","null","","","null","7","NaN","","","","","","","","","","","","","","",""
"","S2","","html-keyboard-response","53","125853","0.0-1.0-67.0","0","0","70128","","null","","","null","7","","NaN","","","","","","","","","","","","","",""
"","response","","html-keyboard-response","54","126342","0.0-1.0-68.0-0.0","0","0","70128","","487","","","75","7","","","1","7","training","adjacent","AB","1","2","Q.jpg","L.jpg","0","1","0","",""
"","feedback","","html-keyboard-response","55","127353","0.0-1.0-69.0-0.0","0","0","70128","","null","","","null","7","","","","","","","","","","","","","","","",""
"","time_out","","html-keyboard-response","56","129365","0.0-1.0-71.0-0.0","0","0","70128","","null","","","null","7","","","","","","","","","","","","","","","",""
"","ITI","","html-keyboard-response","57","130377","0.0-1.0-72.0","0","0","70128","","null","","","null","7","","","","","","","","","","","","","","","NaN",""
"","S1","","html-keyboard-response","58","130631","0.0-1.0-74.0","0","0","70128","","null","","","null","8","","","","","","","","","","","","","","","",""
"","ISI","","html-keyboard-response","59","131635","0.0-1.0-75.0","0","0","70128","","null","","","null","8","NaN","","","","","","","","","","","","","","",""
"","S2","","html-keyboard-response","60","131888","0.0-1.0-76.0","0","0","70128","","null","","","null","8","","NaN","","","","","","","","","","","","","",""
"","response","","html-keyboard-response","61","132136","0.0-1.0-77.0-0.0","0","0","70128","","247","","","68","8","","","1","8","training","adjacent","AB","1","2","Q.jpg","L.jpg","1","1","1","",""
"","feedback","","html-keyboard-response","62","133156","0.0-1.0-78.0-0.0","0","0","70128","","null","","","null","8","","","","","","","","","","","","","","","",""
"","ITI","","html-keyboard-response","63","134160","0.0-1.0-81.0","0","0","70128","","null","","","null","8","","","","","","","","","","","","","","","NaN",""
"","S1","","html-keyboard-response","64","134420","0.0-1.0-83.0","0","0","70128","","null","","","null","9","","","","","","","","","","","","","","","",""
"","ISI","","html-keyboard-response","65","135425","0.0-1.0-84.0","0","0","70128","","null","","","null","9","NaN","","","","","","","","","","","","","","",""
"","S2","","html-keyboard-response","66","135682","0.0-1.0-85.0","0","0","70128","","null","","","null","9","","NaN","","","","","","","","","","","","","",""
"","response","","html-keyboard-response","67","136098","0.0-1.0-86.0-0.0","0","0","70128","","414","","","68","9","","","1","9","training","adjacent","DE","4","5","O.jpg","M.jpg","1","1","1","",""
"","feedback","","html-keyboard-response","68","137103","0.0-1.0-87.0-0.0","0","0","70128","","null","","","null","9","","","","","","","","","","","","","","","",""
"","ITI","","html-keyboard-response","69","138106","0.0-1.0-90.0","0","0","70128","","null","","","null","9","","","","","","","","","","","","","","","NaN",""
"","S1","","html-keyboard-response","70","138359","0.0-1.0-92.0","0","0","70128","","null","","","null","10","","","","","","","","","","","","","","","",""
"","ISI","","html-keyboard-response","71","139376","0.0-1.0-93.0","0","0","70128","","null","","","null","10","NaN","","","","","","","","","","","","","","",""
"","S2","","html-keyboard-response","72","139640","0.0-1.0-94.0","0","0","70128","","null","","","null","10","","NaN","","","","","","","","","","","","","",""
"","response","","html-keyboard-response","73","140085","0.0-1.0-95.0-0.0","0","0","70128","","444","","","68","10","","","1","10","training","adjacent","DC","4","3","O.jpg","P.jpg","1","0","0","",""
"","feedback","","html-keyboard-response","74","141105","0.0-1.0-96.0-0.0","0","0","70128","","null","","","null","10","","","","","","","","","","","","","","","",""
"","time_out","","html-keyboard-response","75","143124","0.0-1.0-98.0-0.0","0","0","70128","","null","","","null","10","","","","","","","","","","","","","","","",""
"","ITI","","html-keyboard-response","76","144134","0.0-1.0-99.0","0","0","70128","","null","","","null","10","","","","","","","","","","","","","","","NaN",""
"","S1","","html-keyboard-response","77","144394","0.0-1.0-101.0","0","0","70128","","null","","","null","11","","","","","","","","","","","","","","","",""
"","ISI","","html-keyboard-response","78","145398","0.0-1.0-102.0","0","0","70128","","null","","","null","11","NaN","","","","","","","","","","","","","","",""
"","S2","","html-keyboard-response","79","145659","0.0-1.0-103.0","0","0","70128","","null","","","null","11","","NaN","","","","","","","","","","","","","",""
"","response","","html-keyboard-response","80","145889","0.0-1.0-104.0-0.0","0","0","70128","","228","","","68","11","","","1","11","training","adjacent","AB","1","2","Q.jpg","L.jpg","1","1","1","",""
"","feedback","","html-keyboard-response","81","146895","0.0-1.0-105.0-0.0","0","0","70128","","null","","","null","11","","","","","","","","","","","","","","","",""
"","ITI","","html-keyboard-response","82","147901","0.0-1.0-108.0","0","0","70128","","null","","","null","11","","","","","","","","","","","","","","","NaN",""
"","S1","","html-keyboard-response","83","148160","0.0-1.0-110.0","0","0","70128","","null","","","null","12","","","","","","","","","","","","","","","",""
"","ISI","","html-keyboard-response","84","149169","0.0-1.0-111.0","0","0","70128","","null","","","null","12","NaN","","","","","","","","","","","","","","",""
"","S2","","html-keyboard-response","85","149431","0.0-1.0-112.0","0","0","70128","","null","","","null","12","","NaN","","","","","","","","","","","","","",""
"","response","","html-keyboard-response","86","150783","0.0-1.0-113.0-0.0","0","0","70128","","1350","","","68","12","","","1","12","training","adjacent","GF","7","6","R.jpg","N.jpg","1","0","0","",""
"","feedback","","html-keyboard-response","87","151794","0.0-1.0-114.0-0.0","0","0","70128","","null","","","null","12","","","","","","","","","","","","","","","",""
"","time_out","","html-keyboard-response","88","153805","0.0-1.0-116.0-0.0","0","0","70128","","null","","","null","12","","","","","","","","","","","","","","","",""
"","ITI","","html-keyboard-response","89","154809","0.0-1.0-117.0","0","0","70128","","null","","","null","12","","","","","","","","","","","","","","","NaN",""
"","S1","","html-keyboard-response","90","155064","0.0-1.0-119.0","0","0","70128","","null","","","null","13","","","","","","","","","","","","","","","",""
"","ISI","","html-keyboard-response","91","156068","0.0-1.0-120.0","0","0","70128","","null","","","null","13","NaN","","","","","","","","","","","","","","",""
"","S2","","html-keyboard-response","92","156329","0.0-1.0-121.0","0","0","70128","","null","","","null","13","","NaN","","","","","","","","","","","","","",""
"","response","","html-keyboard-response","93","157383","0.0-1.0-122.0-0.0","0","0","70128","","1052","","","75","13","","","1","13","training","adjacent","FE","6","5","N.jpg","M.jpg","0","0","1","",""
"","feedback","","html-keyboard-response","94","158402","0.0-1.0-123.0-0.0","0","0","70128","","null","","","null","13","","","","","","","","","","","","","","","",""
"","ITI","","html-keyboard-response","95","159406","0.0-1.0-126.0","0","0","70128","","null","","","null","13","","","","","","","","","","","","","","","NaN",""
"","S1","","html-keyboard-response","96","159663","0.0-1.0-128.0","0","0","70128","","null","","","null","14","","","","","","","","","","","","","","","",""
"","ISI","","html-keyboard-response","97","160670","0.0-1.0-129.0","0","0","70128","","null","","","null","14","NaN","","","","","","","","","","","","","","",""
"","S2","","html-keyboard-response","98","160932","0.0-1.0-130.0","0","0","70128","","null","","","null","14","","NaN","","","","","","","","","","","","","",""
"","response","","html-keyboard-response","99","161627","0.0-1.0-131.0-0.0","0","0","70128","","693","","","75","14","","","1","14","training","adjacent","GF","7","6","R.jpg","N.jpg","0","0","1","",""
"","feedback","","html-keyboard-response","100","162635","0.0-1.0-132.0-0.0","0","0","70128","","null","","","null","14","","","","","","","","","","","","","","","",""
"","ITI","","html-keyboard-response","101","163647","0.0-1.0-135.0","0","0","70128","","null","","","null","14","","","","","","","","","","","","","","","NaN",""
"","S1","","html-keyboard-response","102","163917","0.0-1.0-137.0","0","0","70128","","null","","","null","15","","","","","","","","","","","","","","","",""
"","ISI","","html-keyboard-response","103","164921","0.0-1.0-138.0","0","0","70128","","null","","","null","15","NaN","","","","","","","","","","","","","","",""
"","S2","","html-keyboard-response","104","165176","0.0-1.0-139.0","0","0","70128","","null","","","null","15","","NaN","","","","","","","","","","","","","",""
"","response","","html-keyboard-response","105","165742","0.0-1.0-140.0-0.0","0","0","70128","","564","","","68","15","","","1","15","training","adjacent","GF","7","6","R.jpg","N.jpg","1","0","0","",""
"","feedback","","html-keyboard-response","106","166751","0.0-1.0-141.0-0.0","0","0","70128","","null","","","null","15","","","","","","","","","","","","","","","",""
"","time_out","","html-keyboard-response","107","168756","0.0-1.0-143.0-0.0","0","0","70128","","null","","","null","15","","","","","","","","","","","","","","","",""
"","ITI","","html-keyboard-response","108","169760","0.0-1.0-144.0","0","0","70128","","null","","","null","15","","","","","","","","","","","","","","","NaN",""
"","S1","","html-keyboard-response","109","170013","0.0-1.0-146.0","0","0","70128","","null","","","null","16","","","","","","","","","","","","","","","",""
"","ISI","","html-keyboard-response","110","171019","0.0-1.0-147.0","0","0","70128","","null","","","null","16","NaN","","","","","","","","","","","","","","",""
"","S2","","html-keyboard-response","111","171288","0.0-1.0-148.0","0","0","70128","","null","","","null","16","","NaN","","","","","","","","","","","","","",""
"","response","","html-keyboard-response","112","171541","0.0-1.0-149.0-0.0","0","0","70128","","252","","","68","16","","","1","16","training","adjacent","BA","2","1","L.jpg","Q.jpg","1","0","0","",""
"","feedback","","html-keyboard-response","113","172545","0.0-1.0-150.0-0.0","0","0","70128","","null","","","null","16","","","","","","","","","","","","","","","",""
"","time_out","","html-keyboard-response","114","174551","0.0-1.0-152.0-0.0","0","0","70128","","null","","","null","16","","","","","","","","","","","","","","","",""
"","ITI","","html-keyboard-response","115","175559","0.0-1.0-153.0","0","0","70128","","null","","","null","16","","","","","","","","","","","","","","","NaN",""
"","S1","","html-keyboard-response","116","175813","0.0-1.0-155.0","0","0","70128","","null","","","null","17","","","","","","","","","","","","","","","",""
"","ISI","","html-keyboard-response","117","176831","0.0-1.0-156.0","0","0","70128","","null","","","null","17","NaN","","","","","","","","","","","","","","",""
"","S2","","html-keyboard-response","118","177090","0.0-1.0-157.0","0","0","70128","","null","","","null","17","","NaN","","","","","","","","","","","","","",""
"","response","","html-keyboard-response","119","177581","0.0-1.0-158.0-0.0","0","0","70128","","489","","","68","17","","","1","17","training","adjacent","DC","4","3","O.jpg","P.jpg","1","0","0","",""
"","feedback","","html-keyboard-response","120","178585","0.0-1.0-159.0-0.0","0","0","70128","","null","","","null","17","","","","","","","","","","","","","","","",""
"","time_out","","html-keyboard-response","121","180596","0.0-1.0-161.0-0.0","0","0","70128","","null","","","null","17","","","","","","","","","","","","","","","",""
"","ITI","","html-keyboard-response","122","181614","0.0-1.0-162.0","0","0","70128","","null","","","null","17","","","","","","","","","","","","","","","NaN",""
"","S1","","html-keyboard-response","123","181881","0.0-1.0-164.0","0","0","70128","","null","","","null","18","","","","","","","","","","","","","","","",""
"","ISI","","html-keyboard-response","124","182885","0.0-1.0-165.0","0","0","70128","","null","","","null","18","NaN","","","","","","","","","","","","","","",""
"","S2","","html-keyboard-response","125","183142","0.0-1.0-166.0","0","0","70128","","null","","","null","18","","NaN","","","","","","","","","","","","","",""
"","response","","html-keyboard-response","126","183743","0.0-1.0-167.0-0.0","0","0","70128","","600","","","75","18","","","1","18","training","adjacent","ED","5","4","M.jpg","O.jpg","0","0","1","",""
"","feedback","","html-keyboard-response","127","184754","0.0-1.0-168.0-0.0","0","0","70128","","null","","","null","18","","","","","","","","","","","","","","","",""
"","ITI","","html-keyboard-response","128","185768","0.0-1.0-171.0","0","0","70128","","null","","","null","18","","","","","","","","","","","","","","","NaN",""
"","S1","","html-keyboard-response","129","186022","0.0-1.0-173.0","0","0","70128","","null","","","null","19","","","","","","","","","","","","","","","",""
"","ISI","","html-keyboard-response","130","187032","0.0-1.0-174.0","0","0","70128","","null","","","null","19","NaN","","","","","","","","","","","","","","",""
"","S2","","html-keyboard-response","131","187294","0.0-1.0-175.0","0","0","70128","","null","","","null","19","","NaN","","","","","","","","","","","","","",""
"","response","","html-keyboard-response","132","187655","0.0-1.0-176.0-0.0","0","0","70128","","358","","","68","19","","","1","19","training","adjacent","DC","4","3","O.jpg","P.jpg","1","0","0","",""
"","feedback","","html-keyboard-response","133","188662","0.0-1.0-177.0-0.0","0","0","70128","","null","","","null","19","","","","","","","","","","","","","","","",""
"","time_out","","html-keyboard-response","134","190667","0.0-1.0-179.0-0.0","0","0","70128","","null","","","null","19","","","","","","","","","","","","","","","",""
"","ITI","","html-keyboard-response","135","191678","0.0-1.0-180.0","0","0","70128","","null","","","null","19","","","","","","","","","","","","","","","NaN",""
"","S1","","html-keyboard-response","136","191934","0.0-1.0-182.0","0","0","70128","","null","","","null","20","","","","","","","","","","","","","","","",""
"","ISI","","html-keyboard-response","137","192945","0.0-1.0-183.0","0","0","70128","","null","","","null","20","NaN","","","","","","","","","","","","","","",""
"","S2","","html-keyboard-response","138","193198","0.0-1.0-184.0","0","0","70128","","null","","","null","20","","NaN","","","","","","","","","","","","","",""
"","response","","html-keyboard-response","139","193727","0.0-1.0-185.0-0.0","0","0","70128","","527","","","75","20","","","1","20","training","adjacent","BA","2","1","L.jpg","Q.jpg","0","0","1","",""
"","feedback","","html-keyboard-response","140","194743","0.0-1.0-186.0-0.0","0","0","70128","","null","","","null","20","","","","","","","","","","","","","","","",""
"","ITI","","html-keyboard-response","141","195745","0.0-1.0-189.0","0","0","70128","","null","","","null","20","","","","","","","","","","","","","","","NaN",""
"","S1","","html-keyboard-response","142","196000","0.0-1.0-191.0","0","0","70128","","null","","","null","21","","","","","","","","","","","","","","","",""
"","ISI","","html-keyboard-response","143","197017","0.0-1.0-192.0","0","0","70128","","null","","","null","21","NaN","","","","","","","","","","","","","","",""
"","S2","","html-keyboard-response","144","197286","0.0-1.0-193.0","0","0","70128","","null","","","null","21","","NaN","","","","","","","","","","","","","",""
"","response","","html-keyboard-response","145","198115","0.0-1.0-194.0-0.0","0","0","70128","","828","","","68","21","","","1","21","training","adjacent","DE","4","5","O.jpg","M.jpg","1","1","1","",""
"","feedback","","html-keyboard-response","146","199125","0.0-1.0-195.0-0.0","0","0","70128","","null","","","null","21","","","","","","","","","","","","","","","",""
"","ITI","","html-keyboard-response","147","200133","0.0-1.0-198.0","0","0","70128","","null","","","null","21","","","","","","","","","","","","","","","NaN",""
"","S1","","html-keyboard-response","148","200391","0.0-1.0-200.0","0","0","70128","","null","","","null","22","","","","","","","","","","","","","","","",""
"","ISI","","html-keyboard-response","149","201395","0.0-1.0-201.0","0","0","70128","","null","","","null","22","NaN","","","","","","","","","","","","","","",""
"","S2","","html-keyboard-response","150","201652","0.0-1.0-202.0","0","0","70128","","null","","","null","22","","NaN","","","","","","","","","","","","","",""
"","response","","html-keyboard-response","151","201887","0.0-1.0-203.0-0.0","0","0","70128","","234","","","75","22","","","1","22","training","adjacent","FG","6","7","N.jpg","R.jpg","0","1","0","",""
"","feedback","","html-keyboard-response","152","202893","0.0-1.0-204.0-0.0","0","0","70128","","null","","","null","22","","","","","","","","","","","","","","","",""
"","time_out","","html-keyboard-response","153","204900","0.0-1.0-206.0-0.0","0","0","70128","","null","","","null","22","","","","","","","","","","","","","","","",""
"","ITI","","html-keyboard-response","154","205910","0.0-1.0-207.0","0","0","70128","","null","","","null","22","","","","","","","","","","","","","","","NaN",""
"","S1","","html-keyboard-response","155","206173","0.0-1.0-209.0","0","0","70128","","null","","","null","23","","","","","","","","","","","","","","","",""
"","ISI","","html-keyboard-response","156","207179","0.0-1.0-210.0","0","0","70128","","null","","","null","23","NaN","","","","","","","","","","","","","","",""
"","S2","","html-keyboard-response","157","207436","0.0-1.0-211.0","0","0","70128","","null","","","null","23","","NaN","","","","","","","","","","","","","",""
"","response","","html-keyboard-response","158","207924","0.0-1.0-212.0-0.0","0","0","70128","","487","","","75","23","","","1","23","training","adjacent","CB","3","2","P.jpg","L.jpg","0","0","1","",""
"","feedback","","html-keyboard-response","159","208935","0.0-1.0-213.0-0.0","0","0","70128","","null","","","null","23","","","","","","","","","","","","","","","",""
"","ITI","","html-keyboard-response","160","209943","0.0-1.0-216.0","0","0","70128","","null","","","null","23","","","","","","","","","","","","","","","NaN",""
"","S1","","html-keyboard-response","161","210206","0.0-1.0-218.0","0","0","70128","","null","","","null","24","","","","","","","","","","","","","","","",""
"","ISI","","html-keyboard-response","162","211211","0.0-1.0-219.0","0","0","70128","","null","","","null","24","NaN","","","","","","","","","","","","","","",""
"","S2","","html-keyboard-response","163","211475","0.0-1.0-220.0","0","0","70128","","null","","","null","24","","NaN","","","","","","","","","","","","","",""
"","response","","html-keyboard-response","164","211660","0.0-1.0-221.0-0.0","0","0","70128","","184","","","68","24","","","1","24","training","adjacent","AB","1","2","Q.jpg","L.jpg","1","1","1","",""
"","feedback","","html-keyboard-response","165","212666","0.0-1.0-222.0-0.0","0","0","70128","","null","","","null","24","","","","","","","","","","","","","","","",""
"","ITI","","html-keyboard-response","166","213675","0.0-1.0-225.0","0","0","70128","","null","","","null","24","","","","","","","","","","","","","","","NaN",""
"","S1","","html-keyboard-response","167","213929","0.0-1.0-227.0","0","0","70128","","null","","","null","25","","","","","","","","","","","","","","","",""
"","ISI","","html-keyboard-response","168","214935","0.0-1.0-228.0","0","0","70128","","null","","","null","25","NaN","","","","","","","","","","","","","","",""
"","S2","","html-keyboard-response","169","215191","0.0-1.0-229.0","0","0","70128","","null","","","null","25","","NaN","","","","","","","","","","","","","",""
"","response","","html-keyboard-response","170","215433","0.0-1.0-230.0-0.0","0","0","70128","","240","","","68","25","","","1","25","training","adjacent","DC","4","3","O.jpg","P.jpg","1","0","0","",""
"","feedback","","html-keyboard-response","171","216447","0.0-1.0-231.0-0.0","0","0","70128","","null","","","null","25","","","","","","","","","","","","","","","",""
"","time_out","","html-keyboard-response","172","218454","0.0-1.0-233.0-0.0","0","0","70128","","null","","","null","25","","","","","","","","","","","","","","","",""
"","ITI","","html-keyboard-response","173","219465","0.0-1.0-234.0","0","0","70128","","null","","","null","25","","","","","","","","","","","","","","","NaN",""
"","S1","","html-keyboard-response","174","219723","0.0-1.0-236.0","0","0","70128","","null","","","null","26","","","","","","","","","","","","","","","",""
"","ISI","","html-keyboard-response","175","220734","0.0-1.0-237.0","0","0","70128","","null","","","null","26","NaN","","","","","","","","","","","","","","",""
"","S2","","html-keyboard-response","176","220989","0.0-1.0-238.0","0","0","70128","","null","","","null","26","","NaN","","","","","","","","","","","","","",""
"","response","","html-keyboard-response","177","221610","0.0-1.0-239.0-0.0","0","0","70128","","620","","","68","26","","","1","26","training","adjacent","GF","7","6","R.jpg","N.jpg","1","0","0","",""
"","feedback","","html-keyboard-response","178","222617","0.0-1.0-240.0-0.0","0","0","70128","","null","","","null","26","","","","","","","","","","","","","","","",""
"","time_out","","html-keyboard-response","179","224624","0.0-1.0-242.0-0.0","0","0","70128","","null","","","null","26","","","","","","","","","","","","","","","",""
"","ITI","","html-keyboard-response","180","225642","0.0-1.0-243.0","0","0","70128","","null","","","null","26","","","","","","","","","","","","","","","NaN",""
"","S1","","html-keyboard-response","181","225903","0.0-1.0-245.0","0","0","70128","","null","","","null","27","","","","","","","","","","","","","","","",""
"","ISI","","html-keyboard-response","182","226914","0.0-1.0-246.0","0","0","70128","","null","","","null","27","NaN","","","","","","","","","","","","","","",""
"","S2","","html-keyboard-response","183","227174","0.0-1.0-247.0","0","0","70128","","null","","","null","27","","NaN","","","","","","","","","","","","","",""
"","response","","html-keyboard-response","184","227187","0.0-1.0-248.0-0.0","0","0","70128","","12","","","68","27","","","1","27","training","adjacent","BC","2","3","L.jpg","P.jpg","1","1","1","",""
"","feedback","","html-keyboard-response","185","228205","0.0-1.0-249.0-0.0","0","0","70128","","null","","","null","27","","","","","","","","","","","","","","","",""
"","ITI","","html-keyboard-response","186","229212","0.0-1.0-252.0","0","0","70128","","null","","","null","27","","","","","","","","","","","","","","","NaN",""
"","S1","","html-keyboard-response","187","229473","0.0-1.0-254.0","0","0","70128","","null","","","null","28","","","","","","","","","","","","","","","",""
"","ISI","","html-keyboard-response","188","230485","0.0-1.0-255.0","0","0","70128","","null","","","null","28","NaN","","","","","","","","","","","","","","",""
"","S2","","html-keyboard-response","189","230744","0.0-1.0-256.0","0","0","70128","","null","","","null","28","","NaN","","","","","","","","","","","","","",""
"","response","","html-keyboard-response","190","230788","0.0-1.0-257.0-0.0","0","0","70128","","42","","","68","28","","","1","28","training","adjacent","ED","5","4","M.jpg","O.jpg","1","0","0","",""
"","feedback","","html-keyboard-response","191","231793","0.0-1.0-258.0-0.0","0","0","70128","","null","","","null","28","","","","","","","","","","","","","","","",""
"","time_out","","html-keyboard-response","192","233800","0.0-1.0-260.0-0.0","0","0","70128","","null","","","null","28","","","","","","","","","","","","","","","",""
"","ITI","","html-keyboard-response","193","234807","0.0-1.0-261.0","0","0","70128","","null","","","null","28","","","","","","","","","","","","","","","NaN",""
"","S1","","html-keyboard-response","194","235064","0.0-1.0-263.0","0","0","70128","","null","","","null","29","","","","","","","","","","","","","","","",""
"","ISI","","html-keyboard-response","195","236069","0.0-1.0-264.0","0","0","70128","","null","","","null","29","NaN","","","","","","","","","","","","","","",""
"","S2","","html-keyboard-response","196","236331","0.0-1.0-265.0","0","0","70128","","null","","","null","29","","NaN","","","","","","","","","","","","","",""
"","response","","html-keyboard-response","197","236657","0.0-1.0-266.0-0.0","0","0","70128","","325","","","75","29","","","1","29","training","adjacent","CB","3","2","P.jpg","L.jpg","0","0","1","",""
"","feedback","","html-keyboard-response","198","237670","0.0-1.0-267.0-0.0","0","0","70128","","null","","","null","29","","","","","","","","","","","","","","","",""
"","ITI","","html-keyboard-response","199","238682","0.0-1.0-270.0","0","0","70128","","null","","","null","29","","","","","","","","","","","","","","","NaN",""
"","S1","","html-keyboard-response","200","238936","0.0-1.0-272.0","0","0","70128","","null","","","null","30","","","","","","","","","","","","","","","",""
"","ISI","","html-keyboard-response","201","239942","0.0-1.0-273.0","0","0","70128","","null","","","null","30","NaN","","","","","","","","","","","","","","",""
"","S2","","html-keyboard-response","202","240196","0.0-1.0-274.0","0","0","70128","","null","","","null","30","","NaN","","","","","","","","","","","","","",""
"","response","","html-keyboard-response","203","240507","0.0-1.0-275.0-0.0","0","0","70128","","310","","","68","30","","","1","30","training","adjacent","FE","6","5","N.jpg","M.jpg","1","0","0","",""
"","feedback","","html-keyboard-response","204","241512","0.0-1.0-276.0-0.0","0","0","70128","","null","","","null","30","","","","","","","","","","","","","","","",""
"","time_out","","html-keyboard-response","205","243522","0.0-1.0-278.0-0.0","0","0","70128","","null","","","null","30","","","","","","","","","","","","","","","",""
"","ITI","","html-keyboard-response","206","244527","0.0-1.0-279.0","0","0","70128","","null","","","null","30","","","","","","","","","","","","","","","NaN",""
"","S1","","html-keyboard-response","207","244797","0.0-1.0-281.0","0","0","70128","","null","","","null","31","","","","","","","","","","","","","","","",""
"","ISI","","html-keyboard-response","208","245803","0.0-1.0-282.0","0","0","70128","","null","","","null","31","NaN","","","","","","","","","","","","","","",""
"","S2","","html-keyboard-response","209","246064","0.0-1.0-283.0","0","0","70128","","null","","","null","31","","NaN","","","","","","","","","","","","","",""
"","response","","html-keyboard-response","210","246719","0.0-1.0-284.0-0.0","0","0","70128","","652","","","75","31","","","1","31","training","adjacent","FG","6","7","N.jpg","R.jpg","0","1","0","",""
"","feedback","","html-keyboard-response","211","247724","0.0-1.0-285.0-0.0","0","0","70128","","null","","","null","31","","","","","","","","","","","","","","","",""
"","time_out","","html-keyboard-response","212","249729","0.0-1.0-287.0-0.0","0","0","70128","","null","","","null","31","","","","","","","","","","","","","","","",""
"","ITI","","html-keyboard-response","213","250739","0.0-1.0-288.0","0","0","70128","","null","","","null","31","","","","","","","","","","","","","","","NaN",""
"","S1","","html-keyboard-response","214","250993","0.0-1.0-290.0","0","0","70128","","null","","","null","32","","","","","","","","","","","","","","","",""
"","ISI","","html-keyboard-response","215","251995","0.0-1.0-291.0","0","0","70128","","null","","","null","32","NaN","","","","","","","","","","","","","","",""
"","S2","","html-keyboard-response","216","252252","0.0-1.0-292.0","0","0","70128","","null","","","null","32","","NaN","","","","","","","","","","","","","",""
"","response","","html-keyboard-response","217","252647","0.0-1.0-293.0-0.0","0","0","70128","","393","","","68","32","","","1","32","training","adjacent","EF","5","6","M.jpg","N.jpg","1","1","1","",""
"","feedback","","html-keyboard-response","218","253653","0.0-1.0-294.0-0.0","0","0","70128","","null","","","null","32","","","","","","","","","","","","","","","",""
"","ITI","","html-keyboard-response","219","254664","0.0-1.0-297.0","0","0","70128","","null","","","null","32","","","","","","","","","","","","","","","NaN",""
"","S1","","html-keyboard-response","220","254924","0.0-1.0-299.0","0","0","70128","","null","","","null","33","","","","","","","","","","","","","","","",""
"","ISI","","html-keyboard-response","221","255933","0.0-1.0-300.0","0","0","70128","","null","","","null","33","NaN","","","","","","","","","","","","","","",""
"","S2","","html-keyboard-response","222","256195","0.0-1.0-301.0","0","0","70128","","null","","","null","33","","NaN","","","","","","","","","","","","","",""
"","response","","html-keyboard-response","223","256455","0.0-1.0-302.0-0.0","0","0","70128","","258","","","68","33","","","1","33","training","adjacent","FG","6","7","N.jpg","R.jpg","1","1","1","",""
"","feedback","","html-keyboard-response","224","257466","0.0-1.0-303.0-0.0","0","0","70128","","null","","","null","33","","","","","","","","","","","","","","","",""
"","ITI","","html-keyboard-response","225","258472","0.0-1.0-306.0","0","0","70128","","null","","","null","33","","","","","","","","","","","","","","","NaN",""
"","S1","","html-keyboard-response","226","258725","0.0-1.0-308.0","0","0","70128","","null","","","null","34","","","","","","","","","","","","","","","",""
"","ISI","","html-keyboard-response","227","259741","0.0-1.0-309.0","0","0","70128","","null","","","null","34","NaN","","","","","","","","","","","","","","",""
"","S2","","html-keyboard-response","228","259995","0.0-1.0-310.0","0","0","70128","","null","","","null","34","","NaN","","","","","","","","","","","","","",""
"","response","","html-keyboard-response","229","260451","0.0-1.0-311.0-0.0","0","0","70128","","454","","","75","34","","","1","34","training","adjacent","CD","3","4","P.jpg","O.jpg","0","1","0","",""
"","feedback","","html-keyboard-response","230","261454","0.0-1.0-312.0-0.0","0","0","70128","","null","","","null","34","","","","","","","","","","","","","","","",""
"","time_out","","html-keyboard-response","231","263467","0.0-1.0-314.0-0.0","0","0","70128","","null","","","null","34","","","","","","","","","","","","","","","",""
"","ITI","","html-keyboard-response","232","264478","0.0-1.0-315.0","0","0","70128","","null","","","null","34","","","","","","","","","","","","","","","NaN",""
"","S1","","html-keyboard-response","233","264732","0.0-1.0-317.0","0","0","70128","","null","","","null","35","","","","","","","","","","","","","","","",""
"","ISI","","html-keyboard-response","234","265742","0.0-1.0-318.0","0","0","70128","","null","","","null","35","NaN","","","","","","","","","","","","","","",""
"","S2","","html-keyboard-response","235","265995","0.0-1.0-319.0","0","0","70128","","null","","","null","35","","NaN","","","","","","","","","","","","","",""
"","response","","html-keyboard-response","236","266266","0.0-1.0-320.0-0.0","0","0","70128","","269","","","68","35","","","1","35","training","adjacent","CD","3","4","P.jpg","O.jpg","1","1","1","",""
"","feedback","","html-keyboard-response","237","267283","0.0-1.0-321.0-0.0","0","0","70128","","null","","","null","35","","","","","","","","","","","","","","","",""
"","ITI","","html-keyboard-response","238","268297","0.0-1.0-324.0","0","0","70128","","null","","","null","35","","","","","","","","","","","","","","","NaN",""
"","S1","","html-keyboard-response","239","268554","0.0-1.0-326.0","0","0","70128","","null","","","null","36","","","","","","","","","","","","","","","",""
"","ISI","","html-keyboard-response","240","269561","0.0-1.0-327.0","0","0","70128","","null","","","null","36","NaN","","","","","","","","","","","","","","",""
"","S2","","html-keyboard-response","241","269815","0.0-1.0-328.0","0","0","70128","","null","","","null","36","","NaN","","","","","","","","","","","","","",""
"","response","","html-keyboard-response","242","270081","0.0-1.0-329.0-0.0","0","0","70128","","265","","","68","36","","","1","36","training","adjacent","BC","2","3","L.jpg","P.jpg","1","1","1","",""
"","feedback","","html-keyboard-response","243","271085","0.0-1.0-330.0-0.0","0","0","70128","","null","","","null","36","","","","","","","","","","","","","","","",""
"","ITI","","html-keyboard-response","244","272096","0.0-1.0-333.0","0","0","70128","","null","","","null","36","","","","","","","","","","","","","","","NaN",""
"","S1","","html-keyboard-response","245","272348","0.0-1.0-335.0","0","0","70128","","null","","","null","37","","","","","","","","","","","","","","","",""
"","ISI","","html-keyboard-response","246","273362","0.0-1.0-336.0","0","0","70128","","null","","","null","37","NaN","","","","","","","","","","","","","","",""
"","S2","","html-keyboard-response","247","273624","0.0-1.0-337.0","0","0","70128","","null","","","null","37","","NaN","","","","","","","","","","","","","",""
"","response","","html-keyboard-response","248","274152","0.0-1.0-338.0-0.0","0","0","70128","","526","","","75","37","","","1","37","training","adjacent","CD","3","4","P.jpg","O.jpg","0","1","0","",""
"","feedback","","html-keyboard-response","249","275156","0.0-1.0-339.0-0.0","0","0","70128","","null","","","null","37","","","","","","","","","","","","","","","",""
"","time_out","","html-keyboard-response","250","277162","0.0-1.0-341.0-0.0","0","0","70128","","null","","","null","37","","","","","","","","","","","","","","","",""
"","ITI","","html-keyboard-response","251","278180","0.0-1.0-342.0","0","0","70128","","null","","","null","37","","","","","","","","","","","","","","","NaN",""
"","S1","","html-keyboard-response","252","278436","0.0-1.0-344.0","0","0","70128","","null","","","null","38","","","","","","","","","","","","","","","",""
"","ISI","","html-keyboard-response","253","279438","0.0-1.0-345.0","0","0","70128","","null","","","null","38","NaN","","","","","","","","","","","","","","",""
"","S2","","html-keyboard-response","254","279703","0.0-1.0-346.0","0","0","70128","","null","","","null","38","","NaN","","","","","","","","","","","","","",""
"","response","","html-keyboard-response","255","280229","0.0-1.0-347.0-0.0","0","0","70128","","524","","","68","38","","","1","38","training","adjacent","CD","3","4","P.jpg","O.jpg","1","1","1","",""
"","feedback","","html-keyboard-response","256","281245","0.0-1.0-348.0-0.0","0","0","70128","","null","","","null","38","","","","","","","","","","","","","","","",""
"","ITI","","html-keyboard-response","257","282254","0.0-1.0-351.0","0","0","70128","","null","","","null","38","","","","","","","","","","","","","","","NaN",""
"","S1","","html-keyboard-response","258","282509","0.0-1.0-353.0","0","0","70128","","null","","","null","39","","","","","","","","","","","","","","","",""
"","ISI","","html-keyboard-response","259","283519","0.0-1.0-354.0","0","0","70128","","null","","","null","39","NaN","","","","","","","","","","","","","","",""
"","S2","","html-keyboard-response","260","283773","0.0-1.0-355.0","0","0","70128","","null","","","null","39","","NaN","","","","","","","","","","","","","",""
"","response","","html-keyboard-response","261","284056","0.0-1.0-356.0-0.0","0","0","70128","","281","","","75","39","","","1","39","training","adjacent","EF","5","6","M.jpg","N.jpg","0","1","0","",""
"","feedback","","html-keyboard-response","262","285061","0.0-1.0-357.0-0.0","0","0","70128","","null","","","null","39","","","","","","","","","","","","","","","",""
"","time_out","","html-keyboard-response","263","287069","0.0-1.0-359.0-0.0","0","0","70128","","null","","","null","39","","","","","","","","","","","","","","","",""
"","ITI","","html-keyboard-response","264","288082","0.0-1.0-360.0","0","0","70128","","null","","","null","39","","","","","","","","","","","","","","","NaN",""
"","S1","","html-keyboard-response","265","288342","0.0-1.0-362.0","0","0","70128","","null","","","null","40","","","","","","","","","","","","","","","",""
"","ISI","","html-keyboard-response","266","289360","0.0-1.0-363.0","0","0","70128","","null","","","null","40","NaN","","","","","","","","","","","","","","",""
"","S2","","html-keyboard-response","267","289616","0.0-1.0-364.0","0","0","70128","","null","","","null","40","","NaN","","","","","","","","","","","","","",""
"","response","","html-keyboard-response","268","290305","0.0-1.0-365.0-0.0","0","0","70128","","688","","","75","40","","","1","40","training","adjacent","BA","2","1","L.jpg","Q.jpg","0","0","1","",""
"","feedback","","html-keyboard-response","269","291314","0.0-1.0-366.0-0.0","0","0","70128","","null","","","null","40","","","","","","","","","","","","","","","",""
"","ITI","","html-keyboard-response","270","292322","0.0-1.0-369.0","0","0","70128","","null","","","null","40","","","","","","","","","","","","","","","NaN",""
"","S1","","html-keyboard-response","271","292583","0.0-1.0-371.0","0","0","70128","","null","","","null","41","","","","","","","","","","","","","","","",""
"","ISI","","html-keyboard-response","272","293602","0.0-1.0-372.0","0","0","70128","","null","","","null","41","NaN","","","","","","","","","","","","","","",""
"","S2","","html-keyboard-response","273","293866","0.0-1.0-373.0","0","0","70128","","null","","","null","41","","NaN","","","","","","","","","","","","","",""
"","response","","html-keyboard-response","274","294516","0.0-1.0-374.0-0.0","0","0","70128","","649","","","68","41","","","1","41","training","adjacent","EF","5","6","M.jpg","N.jpg","1","1","1","",""
"","feedback","","html-keyboard-response","275","295521","0.0-1.0-375.0-0.0","0","0","70128","","null","","","null","41","","","","","","","","","","","","","","","",""
"","ITI","","html-keyboard-response","276","296536","0.0-1.0-378.0","0","0","70128","","null","","","null","41","","","","","","","","","","","","","","","NaN",""
"","S1","","html-keyboard-response","277","296797","0.0-1.0-380.0","0","0","70128","","null","","","null","42","","","","","","","","","","","","","","","",""
"","ISI","","html-keyboard-response","278","297815","0.0-1.0-381.0","0","0","70128","","null","","","null","42","NaN","","","","","","","","","","","","","","",""
"","S2","","html-keyboard-response","279","298082","0.0-1.0-382.0","0","0","70128","","null","","","null","42","","NaN","","","","","","","","","","","","","",""
"","response","","html-keyboard-response","280","298483","0.0-1.0-383.0-0.0","0","0","70128","","400","","","75","42","","","1","42","training","adjacent","BA","2","1","L.jpg","Q.jpg","0","0","1","",""
"","feedback","","html-keyboard-response","281","299491","0.0-1.0-384.0-0.0","0","0","70128","","null","","","null","42","","","","","","","","","","","","","","","",""
"","ITI","","html-keyboard-response","282","300495","0.0-1.0-387.0","0","0","70128","","null","","","null","42","","","","","","","","","","","","","","","NaN",""
"","S1","","html-keyboard-response","283","300754","0.0-1.0-389.0","0","0","70128","","null","","","null","43","","","","","","","","","","","","","","","",""
"","ISI","","html-keyboard-response","284","301760","0.0-1.0-390.0","0","0","70128","","null","","","null","43","NaN","","","","","","","","","","","","","","",""
"","S2","","html-keyboard-response","285","302021","0.0-1.0-391.0","0","0","70128","","null","","","null","43","","NaN","","","","","","","","","","","","","",""
"","response","","html-keyboard-response","286","302420","0.0-1.0-392.0-0.0","0","0","70128","","398","","","68","43","","","1","43","training","adjacent","FE","6","5","N.jpg","M.jpg","1","0","0","",""
"","feedback","","html-keyboard-response","287","303428","0.0-1.0-393.0-0.0","0","0","70128","","null","","","null","43","","","","","","","","","","","","","","","",""
"","time_out","","html-keyboard-response","288","305433","0.0-1.0-395.0-0.0","0","0","70128","","null","","","null","43","","","","","","","","","","","","","","","",""
"","ITI","","html-keyboard-response","289","306442","0.0-1.0-396.0","0","0","70128","","null","","","null","43","","","","","","","","","","","","","","","NaN",""
"","S1","","html-keyboard-response","290","306702","0.0-1.0-398.0","0","0","70128","","null","","","null","44","","","","","","","","","","","","","","","",""
"","ISI","","html-keyboard-response","291","307705","0.0-1.0-399.0","0","0","70128","","null","","","null","44","NaN","","","","","","","","","","","","","","",""
"","S2","","html-keyboard-response","292","307962","0.0-1.0-400.0","0","0","70128","","null","","","null","44","","NaN","","","","","","","","","","","","","",""
"","response","","html-keyboard-response","293","308221","0.0-1.0-401.0-0.0","0","0","70128","","257","","","75","44","","","1","44","training","adjacent","FE","6","5","N.jpg","M.jpg","0","0","1","",""
"","feedback","","html-keyboard-response","294","309234","0.0-1.0-402.0-0.0","0","0","70128","","null","","","null","44","","","","","","","","","","","","","","","",""
"","ITI","","html-keyboard-response","295","310254","0.0-1.0-405.0","0","0","70128","","null","","","null","44","","","","","","","","","","","","","","","NaN",""
"","S1","","html-keyboard-response","296","310508","0.0-1.0-407.0","0","0","70128","","null","","","null","45","","","","","","","","","","","","","","","",""
"","ISI","","html-keyboard-response","297","311516","0.0-1.0-408.0","0","0","70128","","null","","","null","45","NaN","","","","","","","","","","","","","","",""
"","S2","","html-keyboard-response","298","311773","0.0-1.0-409.0","0","0","70128","","null","","","null","45","","NaN","","","","","","","","","","","","","",""
"","response","","html-keyboard-response","299","312833","0.0-1.0-410.0-0.0","0","0","70128","","1058","","","75","45","","","1","45","training","adjacent","CB","3","2","P.jpg","L.jpg","0","0","1","",""
"","feedback","","html-keyboard-response","300","313838","0.0-1.0-411.0-0.0","0","0","70128","","null","","","null","45","","","","","","","","","","","","","","","",""
"","ITI","","html-keyboard-response","301","314849","0.0-1.0-414.0","0","0","70128","","null","","","null","45","","","","","","","","","","","","","","","NaN",""
"","S1","","html-keyboard-response","302","315102","0.0-1.0-416.0","0","0","70128","","null","","","null","46","","","","","","","","","","","","","","","",""
"","ISI","","html-keyboard-response","303","316107","0.0-1.0-417.0","0","0","70128","","null","","","null","46","NaN","","","","","","","","","","","","","","",""
"","S2","","html-keyboard-response","304","316362","0.0-1.0-418.0","0","0","70128","","null","","","null","46","","NaN","","","","","","","","","","","","","",""
"","response","","html-keyboard-response","305","316605","0.0-1.0-419.0-0.0","0","0","70128","","241","","","68","46","","","1","46","training","adjacent","DE","4","5","O.jpg","M.jpg","1","1","1","",""
"","feedback","","html-keyboard-response","306","317608","0.0-1.0-420.0-0.0","0","0","70128","","null","","","null","46","","","","","","","","","","","","","","","",""
"","ITI","","html-keyboard-response","307","318612","0.0-1.0-423.0","0","0","70128","","null","","","null","46","","","","","","","","","","","","","","","NaN",""
"","S1","","html-keyboard-response","308","318866","0.0-1.0-425.0","0","0","70128","","null","","","null","47","","","","","","","","","","","","","","","",""
"","ISI","","html-keyboard-response","309","319873","0.0-1.0-426.0","0","0","70128","","null","","","null","47","NaN","","","","","","","","","","","","","","",""
"","S2","","html-keyboard-response","310","320134","0.0-1.0-427.0","0","0","70128","","null","","","null","47","","NaN","","","","","","","","","","","","","",""
"","response","","html-keyboard-response","311","320544","0.0-1.0-428.0-0.0","0","0","70128","","409","","","75","47","","","1","47","training","adjacent","CB","3","2","P.jpg","L.jpg","0","0","1","",""
"","feedback","","html-keyboard-response","312","321551","0.0-1.0-429.0-0.0","0","0","70128","","null","","","null","47","","","","","","","","","","","","","","","",""
"","ITI","","html-keyboard-response","313","322569","0.0-1.0-432.0","0","0","70128","","null","","","null","47","","","","","","","","","","","","","","","NaN",""
"","block_over","","html-keyboard-response","314","405171","0.0-1.0-433.0-0.0","0","0","70128","","82600","","","32","47","","","","","","","","","","","","","","","",""
"","S1","","html-keyboard-response","315","405425","0.0-1.0-434.0","0","0","70128","","null","","","null","48","","","","","","","","","","","","","","","",""
"","ISI","","html-keyboard-response","316","406427","0.0-1.0-435.0","0","0","70128","","null","","","null","48","NaN","","","","","","","","","","","","","","",""
"","S2","","html-keyboard-response","317","406680","0.0-1.0-436.0","0","0","70128","","null","","","null","48","","NaN","","","","","","","","","","","","","",""
"","response","","html-keyboard-response","318","407115","0.0-1.0-437.0-0.0","0","0","70128","","433","","","75","48","","","2","48","training","adjacent","FE","6","5","N.jpg","M.jpg","0","0","1","",""
"","feedback","","html-keyboard-response","319","408120","0.0-1.0-438.0-0.0","0","0","70128","","null","","","null","48","","","","","","","","","","","","","","","",""
"","ITI","","html-keyboard-response","320","409122","0.0-1.0-441.0","0","0","70128","","null","","","null","48","","","","","","","","","","","","","","","NaN",""
"","S1","","html-keyboard-response","321","409376","0.0-1.0-443.0","0","0","70128","","null","","","null","49","","","","","","","","","","","","","","","",""
"","ISI","","html-keyboard-response","322","410379","0.0-1.0-444.0","0","0","70128","","null","","","null","49","NaN","","","","","","","","","","","","","","",""
"","S2","","html-keyboard-response","323","410632","0.0-1.0-445.0","0","0","70128","","null","","","null","49","","NaN","","","","","","","","","","","","","",""
"","response","","html-keyboard-response","324","410898","0.0-1.0-446.0-0.0","0","0","70128","","264","","","68","49","","","2","49","training","adjacent","CD","3","4","P.jpg","O.jpg","1","1","1","",""
"","feedback","","html-keyboard-response","325","411901","0.0-1.0-447.0-0.0","0","0","70128","","null","","","null","49","","","","","","","","","","","","","","","",""
"","ITI","","html-keyboard-response","326","412904","0.0-1.0-450.0","0","0","70128","","null","","","null","49","","","","","","","","","","","","","","","NaN",""
"","S1","","html-keyboard-response","327","413157","0.0-1.0-452.0","0","0","70128","","null","","","null","50","","","","","","","","","","","","","","","",""
"","ISI","","html-keyboard-response","328","414159","0.0-1.0-453.0","0","0","70128","","null","","","null","50","NaN","","","","","","","","","","","","","","",""
"","S2","","html-keyboard-response","329","414411","0.0-1.0-454.0","0","0","70128","","null","","","null","50","","NaN","","","","","","","","","","","","","",""
"","response","","html-keyboard-response","330","414955","0.0-1.0-455.0-0.0","0","0","70128","","542","","","68","50","","","2","50","training","adjacent","EF","5","6","M.jpg","N.jpg","1","1","1","",""
"","feedback","","html-keyboard-response","331","415958","0.0-1.0-456.0-0.0","0","0","70128","","null","","","null","50","","","","","","","","","","","","","","","",""
"","ITI","","html-keyboard-response","332","416961","0.0-1.0-459.0","0","0","70128","","null","","","null","50","","","","","","","","","","","","","","","NaN",""
"","S1","","html-keyboard-response","333","417213","0.0-1.0-461.0","0","0","70128","","null","","","null","51","","","","","","","","","","","","","","","",""
"","ISI","","html-keyboard-response","334","418216","0.0-1.0-462.0","0","0","70128","","null","","","null","51","NaN","","","","","","","","","","","","","","",""
"","S2","","html-keyboard-response","335","418469","0.0-1.0-463.0","0","0","70128","","null","","","null","51","","NaN","","","","","","","","","","","","","",""
"","response","","html-keyboard-response","336","418511","0.0-1.0-464.0-0.0","0","0","70128","","39","","","75","51","","","2","51","training","adjacent","FG","6","7","N.jpg","R.jpg","0","1","0","",""
"","feedback","","html-keyboard-response","337","419514","0.0-1.0-465.0-0.0","0","0","70128","","null","","","null","51","","","","","","","","","","","","","","","",""
"","time_out","","html-keyboard-response","338","421516","0.0-1.0-467.0-0.0","0","0","70128","","null","","","null","51","","","","","","","","","","","","","","","",""
"","ITI","","html-keyboard-response","339","422520","0.0-1.0-468.0","0","0","70128","","null","","","null","51","","","","","","","","","","","","","","","NaN",""
"","S1","","html-keyboard-response","340","422773","0.0-1.0-470.0","0","0","70128","","null","","","null","52","","","","","","","","","","","","","","","",""
"","ISI","","html-keyboard-response","341","423775","0.0-1.0-471.0","0","0","70128","","655","","","13","52","enter","","","","","","","","","","","","","","",""
"","S2","","html-keyboard-response","342","424029","0.0-1.0-472.0","0","0","70128","","null","","","null","52","","NaN","","","","","","","","","","","","","",""
"","response","","html-keyboard-response","343","424433","0.0-1.0-473.0-0.0","0","0","70128","","403","","","68","52","","","2","52","training","adjacent","FG","6","7","N.jpg","R.jpg","1","1","1","",""
"","feedback","","html-keyboard-response","344","425436","0.0-1.0-474.0-0.0","0","0","70128","","null","","","null","52","","","","","","","","","","","","","","","",""
"","ITI","","html-keyboard-response","345","426440","0.0-1.0-477.0","0","0","70128","","null","","","null","52","","","","","","","","","","","","","","","NaN",""
"","S1","","html-keyboard-response","346","426692","0.0-1.0-479.0","0","0","70128","","null","","","null","53","","","","","","","","","","","","","","","",""
"","ISI","","html-keyboard-response","347","427707","0.0-1.0-480.0","0","0","70128","","null","","","null","53","NaN","","","","","","","","","","","","","","",""
"","S2","","html-keyboard-response","348","427960","0.0-1.0-481.0","0","0","70128","","null","","","null","53","","NaN","","","","","","","","","","","","","",""
"","response","","html-keyboard-response","349","428547","0.0-1.0-482.0-0.0","0","0","70128","","586","","","75","53","","","2","53","training","adjacent","CB","3","2","P.jpg","L.jpg","0","0","1","",""
"","feedback","","html-keyboard-response","350","429550","0.0-1.0-483.0-0.0","0","0","70128","","null","","","null","53","","","","","","","","","","","","","","","",""
"","ITI","","html-keyboard-response","351","430554","0.0-1.0-486.0","0","0","70128","","null","","","null","53","","","","","","","","","","","","","","","NaN",""
"","S1","","html-keyboard-response","352","430807","0.0-1.0-488.0","0","0","70128","","null","","","null","54","","","","","","","","","","","","","","","",""
"","ISI","","html-keyboard-response","353","431810","0.0-1.0-489.0","0","0","70128","","null","","","null","54","NaN","","","","","","","","","","","","","","",""
"","S2","","html-keyboard-response","354","432062","0.0-1.0-490.0","0","0","70128","","null","","","null","54","","NaN","","","","","","","","","","","","","",""
"","response","","html-keyboard-response","355","433077","0.0-1.0-491.0-0.0","0","0","70128","","1012","","","68","54","","","2","54","training","adjacent","AB","1","2","Q.jpg","L.jpg","1","1","1","",""
"","feedback","","html-keyboard-response","356","434080","0.0-1.0-492.0-0.0","0","0","70128","","null","","","null","54","","","","","","","","","","","","","","","",""
"","ITI","","html-keyboard-response","357","435082","0.0-1.0-495.0","0","0","70128","","null","","","null","54","","","","","","","","","","","","","","","NaN",""
"","S1","","html-keyboard-response","358","435335","0.0-1.0-497.0","0","0","70128","","null","","","null","55","","","","","","","","","","","","","","","",""
"","ISI","","html-keyboard-response","359","436338","0.0-1.0-498.0","0","0","70128","","null","","","null","55","NaN","","","","","","","","","","","","","","",""
"","S2","","html-keyboard-response","360","436591","0.0-1.0-499.0","0","0","70128","","null","","","null","55","","NaN","","","","","","","","","","","","","",""
"","response","","html-keyboard-response","361","437109","0.0-1.0-500.0-0.0","0","0","70128","","517","","","68","55","","","2","55","training","adjacent","AB","1","2","Q.jpg","L.jpg","1","1","1","",""
"","feedback","","html-keyboard-response","362","438112","0.0-1.0-501.0-0.0","0","0","70128","","null","","","null","55","","","","","","","","","","","","","","","",""
"","ITI","","html-keyboard-response","363","439115","0.0-1.0-504.0","0","0","70128","","null","","","null","55","","","","","","","","","","","","","","","NaN",""
"","S1","","html-keyboard-response","364","439378","0.0-1.0-506.0","0","0","70128","","null","","","null","56","","","","","","","","","","","","","","","",""
"","ISI","","html-keyboard-response","365","440379","0.0-1.0-507.0","0","0","70128","","null","","","null","56","NaN","","","","","","","","","","","","","","",""
"","S2","","html-keyboard-response","366","440633","0.0-1.0-508.0","0","0","70128","","null","","","null","56","","NaN","","","","","","","","","","","","","",""
"","response","","html-keyboard-response","367","440892","0.0-1.0-509.0-0.0","0","0","70128","","258","","","68","56","","","2","56","training","adjacent","DE","4","5","O.jpg","M.jpg","1","1","1","",""
"","feedback","","html-keyboard-response","368","441896","0.0-1.0-510.0-0.0","0","0","70128","","null","","","null","56","","","","","","","","","","","","","","","",""
"","ITI","","html-keyboard-response","369","442899","0.0-1.0-513.0","0","0","70128","","null","","","null","56","","","","","","","","","","","","","","","NaN",""
"","S1","","html-keyboard-response","370","443152","0.0-1.0-515.0","0","0","70128","","null","","","null","57","","","","","","","","","","","","","","","",""
"","ISI","","html-keyboard-response","371","444155","0.0-1.0-516.0","0","0","70128","","null","","","null","57","NaN","","","","","","","","","","","","","","",""
"","S2","","html-keyboard-response","372","444415","0.0-1.0-517.0","0","0","70128","","null","","","null","57","","NaN","","","","","","","","","","","","","",""
"","response","","html-keyboard-response","373","445212","0.0-1.0-518.0-0.0","0","0","70128","","796","","","75","57","","","2","57","training","adjacent","DC","4","3","O.jpg","P.jpg","0","0","1","",""
"","feedback","","html-keyboard-response","374","446215","0.0-1.0-519.0-0.0","0","0","70128","","null","","","null","57","","","","","","","","","","","","","","","",""
"","ITI","","html-keyboard-response","375","447218","0.0-1.0-522.0","0","0","70128","","null","","","null","57","","","","","","","","","","","","","","","NaN",""
"","S1","","html-keyboard-response","376","447470","0.0-1.0-524.0","0","0","70128","","null","","","null","58","","","","","","","","","","","","","","","",""
"","ISI","","html-keyboard-response","377","448473","0.0-1.0-525.0","0","0","70128","","null","","","null","58","NaN","","","","","","","","","","","","","","",""
"","S2","","html-keyboard-response","378","448726","0.0-1.0-526.0","0","0","70128","","null","","","null","58","","NaN","","","","","","","","","","","","","",""
"","response","","html-keyboard-response","379","450008","0.0-1.0-527.0-0.0","0","0","70128","","1281","","","68","58","","","2","58","training","adjacent","EF","5","6","M.jpg","N.jpg","1","1","1","",""
"","feedback","","html-keyboard-response","380","451011","0.0-1.0-528.0-0.0","0","0","70128","","null","","","null","58","","","","","","","","","","","","","","","",""
"","ITI","","html-keyboard-response","381","452014","0.0-1.0-531.0","0","0","70128","","null","","","null","58","","","","","","","","","","","","","","","NaN",""
"","S1","","html-keyboard-response","382","452266","0.0-1.0-533.0","0","0","70128","","null","","","null","59","","","","","","","","","","","","","","","",""
"","ISI","","html-keyboard-response","383","453285","0.0-1.0-534.0","0","0","70128","","null","","","null","59","NaN","","","","","","","","","","","","","","",""
"","S2","","html-keyboard-response","384","453551","0.0-1.0-535.0","0","0","70128","","null","","","null","59","","NaN","","","","","","","","","","","","","",""
"","response","","html-keyboard-response","385","454398","0.0-1.0-536.0-0.0","0","0","70128","","845","","","68","59","","","2","59","training","adjacent","BC","2","3","L.jpg","P.jpg","1","1","1","",""
"","feedback","","html-keyboard-response","386","455401","0.0-1.0-537.0-0.0","0","0","70128","","null","","","null","59","","","","","","","","","","","","","","","",""
"","ITI","","html-keyboard-response","387","456404","0.0-1.0-540.0","0","0","70128","","null","","","null","59","","","","","","","","","","","","","","","NaN",""
"","S1","","html-keyboard-response","388","456657","0.0-1.0-542.0","0","0","70128","","null","","","null","60","","","","","","","","","","","","","","","",""
"","ISI","","html-keyboard-response","389","457659","0.0-1.0-543.0","0","0","70128","","null","","","null","60","NaN","","","","","","","","","","","","","","",""
"","S2","","html-keyboard-response","390","457912","0.0-1.0-544.0","0","0","70128","","null","","","null","60","","NaN","","","","","","","","","","","","","",""
"","response","","html-keyboard-response","391","458351","0.0-1.0-545.0-0.0","0","0","70128","","437","","","68","60","","","2","60","training","adjacent","DE","4","5","O.jpg","M.jpg","1","1","1","",""
"","feedback","","html-keyboard-response","392","459354","0.0-1.0-546.0-0.0","0","0","70128","","null","","","null","60","","","","","","","","","","","","","","","",""
"","ITI","","html-keyboard-response","393","460357","0.0-1.0-549.0","0","0","70128","","null","","","null","60","","","","","","","","","","","","","","","NaN",""
"","S1","","html-keyboard-response","394","460609","0.0-1.0-551.0","0","0","70128","","null","","","null","61","","","","","","","","","","","","","","","",""
"","ISI","","html-keyboard-response","395","461611","0.0-1.0-552.0","0","0","70128","","null","","","null","61","NaN","","","","","","","","","","","","","","",""
"","S2","","html-keyboard-response","396","461864","0.0-1.0-553.0","0","0","70128","","null","","","null","61","","NaN","","","","","","","","","","","","","",""
"","response","","html-keyboard-response","397","462427","0.0-1.0-554.0-0.0","0","0","70128","","562","","","75","61","","","2","61","training","adjacent","CD","3","4","P.jpg","O.jpg","0","1","0","",""
"","feedback","","html-keyboard-response","398","463429","0.0-1.0-555.0-0.0","0","0","70128","","null","","","null","61","","","","","","","","","","","","","","","",""
"","time_out","","html-keyboard-response","399","465432","0.0-1.0-557.0-0.0","0","0","70128","","null","","","null","61","","","","","","","","","","","","","","","",""
"","ITI","","html-keyboard-response","400","466435","0.0-1.0-558.0","0","0","70128","","null","","","null","61","","","","","","","","","","","","","","","NaN",""
"","S1","","html-keyboard-response","401","466688","0.0-1.0-560.0","0","0","70128","","null","","","null","62","","","","","","","","","","","","","","","",""
"","ISI","","html-keyboard-response","402","467691","0.0-1.0-561.0","0","0","70128","","null","","","null","62","NaN","","","","","","","","","","","","","","",""
"","S2","","html-keyboard-response","403","467944","0.0-1.0-562.0","0","0","70128","","null","","","null","62","","NaN","","","","","","","","","","","","","",""
"","response","","html-keyboard-response","404","469015","0.0-1.0-563.0-0.0","0","0","70128","","1069","","","68","62","","","2","62","training","adjacent","FE","6","5","N.jpg","M.jpg","1","0","0","",""
"","feedback","","html-keyboard-response","405","470018","0.0-1.0-564.0-0.0","0","0","70128","","null","","","null","62","","","","","","","","","","","","","","","",""
"","time_out","","html-keyboard-response","406","472021","0.0-1.0-566.0-0.0","0","0","70128","","null","","","null","62","","","","","","","","","","","","","","","",""
"","ITI","","html-keyboard-response","407","473024","0.0-1.0-567.0","0","0","70128","","null","","","null","62","","","","","","","","","","","","","","","NaN",""
"","S1","","html-keyboard-response","408","473276","0.0-1.0-569.0","0","0","70128","","null","","","null","63","","","","","","","","","","","","","","","",""
"","ISI","","html-keyboard-response","409","474279","0.0-1.0-570.0","0","0","70128","","null","","","null","63","NaN","","","","","","","","","","","","","","",""
"","S2","","html-keyboard-response","410","474532","0.0-1.0-571.0","0","0","70128","","null","","","null","63","","NaN","","","","","","","","","","","","","",""
"","response","","html-keyboard-response","411","475148","0.0-1.0-572.0-0.0","0","0","70128","","615","","","75","63","","","2","63","training","adjacent","ED","5","4","M.jpg","O.jpg","0","0","1","",""
"","feedback","","html-keyboard-response","412","476151","0.0-1.0-573.0-0.0","0","0","70128","","null","","","null","63","","","","","","","","","","","","","","","",""
"","ITI","","html-keyboard-response","413","477153","0.0-1.0-576.0","0","0","70128","","null","","","null","63","","","","","","","","","","","","","","","NaN",""
"","S1","","html-keyboard-response","414","477406","0.0-1.0-578.0","0","0","70128","","null","","","null","64","","","","","","","","","","","","","","","",""
"","ISI","","html-keyboard-response","415","478409","0.0-1.0-579.0","0","0","70128","","null","","","null","64","NaN","","","","","","","","","","","","","","",""
"","S2","","html-keyboard-response","416","478662","0.0-1.0-580.0","0","0","70128","","null","","","null","64","","NaN","","","","","","","","","","","","","",""
"","response","","html-keyboard-response","417","479766","0.0-1.0-581.0-0.0","0","0","70128","","1102","","","75","64","","","2","64","training","adjacent","FE","6","5","N.jpg","M.jpg","0","0","1","",""
"","feedback","","html-keyboard-response","418","480781","0.0-1.0-582.0-0.0","0","0","70128","","null","","","null","64","","","","","","","","","","","","","","","",""
"","ITI","","html-keyboard-response","419","481784","0.0-1.0-585.0","0","0","70128","","null","","","null","64","","","","","","","","","","","","","","","NaN",""
"","S1","","html-keyboard-response","420","482037","0.0-1.0-587.0","0","0","70128","","null","","","null","65","","","","","","","","","","","","","","","",""
"","ISI","","html-keyboard-response","421","483039","0.0-1.0-588.0","0","0","70128","","null","","","null","65","NaN","","","","","","","","","","","","","","",""
"","S2","","html-keyboard-response","422","483292","0.0-1.0-589.0","0","0","70128","","null","","","null","65","","NaN","","","","","","","","","","","","","",""
"","response","","html-keyboard-response","423","484538","0.0-1.0-590.0-0.0","0","0","70128","","1245","","","75","65","","","2","65","training","adjacent","BA","2","1","L.jpg","Q.jpg","0","0","1","",""
"","feedback","","html-keyboard-response","424","485547","0.0-1.0-591.0-0.0","0","0","70128","","null","","","null","65","","","","","","","","","","","","","","","",""
"","ITI","","html-keyboard-response","425","486563","0.0-1.0-594.0","0","0","70128","","null","","","null","65","","","","","","","","","","","","","","","NaN",""
"","S1","","html-keyboard-response","426","486815","0.0-1.0-596.0","0","0","70128","","null","","","null","66","","","","","","","","","","","","","","","",""
"","ISI","","html-keyboard-response","427","487818","0.0-1.0-597.0","0","0","70128","","null","","","null","66","NaN","","","","","","","","","","","","","","",""
"","S2","","html-keyboard-response","428","488070","0.0-1.0-598.0","0","0","70128","","null","","","null","66","","NaN","","","","","","","","","","","","","",""
"","response","","html-keyboard-response","429","488387","0.0-1.0-599.0-0.0","0","0","70128","","315","","","68","66","","","2","66","training","adjacent","DC","4","3","O.jpg","P.jpg","1","0","0","",""
"","feedback","","html-keyboard-response","430","489391","0.0-1.0-600.0-0.0","0","0","70128","","null","","","null","66","","","","","","","","","","","","","","","",""
"","time_out","","html-keyboard-response","431","491394","0.0-1.0-602.0-0.0","0","0","70128","","null","","","null","66","","","","","","","","","","","","","","","",""
"","ITI","","html-keyboard-response","432","492396","0.0-1.0-603.0","0","0","70128","","null","","","null","66","","","","","","","","","","","","","","","NaN",""
"","S1","","html-keyboard-response","433","492648","0.0-1.0-605.0","0","0","70128","","null","","","null","67","","","","","","","","","","","","","","","",""
"","ISI","","html-keyboard-response","434","493651","0.0-1.0-606.0","0","0","70128","","null","","","null","67","NaN","","","","","","","","","","","","","","",""
"","S2","","html-keyboard-response","435","493904","0.0-1.0-607.0","0","0","70128","","null","","","null","67","","NaN","","","","","","","","","","","","","",""
"","response","","html-keyboard-response","436","494361","0.0-1.0-608.0-0.0","0","0","70128","","456","","","68","67","","","2","67","training","adjacent","BC","2","3","L.jpg","P.jpg","1","1","1","",""
"","feedback","","html-keyboard-response","437","495365","0.0-1.0-609.0-0.0","0","0","70128","","null","","","null","67","","","","","","","","","","","","","","","",""
"","ITI","","html-keyboard-response","438","496375","0.0-1.0-612.0","0","0","70128","","null","","","null","67","","","","","","","","","","","","","","","NaN",""
"","S1","","html-keyboard-response","439","496627","0.0-1.0-614.0","0","0","70128","","null","","","null","68","","","","","","","","","","","","","","","",""
"","ISI","","html-keyboard-response","440","497629","0.0-1.0-615.0","0","0","70128","","null","","","null","68","NaN","","","","","","","","","","","","","","",""
"","S2","","html-keyboard-response","441","497882","0.0-1.0-616.0","0","0","70128","","null","","","null","68","","NaN","","","","","","","","","","","","","",""
"","response","","html-keyboard-response","442","498808","0.0-1.0-617.0-0.0","0","0","70128","","924","","","75","68","","","2","68","training","adjacent","ED","5","4","M.jpg","O.jpg","0","0","1","",""
"","feedback","","html-keyboard-response","443","499812","0.0-1.0-618.0-0.0","0","0","70128","","null","","","null","68","","","","","","","","","","","","","","","",""
"","ITI","","html-keyboard-response","444","500815","0.0-1.0-621.0","0","0","70128","","null","","","null","68","","","","","","","","","","","","","","","NaN",""
"","S1","","html-keyboard-response","445","501067","0.0-1.0-623.0","0","0","70128","","null","","","null","69","","","","","","","","","","","","","","","",""
"","ISI","","html-keyboard-response","446","502077","0.0-1.0-624.0","0","0","70128","","null","","","null","69","NaN","","","","","","","","","","","","","","",""
"","S2","","html-keyboard-response","447","502329","0.0-1.0-625.0","0","0","70128","","null","","","null","69","","NaN","","","","","","","","","","","","","",""
"","response","","html-keyboard-response","448","502847","0.0-1.0-626.0-0.0","0","0","70128","","516","","","68","69","","","2","69","training","adjacent","EF","5","6","M.jpg","N.jpg","1","1","1","",""
"","feedback","","html-keyboard-response","449","503850","0.0-1.0-627.0-0.0","0","0","70128","","null","","","null","69","","","","","","","","","","","","","","","",""
"","ITI","","html-keyboard-response","450","504853","0.0-1.0-630.0","0","0","70128","","null","","","null","69","","","","","","","","","","","","","","","NaN",""
"","S1","","html-keyboard-response","451","505106","0.0-1.0-632.0","0","0","70128","","null","","","null","70","","","","","","","","","","","","","","","",""
"","ISI","","html-keyboard-response","452","506108","0.0-1.0-633.0","0","0","70128","","null","","","null","70","NaN","","","","","","","","","","","","","","",""
"","S2","","html-keyboard-response","453","506361","0.0-1.0-634.0","0","0","70128","","null","","","null","70","","NaN","","","","","","","","","","","","","",""
"","response","","html-keyboard-response","454","506818","0.0-1.0-635.0-0.0","0","0","70128","","455","","","75","70","","","2","70","training","adjacent","CB","3","2","P.jpg","L.jpg","0","0","1","",""
"","feedback","","html-keyboard-response","455","507821","0.0-1.0-636.0-0.0","0","0","70128","","null","","","null","70","","","","","","","","","","","","","","","",""
"","ITI","","html-keyboard-response","456","508824","0.0-1.0-639.0","0","0","70128","","null","","","null","70","","","","","","","","","","","","","","","NaN",""
"","S1","","html-keyboard-response","457","509077","0.0-1.0-641.0","0","0","70128","","null","","","null","71","","","","","","","","","","","","","","","",""
"","ISI","","html-keyboard-response","458","510080","0.0-1.0-642.0","0","0","70128","","null","","","null","71","NaN","","","","","","","","","","","","","","",""
"","S2","","html-keyboard-response","459","510333","0.0-1.0-643.0","0","0","70128","","null","","","null","71","","NaN","","","","","","","","","","","","","",""
"","response","","html-keyboard-response","460","510534","0.0-1.0-644.0-0.0","0","0","70128","","200","","","68","71","","","2","71","training","adjacent","BC","2","3","L.jpg","P.jpg","1","1","1","",""
"","feedback","","html-keyboard-response","461","511537","0.0-1.0-645.0-0.0","0","0","70128","","null","","","null","71","","","","","","","","","","","","","","","",""
"","ITI","","html-keyboard-response","462","512540","0.0-1.0-648.0","0","0","70128","","null","","","null","71","","","","","","","","","","","","","","","NaN",""
"","S1","","html-keyboard-response","463","512793","0.0-1.0-650.0","0","0","70128","","null","","","null","72","","","","","","","","","","","","","","","",""
"","ISI","","html-keyboard-response","464","513796","0.0-1.0-651.0","0","0","70128","","null","","","null","72","NaN","","","","","","","","","","","","","","",""
"","S2","","html-keyboard-response","465","514049","0.0-1.0-652.0","0","0","70128","","null","","","null","72","","NaN","","","","","","","","","","","","","",""
"","response","","html-keyboard-response","466","515285","0.0-1.0-653.0-0.0","0","0","70128","","1233","","","68","72","","","2","72","training","adjacent","GF","7","6","R.jpg","N.jpg","1","0","0","",""
"","feedback","","html-keyboard-response","467","516288","0.0-1.0-654.0-0.0","0","0","70128","","null","","","null","72","","","","","","","","","","","","","","","",""
"","time_out","","html-keyboard-response","468","518291","0.0-1.0-656.0-0.0","0","0","70128","","null","","","null","72","","","","","","","","","","","","","","","",""
"","ITI","","html-keyboard-response","469","519294","0.0-1.0-657.0","0","0","70128","","null","","","null","72","","","","","","","","","","","","","","","NaN",""
"","S1","","html-keyboard-response","470","519549","0.0-1.0-659.0","0","0","70128","","null","","","null","73","","","","","","","","","","","","","","","",""
"","ISI","","html-keyboard-response","471","520552","0.0-1.0-660.0","0","0","70128","","null","","","null","73","NaN","","","","","","","","","","","","","","",""
"","S2","","html-keyboard-response","472","520804","0.0-1.0-661.0","0","0","70128","","null","","","null","73","","NaN","","","","","","","","","","","","","",""
"","response","","html-keyboard-response","473","522390","0.0-1.0-662.0-0.0","0","0","70128","","1583","","","75","73","","","2","73","training","adjacent","GF","7","6","R.jpg","N.jpg","0","0","1","",""
"","feedback","","html-keyboard-response","474","523393","0.0-1.0-663.0-0.0","0","0","70128","","null","","","null","73","","","","","","","","","","","","","","","",""
"","ITI","","html-keyboard-response","475","524396","0.0-1.0-666.0","0","0","70128","","null","","","null","73","","","","","","","","","","","","","","","NaN",""
"","S1","","html-keyboard-response","476","524649","0.0-1.0-668.0","0","0","70128","","null","","","null","74","","","","","","","","","","","","","","","",""
"","ISI","","html-keyboard-response","477","525652","0.0-1.0-669.0","0","0","70128","","null","","","null","74","NaN","","","","","","","","","","","","","","",""
"","S2","","html-keyboard-response","478","525905","0.0-1.0-670.0","0","0","70128","","null","","","null","74","","NaN","","","","","","","","","","","","","",""
"","response","","html-keyboard-response","479","526398","0.0-1.0-671.0-0.0","0","0","70128","","492","","","68","74","","","2","74","training","adjacent","DC","4","3","O.jpg","P.jpg","1","0","0","",""
"","feedback","","html-keyboard-response","480","527412","0.0-1.0-672.0-0.0","0","0","70128","","null","","","null","74","","","","","","","","","","","","","","","",""
"","time_out","","html-keyboard-response","481","529421","0.0-1.0-674.0-0.0","0","0","70128","","null","","","null","74","","","","","","","","","","","","","","","",""
"","ITI","","html-keyboard-response","482","530423","0.0-1.0-675.0","0","0","70128","","null","","","null","74","","","","","","","","","","","","","","","NaN",""
"","S1","","html-keyboard-response","483","530677","0.0-1.0-677.0","0","0","70128","","null","","","null","75","","","","","","","","","","","","","","","",""
"","ISI","","html-keyboard-response","484","531680","0.0-1.0-678.0","0","0","70128","","null","","","null","75","NaN","","","","","","","","","","","","","","",""
"","S2","","html-keyboard-response","485","531933","0.0-1.0-679.0","0","0","70128","","null","","","null","75","","NaN","","","","","","","","","","","","","",""
"","response","","html-keyboard-response","486","532934","0.0-1.0-680.0-0.0","0","0","70128","","999","","","75","75","","","2","75","training","adjacent","BA","2","1","L.jpg","Q.jpg","0","0","1","",""
"","feedback","","html-keyboard-response","487","533937","0.0-1.0-681.0-0.0","0","0","70128","","null","","","null","75","","","","","","","","","","","","","","","",""
"","ITI","","html-keyboard-response","488","534940","0.0-1.0-684.0","0","0","70128","","null","","","null","75","","","","","","","","","","","","","","","NaN",""
"","S1","","html-keyboard-response","489","535193","0.0-1.0-686.0","0","0","70128","","null","","","null","76","","","","","","","","","","","","","","","",""
"","ISI","","html-keyboard-response","490","536195","0.0-1.0-687.0","0","0","70128","","null","","","null","76","NaN","","","","","","","","","","","","","","",""
"","S2","","html-keyboard-response","491","536448","0.0-1.0-688.0","0","0","70128","","null","","","null","76","","NaN","","","","","","","","","","","","","",""
"","response","","html-keyboard-response","492","537918","0.0-1.0-689.0-0.0","0","0","70128","","1468","","","75","76","","","2","76","training","adjacent","CB","3","2","P.jpg","L.jpg","0","0","1","",""
"","feedback","","html-keyboard-response","493","538922","0.0-1.0-690.0-0.0","0","0","70128","","null","","","null","76","","","","","","","","","","","","","","","",""
"","ITI","","html-keyboard-response","494","539925","0.0-1.0-693.0","0","0","70128","","null","","","null","76","","","","","","","","","","","","","","","NaN",""
"","S1","","html-keyboard-response","495","540177","0.0-1.0-695.0","0","0","70128","","null","","","null","77","","","","","","","","","","","","","","","",""
"","ISI","","html-keyboard-response","496","541180","0.0-1.0-696.0","0","0","70128","","null","","","null","77","NaN","","","","","","","","","","","","","","",""
"","S2","","html-keyboard-response","497","541433","0.0-1.0-697.0","0","0","70128","","null","","","null","77","","NaN","","","","","","","","","","","","","",""
"","response","","html-keyboard-response","498","542491","0.0-1.0-698.0-0.0","0","0","70128","","1056","","","75","77","","","2","77","training","adjacent","FE","6","5","N.jpg","M.jpg","0","0","1","",""
"","feedback","","html-keyboard-response","499","543494","0.0-1.0-699.0-0.0","0","0","70128","","null","","","null","77","","","","","","","","","","","","","","","",""
"","ITI","","html-keyboard-response","500","544497","0.0-1.0-702.0","0","0","70128","","null","","","null","77","","","","","","","","","","","","","","","NaN",""
"","S1","","html-keyboard-response","501","544750","0.0-1.0-704.0","0","0","70128","","null","","","null","78","","","","","","","","","","","","","","","",""
"","ISI","","html-keyboard-response","502","545753","0.0-1.0-705.0","0","0","70128","","null","","","null","78","NaN","","","","","","","","","","","","","","",""
"","S2","","html-keyboard-response","503","546005","0.0-1.0-706.0","0","0","70128","","null","","","null","78","","NaN","","","","","","","","","","","","","",""
"","response","","html-keyboard-response","504","546371","0.0-1.0-707.0-0.0","0","0","70128","","363","","","68","78","","","2","78","training","adjacent","DE","4","5","O.jpg","M.jpg","1","1","1","",""
"","feedback","","html-keyboard-response","505","547374","0.0-1.0-708.0-0.0","0","0","70128","","null","","","null","78","","","","","","","","","","","","","","","",""
"","ITI","","html-keyboard-response","506","548377","0.0-1.0-711.0","0","0","70128","","null","","","null","78","","","","","","","","","","","","","","","NaN",""
"","S1","","html-keyboard-response","507","548629","0.0-1.0-713.0","0","0","70128","","null","","","null","79","","","","","","","","","","","","","","","",""
"","ISI","","html-keyboard-response","508","549631","0.0-1.0-714.0","0","0","70128","","null","","","null","79","NaN","","","","","","","","","","","","","","",""
"","S2","","html-keyboard-response","509","549885","0.0-1.0-715.0","0","0","70128","","null","","","null","79","","NaN","","","","","","","","","","","","","",""
"","response","","html-keyboard-response","510","550075","0.0-1.0-716.0-0.0","0","0","70128","","189","","","68","79","","","2","79","training","adjacent","DC","4","3","O.jpg","P.jpg","1","0","0","",""
"","feedback","","html-keyboard-response","511","551078","0.0-1.0-717.0-0.0","0","0","70128","","null","","","null","79","","","","","","","","","","","","","","","",""
"","time_out","","html-keyboard-response","512","553082","0.0-1.0-719.0-0.0","0","0","70128","","null","","","null","79","","","","","","","","","","","","","","","",""
"","ITI","","html-keyboard-response","513","554085","0.0-1.0-720.0","0","0","70128","","null","","","null","79","","","","","","","","","","","","","","","NaN",""
"","S1","","html-keyboard-response","514","554338","0.0-1.0-722.0","0","0","70128","","null","","","null","80","","","","","","","","","","","","","","","",""
"","ISI","","html-keyboard-response","515","555341","0.0-1.0-723.0","0","0","70128","","null","","","null","80","NaN","","","","","","","","","","","","","","",""
"","S2","","html-keyboard-response","516","555595","0.0-1.0-724.0","0","0","70128","","null","","","null","80","","NaN","","","","","","","","","","","","","",""
"","response","","html-keyboard-response","517","556045","0.0-1.0-725.0-0.0","0","0","70128","","449","","","75","80","","","2","80","training","adjacent","ED","5","4","M.jpg","O.jpg","0","0","1","",""
"","feedback","","html-keyboard-response","518","557048","0.0-1.0-726.0-0.0","0","0","70128","","null","","","null","80","","","","","","","","","","","","","","","",""
"","ITI","","html-keyboard-response","519","558051","0.0-1.0-729.0","0","0","70128","","null","","","null","80","","","","","","","","","","","","","","","NaN",""
"","S1","","html-keyboard-response","520","558304","0.0-1.0-731.0","0","0","70128","","null","","","null","81","","","","","","","","","","","","","","","",""
"","ISI","","html-keyboard-response","521","559306","0.0-1.0-732.0","0","0","70128","","null","","","null","81","NaN","","","","","","","","","","","","","","",""
"","S2","","html-keyboard-response","522","559560","0.0-1.0-733.0","0","0","70128","","null","","","null","81","","NaN","","","","","","","","","","","","","",""
"","response","","html-keyboard-response","523","561189","0.0-1.0-734.0-0.0","0","0","70128","","1628","","","75","81","","","2","81","training","adjacent","GF","7","6","R.jpg","N.jpg","0","0","1","",""
"","feedback","","html-keyboard-response","524","562192","0.0-1.0-735.0-0.0","0","0","70128","","null","","","null","81","","","","","","","","","","","","","","","",""
"","ITI","","html-keyboard-response","525","563195","0.0-1.0-738.0","0","0","70128","","null","","","null","81","","","","","","","","","","","","","","","NaN",""
"","S1","","html-keyboard-response","526","563457","0.0-1.0-740.0","0","0","70128","","null","","","null","82","","","","","","","","","","","","","","","",""
"","ISI","","html-keyboard-response","527","564460","0.0-1.0-741.0","0","0","70128","","null","","","null","82","NaN","","","","","","","","","","","","","","",""
"","S2","","html-keyboard-response","528","564713","0.0-1.0-742.0","0","0","70128","","null","","","null","82","","NaN","","","","","","","","","","","","","",""
"","response","","html-keyboard-response","529","565056","0.0-1.0-743.0-0.0","0","0","70128","","341","","","68","82","","","2","82","training","adjacent","FG","6","7","N.jpg","R.jpg","1","1","1","",""
"","feedback","","html-keyboard-response","530","566059","0.0-1.0-744.0-0.0","0","0","70128","","null","","","null","82","","","","","","","","","","","","","","","",""
"","ITI","","html-keyboard-response","531","567062","0.0-1.0-747.0","0","0","70128","","null","","","null","82","","","","","","","","","","","","","","","NaN",""
"","S1","","html-keyboard-response","532","567315","0.0-1.0-749.0","0","0","70128","","null","","","null","83","","","","","","","","","","","","","","","",""
"","ISI","","html-keyboard-response","533","568319","0.0-1.0-750.0","0","0","70128","","null","","","null","83","NaN","","","","","","","","","","","","","","",""
"","S2","","html-keyboard-response","534","568571","0.0-1.0-751.0","0","0","70128","","null","","","null","83","","NaN","","","","","","","","","","","","","",""
"","response","","html-keyboard-response","535","569192","0.0-1.0-752.0-0.0","0","0","70128","","619","","","75","83","","","2","83","training","adjacent","AB","1","2","Q.jpg","L.jpg","0","1","0","",""
"","feedback","","html-keyboard-response","536","570195","0.0-1.0-753.0-0.0","0","0","70128","","null","","","null","83","","","","","","","","","","","","","","","",""
"","time_out","","html-keyboard-response","537","572198","0.0-1.0-755.0-0.0","0","0","70128","","null","","","null","83","","","","","","","","","","","","","","","",""
"","ITI","","html-keyboard-response","538","573200","0.0-1.0-756.0","0","0","70128","","null","","","null","83","","","","","","","","","","","","","","","NaN",""
"","S1","","html-keyboard-response","539","573454","0.0-1.0-758.0","0","0","70128","","null","","","null","84","","","","","","","","","","","","","","","",""
"","ISI","","html-keyboard-response","540","574457","0.0-1.0-759.0","0","0","70128","","null","","","null","84","NaN","","","","","","","","","","","","","","",""
"","S2","","html-keyboard-response","541","574710","0.0-1.0-760.0","0","0","70128","","null","","","null","84","","NaN","","","","","","","","","","","","","",""
"","response","","html-keyboard-response","542","574868","0.0-1.0-761.0-0.0","0","0","70128","","156","","","68","84","","","2","84","training","adjacent","BC","2","3","L.jpg","P.jpg","1","1","1","",""
"","feedback","","html-keyboard-response","543","575871","0.0-1.0-762.0-0.0","0","0","70128","","null","","","null","84","","","","","","","","","","","","","","","",""
"","ITI","","html-keyboard-response","544","576874","0.0-1.0-765.0","0","0","70128","","null","","","null","84","","","","","","","","","","","","","","","NaN",""
"","S1","","html-keyboard-response","545","577127","0.0-1.0-767.0","0","0","70128","","null","","","null","85","","","","","","","","","","","","","","","",""
"","ISI","","html-keyboard-response","546","578130","0.0-1.0-768.0","0","0","70128","","null","","","null","85","NaN","","","","","","","","","","","","","","",""
"","S2","","html-keyboard-response","547","578383","0.0-1.0-769.0","0","0","70128","","null","","","null","85","","NaN","","","","","","","","","","","","","",""
"","response","","html-keyboard-response","548","578628","0.0-1.0-770.0-0.0","0","0","70128","","244","","","75","85","","","2","85","training","adjacent","CD","3","4","P.jpg","O.jpg","0","1","0","",""
"","feedback","","html-keyboard-response","549","579631","0.0-1.0-771.0-0.0","0","0","70128","","null","","","null","85","","","","","","","","","","","","","","","",""
"","time_out","","html-keyboard-response","550","581634","0.0-1.0-773.0-0.0","0","0","70128","","null","","","null","85","","","","","","","","","","","","","","","",""
"","ITI","","html-keyboard-response","551","582637","0.0-1.0-774.0","0","0","70128","","null","","","null","85","","","","","","","","","","","","","","","NaN",""
"","S1","","html-keyboard-response","552","582889","0.0-1.0-776.0","0","0","70128","","null","","","null","86","","","","","","","","","","","","","","","",""
"","ISI","","html-keyboard-response","553","583892","0.0-1.0-777.0","0","0","70128","","null","","","null","86","NaN","","","","","","","","","","","","","","",""
"","S2","","html-keyboard-response","554","584145","0.0-1.0-778.0","0","0","70128","","null","","","null","86","","NaN","","","","","","","","","","","","","",""
"","response","","html-keyboard-response","555","584322","0.0-1.0-779.0-0.0","0","0","70128","","176","","","68","86","","","2","86","training","adjacent","ED","5","4","M.jpg","O.jpg","1","0","0","",""
"","feedback","","html-keyboard-response","556","585326","0.0-1.0-780.0-0.0","0","0","70128","","null","","","null","86","","","","","","","","","","","","","","","",""
"","time_out","","html-keyboard-response","557","587329","0.0-1.0-782.0-0.0","0","0","70128","","null","","","null","86","","","","","","","","","","","","","","","",""
"","ITI","","html-keyboard-response","558","588332","0.0-1.0-783.0","0","0","70128","","null","","","null","86","","","","","","","","","","","","","","","NaN",""
"","S1","","html-keyboard-response","559","588585","0.0-1.0-785.0","0","0","70128","","null","","","null","87","","","","","","","","","","","","","","","",""
"","ISI","","html-keyboard-response","560","589589","0.0-1.0-786.0","0","0","70128","","null","","","null","87","NaN","","","","","","","","","","","","","","",""
"","S2","","html-keyboard-response","561","589842","0.0-1.0-787.0","0","0","70128","","null","","","null","87","","NaN","","","","","","","","","","","","","",""
"","response","","html-keyboard-response","562","590568","0.0-1.0-788.0-0.0","0","0","70128","","724","","","75","87","","","2","87","training","adjacent","EF","5","6","M.jpg","N.jpg","0","1","0","",""
"","feedback","","html-keyboard-response","563","591571","0.0-1.0-789.0-0.0","0","0","70128","","null","","","null","87","","","","","","","","","","","","","","","",""
"","time_out","","html-keyboard-response","564","593574","0.0-1.0-791.0-0.0","0","0","70128","","null","","","null","87","","","","","","","","","","","","","","","",""
"","ITI","","html-keyboard-response","565","594577","0.0-1.0-792.0","0","0","70128","","null","","","null","87","","","","","","","","","","","","","","","NaN",""
"","S1","","html-keyboard-response","566","594830","0.0-1.0-794.0","0","0","70128","","null","","","null","88","","","","","","","","","","","","","","","",""
"","ISI","","html-keyboard-response","567","595833","0.0-1.0-795.0","0","0","70128","","null","","","null","88","NaN","","","","","","","","","","","","","","",""
"","S2","","html-keyboard-response","568","596086","0.0-1.0-796.0","0","0","70128","","null","","","null","88","","NaN","","","","","","","","","","","","","",""
"","response","","html-keyboard-response","569","597397","0.0-1.0-797.0-0.0","0","0","70128","","1308","","","68","88","","","2","88","training","adjacent","FG","6","7","N.jpg","R.jpg","1","1","1","",""
"","feedback","","html-keyboard-response","570","598403","0.0-1.0-798.0-0.0","0","0","70128","","null","","","null","88","","","","","","","","","","","","","","","",""
"","ITI","","html-keyboard-response","571","599406","0.0-1.0-801.0","0","0","70128","","null","","","null","88","","","","","","","","","","","","","","","NaN",""
"","S1","","html-keyboard-response","572","599659","0.0-1.0-803.0","0","0","70128","","null","","","null","89","","","","","","","","","","","","","","","",""
"","ISI","","html-keyboard-response","573","600671","0.0-1.0-804.0","0","0","70128","","null","","","null","89","NaN","","","","","","","","","","","","","","",""
"","S2","","html-keyboard-response","574","600925","0.0-1.0-805.0","0","0","70128","","null","","","null","89","","NaN","","","","","","","","","","","","","",""
"","response","","html-keyboard-response","575","601827","0.0-1.0-806.0-0.0","0","0","70128","","901","","","75","89","","","2","89","training","adjacent","CB","3","2","P.jpg","L.jpg","0","0","1","",""
"","feedback","","html-keyboard-response","576","602830","0.0-1.0-807.0-0.0","0","0","70128","","null","","","null","89","","","","","","","","","","","","","","","",""
"","ITI","","html-keyboard-response","577","603834","0.0-1.0-810.0","0","0","70128","","null","","","null","89","","","","","","","","","","","","","","","NaN",""
"","S1","","html-keyboard-response","578","604089","0.0-1.0-812.0","0","0","70128","","null","","","null","90","","","","","","","","","","","","","","","",""
"","ISI","","html-keyboard-response","579","605092","0.0-1.0-813.0","0","0","70128","","null","","","null","90","NaN","","","","","","","","","","","","","","",""
"","S2","","html-keyboard-response","580","605344","0.0-1.0-814.0","0","0","70128","","null","","","null","90","","NaN","","","","","","","","","","","","","",""
