"success","ttype","start_time","trial_type","trial_index","time_elapsed","internal_node_id","warning","missed_checkup","PID","view_history","rt","responses","repeat_instructions","key_press","index","keypress_isi","keypress_S2","block","trial_num","phase","group_type","pair_type","S1_stim","S2_stim","S1_img","S2_img","S1_chosen","S1_higher","accuracy","keypress_iti","total_bonus_tally"
"true","full_screen","d03032023hr1949","fullscreen","0","3237","0.0-0.0","0","0","89306","","","","","","","","","","","","","","","","","","","","","",""
"","instructions","","instructions","1","16295","0.0-1.0-0.0-0.0","0","0","89306","[{""page_index"":0,""viewing_time"":2471},{""page_index"":1,""viewing_time"":3551},{""page_index"":2,""viewing_time"":6139},{""page_index"":3,""viewing_time"":895}]","13056","","","","","","","","","","","","","","","","","","","",""
"","comprehension_check","","survey-multi-choice","2","41745","0.0-1.0-0.0-1.0","0","0","89306","","25447","{""Q0"":""True"",""Q1"":""D"",""Q2"":""Once the second image appears and while the screen 'MAKE A CHOICE' is shown"",""Q3"":""Green mark"",""Q4"":""either D or K""}","0","","","","","","","","","","","","","","","","","",""
"","start_exp","","html-keyboard-response","3","42805","0.0-1.0-1.0","0","0","89306","","1057","","","32","","","","","","","","","","","","","","","","",""
"","S1","","html-keyboard-response","4","43066","0.0-1.0-2.0","0","0","89306","","null","","","null","0","","","","","","","","","","","","","","","",""
"","ISI","","html-keyboard-response","5","43575","0.0-1.0-3.0","0","0","89306","","null","","","null","0","NaN","","","","","","","","","","","","","","",""
"","S2","","html-keyboard-response","6","43833","0.0-1.0-4.0","0","0","89306","","null","","","null","0","","NaN","","","","","","","","","","","","","",""
"","response","","html-keyboard-response","7","44423","0.0-1.0-5.0-0.0","0","0","89306","","586","","","68","0","","","1","0","training","adjacent","CB","3","2","R.jpg","N.jpg","1","0","0","",""
"","feedback","","html-keyboard-response","8","45433","0.0-1.0-6.0-0.0","0","0","89306","","null","","","null","0","","","","","","","","","","","","","","","",""
"","time_out","","html-keyboard-response","9","47442","0.0-1.0-8.0-0.0","0","0","89306","","null","","","null","0","","","","","","","","","","","","","","","",""
"","ITI","","html-keyboard-response","10","48458","0.0-1.0-9.0","0","0","89306","","null","","","null","0","","","","","","","","","","","","","","","NaN",""
"","S1","","html-keyboard-response","11","48721","0.0-1.0-11.0","0","0","89306","","null","","","null","1","","","","","","","","","","","","","","","",""
"","ISI","","html-keyboard-response","12","49229","0.0-1.0-12.0","0","0","89306","","null","","","null","1","NaN","","","","","","","","","","","","","","",""
"","S2","","html-keyboard-response","13","49484","0.0-1.0-13.0","0","0","89306","","null","","","null","1","","NaN","","","","","","","","","","","","","",""
"","response","","html-keyboard-response","14","50066","0.0-1.0-14.0-0.0","0","0","89306","","577","","","75","1","","","1","1","training","adjacent","FE","6","5","O.jpg","M.jpg","0","0","1","",""
"","feedback","","html-keyboard-response","15","51082","0.0-1.0-15.0-0.0","0","0","89306","","null","","","null","1","","","","","","","","","","","","","","","",""
"","ITI","","html-keyboard-response","16","52095","0.0-1.0-18.0","0","0","89306","","null","","","null","1","","","","","","","","","","","","","","","NaN",""
"","S1","","html-keyboard-response","17","52351","0.0-1.0-20.0","0","0","89306","","null","","","null","2","","","","","","","","","","","","","","","",""
"","ISI","","html-keyboard-response","18","52864","0.0-1.0-21.0","0","0","89306","","null","","","null","2","NaN","","","","","","","","","","","","","","",""
"","S2","","html-keyboard-response","19","53130","0.0-1.0-22.0","0","0","89306","","null","","","null","2","","NaN","","","","","","","","","","","","","",""
"","response","","html-keyboard-response","20","53768","0.0-1.0-23.0-0.0","0","0","89306","","636","","","75","2","","","1","2","training","adjacent","FE","6","5","O.jpg","M.jpg","0","0","1","",""
"","feedback","","html-keyboard-response","21","54778","0.0-1.0-24.0-0.0","0","0","89306","","null","","","null","2","","","","","","","","","","","","","","","",""
"","ITI","","html-keyboard-response","22","55790","0.0-1.0-27.0","0","0","89306","","null","","","null","2","","","","","","","","","","","","","","","NaN",""
"","S1","","html-keyboard-response","23","56044","0.0-1.0-29.0","0","0","89306","","null","","","null","3","","","","","","","","","","","","","","","",""
"","ISI","","html-keyboard-response","24","56554","0.0-1.0-30.0","0","0","89306","","null","","","null","3","NaN","","","","","","","","","","","","","","",""
"","S2","","html-keyboard-response","25","56816","0.0-1.0-31.0","0","0","89306","","null","","","null","3","","NaN","","","","","","","","","","","","","",""
"","response","","html-keyboard-response","26","57214","0.0-1.0-32.0-0.0","0","0","89306","","396","","","75","3","","","1","3","training","adjacent","DC","4","3","L.jpg","R.jpg","0","0","1","",""
"","feedback","","html-keyboard-response","27","58223","0.0-1.0-33.0-0.0","0","0","89306","","null","","","null","3","","","","","","","","","","","","","","","",""
"","ITI","","html-keyboard-response","28","59229","0.0-1.0-36.0","0","0","89306","","null","","","null","3","","","","","","","","","","","","","","","NaN",""
"","S1","","html-keyboard-response","29","59484","0.0-1.0-38.0","0","0","89306","","null","","","null","4","","","","","","","","","","","","","","","",""
"","ISI","","html-keyboard-response","30","59994","0.0-1.0-39.0","0","0","89306","","null","","","null","4","NaN","","","","","","","","","","","","","","",""
"","S2","","html-keyboard-response","31","60259","0.0-1.0-40.0","0","0","89306","","null","","","null","4","","NaN","","","","","","","","","","","","","",""
"","response","","html-keyboard-response","32","60731","0.0-1.0-41.0-0.0","0","0","89306","","467","","","68","4","","","1","4","training","adjacent","CB","3","2","R.jpg","N.jpg","1","0","0","",""
"","feedback","","html-keyboard-response","33","61742","0.0-1.0-42.0-0.0","0","0","89306","","null","","","null","4","","","","","","","","","","","","","","","",""
"","time_out","","html-keyboard-response","34","63754","0.0-1.0-44.0-0.0","0","0","89306","","null","","","null","4","","","","","","","","","","","","","","","",""
"","ITI","","html-keyboard-response","35","64765","0.0-1.0-45.0","0","0","89306","","null","","","null","4","","","","","","","","","","","","","","","NaN",""
"","S1","","html-keyboard-response","36","65027","0.0-1.0-47.0","0","0","89306","","null","","","null","5","","","","","","","","","","","","","","","",""
"","ISI","","html-keyboard-response","37","65535","0.0-1.0-48.0","0","0","89306","","null","","","null","5","NaN","","","","","","","","","","","","","","",""
"","S2","","html-keyboard-response","38","65790","0.0-1.0-49.0","0","0","89306","","null","","","null","5","","NaN","","","","","","","","","","","","","",""
"","response","","html-keyboard-response","39","66315","0.0-1.0-50.0-0.0","0","0","89306","","522","","","68","5","","","1","5","training","adjacent","GF","7","6","Q.jpg","O.jpg","1","0","0","",""
"","feedback","","html-keyboard-response","40","67328","0.0-1.0-51.0-0.0","0","0","89306","","null","","","null","5","","","","","","","","","","","","","","","",""
"","time_out","","html-keyboard-response","41","69338","0.0-1.0-53.0-0.0","0","0","89306","","null","","","null","5","","","","","","","","","","","","","","","",""
"","ITI","","html-keyboard-response","42","70352","0.0-1.0-54.0","0","0","89306","","null","","","null","5","","","","","","","","","","","","","","","NaN",""
"","S1","","html-keyboard-response","43","70616","0.0-1.0-56.0","0","0","89306","","null","","","null","6","","","","","","","","","","","","","","","",""
"","ISI","","html-keyboard-response","44","71130","0.0-1.0-57.0","0","0","89306","","null","","","null","6","NaN","","","","","","","","","","","","","","",""
"","S2","","html-keyboard-response","45","71390","0.0-1.0-58.0","0","0","89306","","null","","","null","6","","NaN","","","","","","","","","","","","","",""
"","response","","html-keyboard-response","46","71731","0.0-1.0-59.0-0.0","0","0","89306","","339","","","75","6","","","1","6","training","adjacent","FE","6","5","O.jpg","M.jpg","0","0","1","",""
"","feedback","","html-keyboard-response","47","72746","0.0-1.0-60.0-0.0","0","0","89306","","null","","","null","6","","","","","","","","","","","","","","","",""
"","ITI","","html-keyboard-response","48","73751","0.0-1.0-63.0","0","0","89306","","null","","","null","6","","","","","","","","","","","","","","","NaN",""
"","S1","","html-keyboard-response","49","74007","0.0-1.0-65.0","0","0","89306","","null","","","null","7","","","","","","","","","","","","","","","",""
"","ISI","","html-keyboard-response","50","74523","0.0-1.0-66.0","0","0","89306","","null","","","null","7","NaN","","","","","","","","","","","","","","",""
"","S2","","html-keyboard-response","51","74785","0.0-1.0-67.0","0","0","89306","","null","","","null","7","","NaN","","","","","","","","","","","","","",""
"","response","","html-keyboard-response","52","75190","0.0-1.0-68.0-0.0","0","0","89306","","401","","","75","7","","","1","7","training","adjacent","FG","6","7","O.jpg","Q.jpg","0","1","0","",""
"","feedback","","html-keyboard-response","53","76203","0.0-1.0-69.0-0.0","0","0","89306","","null","","","null","7","","","","","","","","","","","","","","","",""
"","time_out","","html-keyboard-response","54","78218","0.0-1.0-71.0-0.0","0","0","89306","","null","","","null","7","","","","","","","","","","","","","","","",""
"","ITI","","html-keyboard-response","55","79229","0.0-1.0-72.0","0","0","89306","","null","","","null","7","","","","","","","","","","","","","","","NaN",""
"","S1","","html-keyboard-response","56","79488","0.0-1.0-74.0","0","0","89306","","null","","","null","8","","","","","","","","","","","","","","","",""
"","ISI","","html-keyboard-response","57","79999","0.0-1.0-75.0","0","0","89306","","null","","","null","8","NaN","","","","","","","","","","","","","","",""
"","S2","","html-keyboard-response","58","80256","0.0-1.0-76.0","0","0","89306","","null","","","null","8","","NaN","","","","","","","","","","","","","",""
"","response","","html-keyboard-response","59","80676","0.0-1.0-77.0-0.0","0","0","89306","","419","","","68","8","","","1","8","training","adjacent","FG","6","7","O.jpg","Q.jpg","1","1","1","",""
"","feedback","","html-keyboard-response","60","81688","0.0-1.0-78.0-0.0","0","0","89306","","null","","","null","8","","","","","","","","","","","","","","","",""
"","ITI","","html-keyboard-response","61","82698","0.0-1.0-81.0","0","0","89306","","null","","","null","8","","","","","","","","","","","","","","","NaN",""
"","S1","","html-keyboard-response","62","82957","0.0-1.0-83.0","0","0","89306","","null","","","null","9","","","","","","","","","","","","","","","",""
"","ISI","","html-keyboard-response","63","83467","0.0-1.0-84.0","0","0","89306","","null","","","null","9","NaN","","","","","","","","","","","","","","",""
"","S2","","html-keyboard-response","64","83725","0.0-1.0-85.0","0","0","89306","","null","","","null","9","","NaN","","","","","","","","","","","","","",""
"","response","","html-keyboard-response","65","84096","0.0-1.0-86.0-0.0","0","0","89306","","369","","","68","9","","","1","9","training","adjacent","CD","3","4","R.jpg","L.jpg","1","1","1","",""
"","feedback","","html-keyboard-response","66","85101","0.0-1.0-87.0-0.0","0","0","89306","","null","","","null","9","","","","","","","","","","","","","","","",""
"","ITI","","html-keyboard-response","67","86112","0.0-1.0-90.0","0","0","89306","","null","","","null","9","","","","","","","","","","","","","","","NaN",""
"","S1","","html-keyboard-response","68","86379","0.0-1.0-92.0","0","0","89306","","null","","","null","10","","","","","","","","","","","","","","","",""
"","ISI","","html-keyboard-response","69","86890","0.0-1.0-93.0","0","0","89306","","null","","","null","10","NaN","","","","","","","","","","","","","","",""
"","S2","","html-keyboard-response","70","87149","0.0-1.0-94.0","0","0","89306","","null","","","null","10","","NaN","","","","","","","","","","","","","",""
"","response","","html-keyboard-response","71","87575","0.0-1.0-95.0-0.0","0","0","89306","","424","","","68","10","","","1","10","training","adjacent","AB","1","2","P.jpg","N.jpg","1","1","1","",""
"","feedback","","html-keyboard-response","72","88587","0.0-1.0-96.0-0.0","0","0","89306","","null","","","null","10","","","","","","","","","","","","","","","",""
"","ITI","","html-keyboard-response","73","89597","0.0-1.0-99.0","0","0","89306","","null","","","null","10","","","","","","","","","","","","","","","NaN",""
"","S1","","html-keyboard-response","74","89856","0.0-1.0-101.0","0","0","89306","","null","","","null","11","","","","","","","","","","","","","","","",""
"","ISI","","html-keyboard-response","75","90368","0.0-1.0-102.0","0","0","89306","","null","","","null","11","NaN","","","","","","","","","","","","","","",""
"","S2","","html-keyboard-response","76","90632","0.0-1.0-103.0","0","0","89306","","null","","","null","11","","NaN","","","","","","","","","","","","","",""
"","response","","html-keyboard-response","77","91153","0.0-1.0-104.0-0.0","0","0","89306","","521","","","75","11","","","1","11","training","adjacent","DC","4","3","L.jpg","R.jpg","0","0","1","",""
"","feedback","","html-keyboard-response","78","92160","0.0-1.0-105.0-0.0","0","0","89306","","null","","","null","11","","","","","","","","","","","","","","","",""
"","ITI","","html-keyboard-response","79","93168","0.0-1.0-108.0","0","0","89306","","null","","","null","11","","","","","","","","","","","","","","","NaN",""
"","S1","","html-keyboard-response","80","93431","0.0-1.0-110.0","0","0","89306","","null","","","null","12","","","","","","","","","","","","","","","",""
"","ISI","","html-keyboard-response","81","93946","0.0-1.0-111.0","0","0","89306","","null","","","null","12","NaN","","","","","","","","","","","","","","",""
"","S2","","html-keyboard-response","82","94210","0.0-1.0-112.0","0","0","89306","","null","","","null","12","","NaN","","","","","","","","","","","","","",""
"","response","","html-keyboard-response","83","94552","0.0-1.0-113.0-0.0","0","0","89306","","338","","","68","12","","","1","12","training","adjacent","BA","2","1","N.jpg","P.jpg","1","0","0","",""
"","feedback","","html-keyboard-response","84","95562","0.0-1.0-114.0-0.0","0","0","89306","","null","","","null","12","","","","","","","","","","","","","","","",""
"","time_out","","html-keyboard-response","85","97568","0.0-1.0-116.0-0.0","0","0","89306","","null","","","null","12","","","","","","","","","","","","","","","",""
"","ITI","","html-keyboard-response","86","98575","0.0-1.0-117.0","0","0","89306","","null","","","null","12","","","","","","","","","","","","","","","NaN",""
"","S1","","html-keyboard-response","87","98832","0.0-1.0-119.0","0","0","89306","","null","","","null","13","","","","","","","","","","","","","","","",""
"","ISI","","html-keyboard-response","88","99343","0.0-1.0-120.0","0","0","89306","","null","","","null","13","NaN","","","","","","","","","","","","","","",""
"","S2","","html-keyboard-response","89","99597","0.0-1.0-121.0","0","0","89306","","null","","","null","13","","NaN","","","","","","","","","","","","","",""
"","response","","html-keyboard-response","90","99959","0.0-1.0-122.0-0.0","0","0","89306","","360","","","75","13","","","1","13","training","adjacent","BC","2","3","N.jpg","R.jpg","0","1","0","",""
"","feedback","","html-keyboard-response","91","100971","0.0-1.0-123.0-0.0","0","0","89306","","null","","","null","13","","","","","","","","","","","","","","","",""
"","time_out","","html-keyboard-response","92","102987","0.0-1.0-125.0-0.0","0","0","89306","","null","","","null","13","","","","","","","","","","","","","","","",""
"","ITI","","html-keyboard-response","93","104002","0.0-1.0-126.0","0","0","89306","","null","","","null","13","","","","","","","","","","","","","","","NaN",""
"","S1","","html-keyboard-response","94","104267","0.0-1.0-128.0","0","0","89306","","null","","","null","14","","","","","","","","","","","","","","","",""
"","ISI","","html-keyboard-response","95","104778","0.0-1.0-129.0","0","0","89306","","null","","","null","14","NaN","","","","","","","","","","","","","","",""
"","S2","","html-keyboard-response","96","105042","0.0-1.0-130.0","0","0","89306","","null","","","null","14","","NaN","","","","","","","","","","","","","",""
"","response","","html-keyboard-response","97","105514","0.0-1.0-131.0-0.0","0","0","89306","","469","","","75","14","","","1","14","training","adjacent","DE","4","5","L.jpg","M.jpg","0","1","0","",""
"","feedback","","html-keyboard-response","98","106521","0.0-1.0-132.0-0.0","0","0","89306","","null","","","null","14","","","","","","","","","","","","","","","",""
"","time_out","","html-keyboard-response","99","108528","0.0-1.0-134.0-0.0","0","0","89306","","null","","","null","14","","","","","","","","","","","","","","","",""
"","ITI","","html-keyboard-response","100","109536","0.0-1.0-135.0","0","0","89306","","null","","","null","14","","","","","","","","","","","","","","","NaN",""
"","S1","","html-keyboard-response","101","109800","0.0-1.0-137.0","0","0","89306","","null","","","null","15","","","","","","","","","","","","","","","",""
"","ISI","","html-keyboard-response","102","110315","0.0-1.0-138.0","0","0","89306","","null","","","null","15","NaN","","","","","","","","","","","","","","",""
"","S2","","html-keyboard-response","103","110578","0.0-1.0-139.0","0","0","89306","","null","","","null","15","","NaN","","","","","","","","","","","","","",""
"","response","","html-keyboard-response","104","110945","0.0-1.0-140.0-0.0","0","0","89306","","362","","","68","15","","","1","15","training","adjacent","BA","2","1","N.jpg","P.jpg","1","0","0","",""
"","feedback","","html-keyboard-response","105","111949","0.0-1.0-141.0-0.0","0","0","89306","","null","","","null","15","","","","","","","","","","","","","","","",""
"","time_out","","html-keyboard-response","106","113959","0.0-1.0-143.0-0.0","0","0","89306","","null","","","null","15","","","","","","","","","","","","","","","",""
"","ITI","","html-keyboard-response","107","114971","0.0-1.0-144.0","0","0","89306","","null","","","null","15","","","","","","","","","","","","","","","NaN",""
"","S1","","html-keyboard-response","108","115230","0.0-1.0-146.0","0","0","89306","","null","","","null","16","","","","","","","","","","","","","","","",""
"","ISI","","html-keyboard-response","109","115739","0.0-1.0-147.0","0","0","89306","","null","","","null","16","NaN","","","","","","","","","","","","","","",""
"","S2","","html-keyboard-response","110","116002","0.0-1.0-148.0","0","0","89306","","null","","","null","16","","NaN","","","","","","","","","","","","","",""
"","response","","html-keyboard-response","111","116383","0.0-1.0-149.0-0.0","0","0","89306","","378","","","68","16","","","1","16","training","adjacent","CD","3","4","R.jpg","L.jpg","1","1","1","",""
"","feedback","","html-keyboard-response","112","117392","0.0-1.0-150.0-0.0","0","0","89306","","null","","","null","16","","","","","","","","","","","","","","","",""
"","ITI","","html-keyboard-response","113","118400","0.0-1.0-153.0","0","0","89306","","null","","","null","16","","","","","","","","","","","","","","","NaN",""
"","S1","","html-keyboard-response","114","118656","0.0-1.0-155.0","0","0","89306","","null","","","null","17","","","","","","","","","","","","","","","",""
"","ISI","","html-keyboard-response","115","119168","0.0-1.0-156.0","0","0","89306","","null","","","null","17","NaN","","","","","","","","","","","","","","",""
"","S2","","html-keyboard-response","116","119435","0.0-1.0-157.0","0","0","89306","","null","","","null","17","","NaN","","","","","","","","","","","","","",""
"","response","","html-keyboard-response","117","119711","0.0-1.0-158.0-0.0","0","0","89306","","276","","","68","17","","","1","17","training","adjacent","EF","5","6","M.jpg","O.jpg","1","1","1","",""
"","feedback","","html-keyboard-response","118","120718","0.0-1.0-159.0-0.0","0","0","89306","","null","","","null","17","","","","","","","","","","","","","","","",""
"","ITI","","html-keyboard-response","119","121729","0.0-1.0-162.0","0","0","89306","","null","","","null","17","","","","","","","","","","","","","","","NaN",""
"","S1","","html-keyboard-response","120","121992","0.0-1.0-164.0","0","0","89306","","null","","","null","18","","","","","","","","","","","","","","","",""
"","ISI","","html-keyboard-response","121","122507","0.0-1.0-165.0","0","0","89306","","null","","","null","18","NaN","","","","","","","","","","","","","","",""
"","S2","","html-keyboard-response","122","122769","0.0-1.0-166.0","0","0","89306","","null","","","null","18","","NaN","","","","","","","","","","","","","",""
"","response","","html-keyboard-response","123","123088","0.0-1.0-167.0-0.0","0","0","89306","","314","","","68","18","","","1","18","training","adjacent","FG","6","7","O.jpg","Q.jpg","1","1","1","",""
"","feedback","","html-keyboard-response","124","124097","0.0-1.0-168.0-0.0","0","0","89306","","null","","","null","18","","","","","","","","","","","","","","","",""
"","ITI","","html-keyboard-response","125","125102","0.0-1.0-171.0","0","0","89306","","null","","","null","18","","","","","","","","","","","","","","","NaN",""
"","S1","","html-keyboard-response","126","125362","0.0-1.0-173.0","0","0","89306","","null","","","null","19","","","","","","","","","","","","","","","",""
"","ISI","","html-keyboard-response","127","125872","0.0-1.0-174.0","0","0","89306","","null","","","null","19","NaN","","","","","","","","","","","","","","",""
"","S2","","html-keyboard-response","128","126128","0.0-1.0-175.0","0","0","89306","","null","","","null","19","","NaN","","","","","","","","","","","","","",""
"","response","","html-keyboard-response","129","126467","0.0-1.0-176.0-0.0","0","0","89306","","334","","","75","19","","","1","19","training","adjacent","DC","4","3","L.jpg","R.jpg","0","0","1","",""
"","feedback","","html-keyboard-response","130","127480","0.0-1.0-177.0-0.0","0","0","89306","","null","","","null","19","","","","","","","","","","","","","","","",""
"","ITI","","html-keyboard-response","131","128491","0.0-1.0-180.0","0","0","89306","","null","","","null","19","","","","","","","","","","","","","","","NaN",""
"","S1","","html-keyboard-response","132","128754","0.0-1.0-182.0","0","0","89306","","null","","","null","20","","","","","","","","","","","","","","","",""
"","ISI","","html-keyboard-response","133","129264","0.0-1.0-183.0","0","0","89306","","null","","","null","20","NaN","","","","","","","","","","","","","","",""
"","S2","","html-keyboard-response","134","129517","0.0-1.0-184.0","0","0","89306","","null","","","null","20","","NaN","","","","","","","","","","","","","",""
"","response","","html-keyboard-response","135","129993","0.0-1.0-185.0-0.0","0","0","89306","","472","","","68","20","","","1","20","training","adjacent","BA","2","1","N.jpg","P.jpg","1","0","0","",""
"","feedback","","html-keyboard-response","136","131003","0.0-1.0-186.0-0.0","0","0","89306","","null","","","null","20","","","","","","","","","","","","","","","",""
"","time_out","","html-keyboard-response","137","133020","0.0-1.0-188.0-0.0","0","0","89306","","null","","","null","20","","","","","","","","","","","","","","","",""
"","ITI","","html-keyboard-response","138","134030","0.0-1.0-189.0","0","0","89306","","null","","","null","20","","","","","","","","","","","","","","","NaN",""
"","S1","","html-keyboard-response","139","134289","0.0-1.0-191.0","0","0","89306","","null","","","null","21","","","","","","","","","","","","","","","",""
"","ISI","","html-keyboard-response","140","134801","0.0-1.0-192.0","0","0","89306","","null","","","null","21","NaN","","","","","","","","","","","","","","",""
"","S2","","html-keyboard-response","141","135067","0.0-1.0-193.0","0","0","89306","","null","","","null","21","","NaN","","","","","","","","","","","","","",""
"","response","","html-keyboard-response","142","135485","0.0-1.0-194.0-0.0","0","0","89306","","417","","","75","21","","","1","21","training","adjacent","AB","1","2","P.jpg","N.jpg","0","1","0","",""
"","feedback","","html-keyboard-response","143","136496","0.0-1.0-195.0-0.0","0","0","89306","","null","","","null","21","","","","","","","","","","","","","","","",""
"","time_out","","html-keyboard-response","144","138507","0.0-1.0-197.0-0.0","0","0","89306","","null","","","null","21","","","","","","","","","","","","","","","",""
"","ITI","","html-keyboard-response","145","139521","0.0-1.0-198.0","0","0","89306","","null","","","null","21","","","","","","","","","","","","","","","NaN",""
"","S1","","html-keyboard-response","146","139787","0.0-1.0-200.0","0","0","89306","","null","","","null","22","","","","","","","","","","","","","","","",""
"","ISI","","html-keyboard-response","147","140299","0.0-1.0-201.0","0","0","89306","","null","","","null","22","NaN","","","","","","","","","","","","","","",""
"","S2","","html-keyboard-response","148","140563","0.0-1.0-202.0","0","0","89306","","null","","","null","22","","NaN","","","","","","","","","","","","","",""
"","response","","html-keyboard-response","149","140905","0.0-1.0-203.0-0.0","0","0","89306","","339","","","68","22","","","1","22","training","adjacent","GF","7","6","Q.jpg","O.jpg","1","0","0","",""
"","feedback","","html-keyboard-response","150","141915","0.0-1.0-204.0-0.0","0","0","89306","","null","","","null","22","","","","","","","","","","","","","","","",""
"","time_out","","html-keyboard-response","151","143931","0.0-1.0-206.0-0.0","0","0","89306","","null","","","null","22","","","","","","","","","","","","","","","",""
"","ITI","","html-keyboard-response","152","144947","0.0-1.0-207.0","0","0","89306","","null","","","null","22","","","","","","","","","","","","","","","NaN",""
"","S1","","html-keyboard-response","153","145208","0.0-1.0-209.0","0","0","89306","","null","","","null","23","","","","","","","","","","","","","","","",""
"","ISI","","html-keyboard-response","154","145722","0.0-1.0-210.0","0","0","89306","","null","","","null","23","NaN","","","","","","","","","","","","","","",""
"","S2","","html-keyboard-response","155","145985","0.0-1.0-211.0","0","0","89306","","null","","","null","23","","NaN","","","","","","","","","","","","","",""
"","response","","html-keyboard-response","156","146304","0.0-1.0-212.0-0.0","0","0","89306","","315","","","68","23","","","1","23","training","adjacent","EF","5","6","M.jpg","O.jpg","1","1","1","",""
"","feedback","","html-keyboard-response","157","147314","0.0-1.0-213.0-0.0","0","0","89306","","null","","","null","23","","","","","","","","","","","","","","","",""
"","ITI","","html-keyboard-response","158","148321","0.0-1.0-216.0","0","0","89306","","null","","","null","23","","","","","","","","","","","","","","","NaN",""
"","S1","","html-keyboard-response","159","148588","0.0-1.0-218.0","0","0","89306","","null","","","null","24","","","","","","","","","","","","","","","",""
"","ISI","","html-keyboard-response","160","149099","0.0-1.0-219.0","0","0","89306","","null","","","null","24","NaN","","","","","","","","","","","","","","",""
"","S2","","html-keyboard-response","161","149364","0.0-1.0-220.0","0","0","89306","","null","","","null","24","","NaN","","","","","","","","","","","","","",""
"","response","","html-keyboard-response","162","149645","0.0-1.0-221.0-0.0","0","0","89306","","280","","","75","24","","","1","24","training","adjacent","DE","4","5","L.jpg","M.jpg","0","1","0","",""
"","feedback","","html-keyboard-response","163","150657","0.0-1.0-222.0-0.0","0","0","89306","","null","","","null","24","","","","","","","","","","","","","","","",""
"","time_out","","html-keyboard-response","164","152668","0.0-1.0-224.0-0.0","0","0","89306","","null","","","null","24","","","","","","","","","","","","","","","",""
"","ITI","","html-keyboard-response","165","153680","0.0-1.0-225.0","0","0","89306","","null","","","null","24","","","","","","","","","","","","","","","NaN",""
"","S1","","html-keyboard-response","166","153937","0.0-1.0-227.0","0","0","89306","","null","","","null","25","","","","","","","","","","","","","","","",""
"","ISI","","html-keyboard-response","167","154450","0.0-1.0-228.0","0","0","89306","","null","","","null","25","NaN","","","","","","","","","","","","","","",""
"","S2","","html-keyboard-response","168","154717","0.0-1.0-229.0","0","0","89306","","null","","","null","25","","NaN","","","","","","","","","","","","","",""
"","response","","html-keyboard-response","169","155128","0.0-1.0-230.0-0.0","0","0","89306","","407","","","68","25","","","1","25","training","adjacent","EF","5","6","M.jpg","O.jpg","1","1","1","",""
"","feedback","","html-keyboard-response","170","156139","0.0-1.0-231.0-0.0","0","0","89306","","null","","","null","25","","","","","","","","","","","","","","","",""
"","ITI","","html-keyboard-response","171","157153","0.0-1.0-234.0","0","0","89306","","null","","","null","25","","","","","","","","","","","","","","","NaN",""
"","S1","","html-keyboard-response","172","157416","0.0-1.0-236.0","0","0","89306","","null","","","null","26","","","","","","","","","","","","","","","",""
"","ISI","","html-keyboard-response","173","157932","0.0-1.0-237.0","0","0","89306","","null","","","null","26","NaN","","","","","","","","","","","","","","",""
"","S2","","html-keyboard-response","174","158193","0.0-1.0-238.0","0","0","89306","","null","","","null","26","","NaN","","","","","","","","","","","","","",""
"","response","","html-keyboard-response","175","158891","0.0-1.0-239.0-0.0","0","0","89306","","694","","","68","26","","","1","26","training","adjacent","CB","3","2","R.jpg","N.jpg","1","0","0","",""
"","feedback","","html-keyboard-response","176","159897","0.0-1.0-240.0-0.0","0","0","89306","","null","","","null","26","","","","","","","","","","","","","","","",""
"","time_out","","html-keyboard-response","177","161902","0.0-1.0-242.0-0.0","0","0","89306","","null","","","null","26","","","","","","","","","","","","","","","",""
"","ITI","","html-keyboard-response","178","162914","0.0-1.0-243.0","0","0","89306","","null","","","null","26","","","","","","","","","","","","","","","NaN",""
"","S1","","html-keyboard-response","179","163181","0.0-1.0-245.0","0","0","89306","","null","","","null","27","","","","","","","","","","","","","","","",""
"","ISI","","html-keyboard-response","180","163689","0.0-1.0-246.0","0","0","89306","","null","","","null","27","NaN","","","","","","","","","","","","","","",""
"","S2","","html-keyboard-response","181","163944","0.0-1.0-247.0","0","0","89306","","null","","","null","27","","NaN","","","","","","","","","","","","","",""
"","response","","html-keyboard-response","182","164277","0.0-1.0-248.0-0.0","0","0","89306","","328","","","75","27","","","1","27","training","adjacent","BC","2","3","N.jpg","R.jpg","0","1","0","",""
"","feedback","","html-keyboard-response","183","165289","0.0-1.0-249.0-0.0","0","0","89306","","null","","","null","27","","","","","","","","","","","","","","","",""
"","time_out","","html-keyboard-response","184","167295","0.0-1.0-251.0-0.0","0","0","89306","","null","","","null","27","","","","","","","","","","","","","","","",""
"","ITI","","html-keyboard-response","185","168304","0.0-1.0-252.0","0","0","89306","","null","","","null","27","","","","","","","","","","","","","","","NaN",""
"","S1","","html-keyboard-response","186","168561","0.0-1.0-254.0","0","0","89306","","null","","","null","28","","","","","","","","","","","","","","","",""
"","ISI","","html-keyboard-response","187","169076","0.0-1.0-255.0","0","0","89306","","null","","","null","28","NaN","","","","","","","","","","","","","","",""
"","S2","","html-keyboard-response","188","169339","0.0-1.0-256.0","0","0","89306","","null","","","null","28","","NaN","","","","","","","","","","","","","",""
"","response","","html-keyboard-response","189","169542","0.0-1.0-257.0-0.0","0","0","89306","","201","","","68","28","","","1","28","training","adjacent","CB","3","2","R.jpg","N.jpg","1","0","0","",""
"","feedback","","html-keyboard-response","190","170556","0.0-1.0-258.0-0.0","0","0","89306","","null","","","null","28","","","","","","","","","","","","","","","",""
"","time_out","","html-keyboard-response","191","172571","0.0-1.0-260.0-0.0","0","0","89306","","null","","","null","28","","","","","","","","","","","","","","","",""
"","ITI","","html-keyboard-response","192","173582","0.0-1.0-261.0","0","0","89306","","null","","","null","28","","","","","","","","","","","","","","","NaN",""
"","S1","","html-keyboard-response","193","173838","0.0-1.0-263.0","0","0","89306","","null","","","null","29","","","","","","","","","","","","","","","",""
"","ISI","","html-keyboard-response","194","174348","0.0-1.0-264.0","0","0","89306","","null","","","null","29","NaN","","","","","","","","","","","","","","",""
"","S2","","html-keyboard-response","195","174609","0.0-1.0-265.0","0","0","89306","","null","","","null","29","","NaN","","","","","","","","","","","","","",""
"","response","","html-keyboard-response","196","175084","0.0-1.0-266.0-0.0","0","0","89306","","472","","","68","29","","","1","29","training","adjacent","ED","5","4","M.jpg","L.jpg","1","0","0","",""
"","feedback","","html-keyboard-response","197","176097","0.0-1.0-267.0-0.0","0","0","89306","","null","","","null","29","","","","","","","","","","","","","","","",""
"","time_out","","html-keyboard-response","198","178108","0.0-1.0-269.0-0.0","0","0","89306","","null","","","null","29","","","","","","","","","","","","","","","",""
"","ITI","","html-keyboard-response","199","179121","0.0-1.0-270.0","0","0","89306","","null","","","null","29","","","","","","","","","","","","","","","NaN",""
"","S1","","html-keyboard-response","200","179374","0.0-1.0-272.0","0","0","89306","","null","","","null","30","","","","","","","","","","","","","","","",""
"","ISI","","html-keyboard-response","201","179884","0.0-1.0-273.0","0","0","89306","","null","","","null","30","NaN","","","","","","","","","","","","","","",""
"","S2","","html-keyboard-response","202","180145","0.0-1.0-274.0","0","0","89306","","null","","","null","30","","NaN","","","","","","","","","","","","","",""
"","response","","html-keyboard-response","203","180528","0.0-1.0-275.0-0.0","0","0","89306","","379","","","75","30","","","1","30","training","adjacent","CD","3","4","R.jpg","L.jpg","0","1","0","",""
"","feedback","","html-keyboard-response","204","181533","0.0-1.0-276.0-0.0","0","0","89306","","null","","","null","30","","","","","","","","","","","","","","","",""
"","time_out","","html-keyboard-response","205","183545","0.0-1.0-278.0-0.0","0","0","89306","","null","","","null","30","","","","","","","","","","","","","","","",""
"","ITI","","html-keyboard-response","206","184556","0.0-1.0-279.0","0","0","89306","","null","","","null","30","","","","","","","","","","","","","","","NaN",""
"","S1","","html-keyboard-response","207","184817","0.0-1.0-281.0","0","0","89306","","null","","","null","31","","","","","","","","","","","","","","","",""
"","ISI","","html-keyboard-response","208","185329","0.0-1.0-282.0","0","0","89306","","null","","","null","31","NaN","","","","","","","","","","","","","","",""
"","S2","","html-keyboard-response","209","185585","0.0-1.0-283.0","0","0","89306","","null","","","null","31","","NaN","","","","","","","","","","","","","",""
"","response","","html-keyboard-response","210","186028","0.0-1.0-284.0-0.0","0","0","89306","","439","","","68","31","","","1","31","training","adjacent","BC","2","3","N.jpg","R.jpg","1","1","1","",""
"","feedback","","html-keyboard-response","211","187044","0.0-1.0-285.0-0.0","0","0","89306","","null","","","null","31","","","","","","","","","","","","","","","",""
"","ITI","","html-keyboard-response","212","188060","0.0-1.0-288.0","0","0","89306","","null","","","null","31","","","","","","","","","","","","","","","NaN",""
"","S1","","html-keyboard-response","213","188321","0.0-1.0-290.0","0","0","89306","","null","","","null","32","","","","","","","","","","","","","","","",""
"","ISI","","html-keyboard-response","214","188833","0.0-1.0-291.0","0","0","89306","","null","","","null","32","NaN","","","","","","","","","","","","","","",""
"","S2","","html-keyboard-response","215","189100","0.0-1.0-292.0","0","0","89306","","null","","","null","32","","NaN","","","","","","","","","","","","","",""
"","response","","html-keyboard-response","216","189482","0.0-1.0-293.0-0.0","0","0","89306","","380","","","68","32","","","1","32","training","adjacent","GF","7","6","Q.jpg","O.jpg","1","0","0","",""
"","feedback","","html-keyboard-response","217","190492","0.0-1.0-294.0-0.0","0","0","89306","","null","","","null","32","","","","","","","","","","","","","","","",""
"","time_out","","html-keyboard-response","218","192508","0.0-1.0-296.0-0.0","0","0","89306","","null","","","null","32","","","","","","","","","","","","","","","",""
"","ITI","","html-keyboard-response","219","193521","0.0-1.0-297.0","0","0","89306","","null","","","null","32","","","","","","","","","","","","","","","NaN",""
"","S1","","html-keyboard-response","220","193777","0.0-1.0-299.0","0","0","89306","","null","","","null","33","","","","","","","","","","","","","","","",""
"","ISI","","html-keyboard-response","221","194291","0.0-1.0-300.0","0","0","89306","","null","","","null","33","NaN","","","","","","","","","","","","","","",""
"","S2","","html-keyboard-response","222","194556","0.0-1.0-301.0","0","0","89306","","null","","","null","33","","NaN","","","","","","","","","","","","","",""
"","response","","html-keyboard-response","223","195064","0.0-1.0-302.0-0.0","0","0","89306","","504","","","68","33","","","1","33","training","adjacent","CD","3","4","R.jpg","L.jpg","1","1","1","",""
"","feedback","","html-keyboard-response","224","196076","0.0-1.0-303.0-0.0","0","0","89306","","null","","","null","33","","","","","","","","","","","","","","","",""
"","ITI","","html-keyboard-response","225","197089","0.0-1.0-306.0","0","0","89306","","null","","","null","33","","","","","","","","","","","","","","","NaN",""
"","S1","","html-keyboard-response","226","197353","0.0-1.0-308.0","0","0","89306","","null","","","null","34","","","","","","","","","","","","","","","",""
"","ISI","","html-keyboard-response","227","197868","0.0-1.0-309.0","0","0","89306","","null","","","null","34","NaN","","","","","","","","","","","","","","",""
"","S2","","html-keyboard-response","228","198130","0.0-1.0-310.0","0","0","89306","","null","","","null","34","","NaN","","","","","","","","","","","","","",""
"","response","","html-keyboard-response","229","198799","0.0-1.0-311.0-0.0","0","0","89306","","666","","","75","34","","","1","34","training","adjacent","BA","2","1","N.jpg","P.jpg","0","0","1","",""
"","feedback","","html-keyboard-response","230","199807","0.0-1.0-312.0-0.0","0","0","89306","","null","","","null","34","","","","","","","","","","","","","","","",""
"","ITI","","html-keyboard-response","231","200818","0.0-1.0-315.0","0","0","89306","","null","","","null","34","","","","","","","","","","","","","","","NaN",""
"","S1","","html-keyboard-response","232","201085","0.0-1.0-317.0","0","0","89306","","null","","","null","35","","","","","","","","","","","","","","","",""
"","ISI","","html-keyboard-response","233","201591","0.0-1.0-318.0","0","0","89306","","null","","","null","35","NaN","","","","","","","","","","","","","","",""
"","S2","","html-keyboard-response","234","201852","0.0-1.0-319.0","0","0","89306","","null","","","null","35","","NaN","","","","","","","","","","","","","",""
"","response","","html-keyboard-response","235","202349","0.0-1.0-320.0-0.0","0","0","89306","","493","","","68","35","","","1","35","training","adjacent","ED","5","4","M.jpg","L.jpg","1","0","0","",""
"","feedback","","html-keyboard-response","236","203364","0.0-1.0-321.0-0.0","0","0","89306","","null","","","null","35","","","","","","","","","","","","","","","",""
"","time_out","","html-keyboard-response","237","205376","0.0-1.0-323.0-0.0","0","0","89306","","null","","","null","35","","","","","","","","","","","","","","","",""
"","ITI","","html-keyboard-response","238","206385","0.0-1.0-324.0","0","0","89306","","null","","","null","35","","","","","","","","","","","","","","","NaN",""
"","S1","","html-keyboard-response","239","206645","0.0-1.0-326.0","0","0","89306","","null","","","null","36","","","","","","","","","","","","","","","",""
"","ISI","","html-keyboard-response","240","207153","0.0-1.0-327.0","0","0","89306","","null","","","null","36","NaN","","","","","","","","","","","","","","",""
"","S2","","html-keyboard-response","241","207420","0.0-1.0-328.0","0","0","89306","","null","","","null","36","","NaN","","","","","","","","","","","","","",""
"","response","","html-keyboard-response","242","208006","0.0-1.0-329.0-0.0","0","0","89306","","584","","","68","36","","","1","36","training","adjacent","EF","5","6","M.jpg","O.jpg","1","1","1","",""
"","feedback","","html-keyboard-response","243","209019","0.0-1.0-330.0-0.0","0","0","89306","","null","","","null","36","","","","","","","","","","","","","","","",""
"","ITI","","html-keyboard-response","244","210028","0.0-1.0-333.0","0","0","89306","","null","","","null","36","","","","","","","","","","","","","","","NaN",""
"","S1","","html-keyboard-response","245","210289","0.0-1.0-335.0","0","0","89306","","null","","","null","37","","","","","","","","","","","","","","","",""
"","ISI","","html-keyboard-response","246","210801","0.0-1.0-336.0","0","0","89306","","null","","","null","37","NaN","","","","","","","","","","","","","","",""
"","S2","","html-keyboard-response","247","211068","0.0-1.0-337.0","0","0","89306","","null","","","null","37","","NaN","","","","","","","","","","","","","",""
"","response","","html-keyboard-response","248","211677","0.0-1.0-338.0-0.0","0","0","89306","","607","","","75","37","","","1","37","training","adjacent","ED","5","4","M.jpg","L.jpg","0","0","1","",""
"","feedback","","html-keyboard-response","249","212690","0.0-1.0-339.0-0.0","0","0","89306","","null","","","null","37","","","","","","","","","","","","","","","",""
"","ITI","","html-keyboard-response","250","213697","0.0-1.0-342.0","0","0","89306","","null","","","null","37","","","","","","","","","","","","","","","NaN",""
"","S1","","html-keyboard-response","251","213953","0.0-1.0-344.0","0","0","89306","","null","","","null","38","","","","","","","","","","","","","","","",""
"","ISI","","html-keyboard-response","252","214467","0.0-1.0-345.0","0","0","89306","","null","","","null","38","NaN","","","","","","","","","","","","","","",""
"","S2","","html-keyboard-response","253","214733","0.0-1.0-346.0","0","0","89306","","null","","","null","38","","NaN","","","","","","","","","","","","","",""
"","response","","html-keyboard-response","254","215169","0.0-1.0-347.0-0.0","0","0","89306","","432","","","75","38","","","1","38","training","adjacent","FG","6","7","O.jpg","Q.jpg","0","1","0","",""
"","feedback","","html-keyboard-response","255","216177","0.0-1.0-348.0-0.0","0","0","89306","","null","","","null","38","","","","","","","","","","","","","","","",""
"","time_out","","html-keyboard-response","256","218188","0.0-1.0-350.0-0.0","0","0","89306","","null","","","null","38","","","","","","","","","","","","","","","",""
"","ITI","","html-keyboard-response","257","219196","0.0-1.0-351.0","0","0","89306","","null","","","null","38","","","","","","","","","","","","","","","NaN",""
"","S1","","html-keyboard-response","258","219458","0.0-1.0-353.0","0","0","89306","","null","","","null","39","","","","","","","","","","","","","","","",""
"","ISI","","html-keyboard-response","259","219970","0.0-1.0-354.0","0","0","89306","","null","","","null","39","NaN","","","","","","","","","","","","","","",""
"","S2","","html-keyboard-response","260","220236","0.0-1.0-355.0","0","0","89306","","null","","","null","39","","NaN","","","","","","","","","","","","","",""
"","response","","html-keyboard-response","261","220667","0.0-1.0-356.0-0.0","0","0","89306","","427","","","75","39","","","1","39","training","adjacent","AB","1","2","P.jpg","N.jpg","0","1","0","",""
"","feedback","","html-keyboard-response","262","221673","0.0-1.0-357.0-0.0","0","0","89306","","null","","","null","39","","","","","","","","","","","","","","","",""
"","time_out","","html-keyboard-response","263","223683","0.0-1.0-359.0-0.0","0","0","89306","","null","","","null","39","","","","","","","","","","","","","","","",""
"","ITI","","html-keyboard-response","264","224689","0.0-1.0-360.0","0","0","89306","","null","","","null","39","","","","","","","","","","","","","","","NaN",""
"","S1","","html-keyboard-response","265","224956","0.0-1.0-362.0","0","0","89306","","null","","","null","40","","","","","","","","","","","","","","","",""
"","ISI","","html-keyboard-response","266","225466","0.0-1.0-363.0","0","0","89306","","null","","","null","40","NaN","","","","","","","","","","","","","","",""
"","S2","","html-keyboard-response","267","225722","0.0-1.0-364.0","0","0","89306","","null","","","null","40","","NaN","","","","","","","","","","","","","",""
"","response","","html-keyboard-response","268","226121","0.0-1.0-365.0-0.0","0","0","89306","","395","","","68","40","","","1","40","training","adjacent","GF","7","6","Q.jpg","O.jpg","1","0","0","",""
"","feedback","","html-keyboard-response","269","227132","0.0-1.0-366.0-0.0","0","0","89306","","null","","","null","40","","","","","","","","","","","","","","","",""
"","time_out","","html-keyboard-response","270","229148","0.0-1.0-368.0-0.0","0","0","89306","","null","","","null","40","","","","","","","","","","","","","","","",""
"","ITI","","html-keyboard-response","271","230156","0.0-1.0-369.0","0","0","89306","","null","","","null","40","","","","","","","","","","","","","","","NaN",""
"","S1","","html-keyboard-response","272","230417","0.0-1.0-371.0","0","0","89306","","null","","","null","41","","","","","","","","","","","","","","","",""
"","ISI","","html-keyboard-response","273","230934","0.0-1.0-372.0","0","0","89306","","null","","","null","41","NaN","","","","","","","","","","","","","","",""
"","S2","","html-keyboard-response","274","231196","0.0-1.0-373.0","0","0","89306","","null","","","null","41","","NaN","","","","","","","","","","","","","",""
"","response","","html-keyboard-response","275","231523","0.0-1.0-374.0-0.0","0","0","89306","","325","","","75","41","","","1","41","training","adjacent","DE","4","5","L.jpg","M.jpg","0","1","0","",""
"","feedback","","html-keyboard-response","276","232530","0.0-1.0-375.0-0.0","0","0","89306","","null","","","null","41","","","","","","","","","","","","","","","",""
"","time_out","","html-keyboard-response","277","234540","0.0-1.0-377.0-0.0","0","0","89306","","null","","","null","41","","","","","","","","","","","","","","","",""
"","ITI","","html-keyboard-response","278","235551","0.0-1.0-378.0","0","0","89306","","null","","","null","41","","","","","","","","","","","","","","","NaN",""
"","S1","","html-keyboard-response","279","235807","0.0-1.0-380.0","0","0","89306","","null","","","null","42","","","","","","","","","","","","","","","",""
"","ISI","","html-keyboard-response","280","236317","0.0-1.0-381.0","0","0","89306","","null","","","null","42","NaN","","","","","","","","","","","","","","",""
"","S2","","html-keyboard-response","281","236578","0.0-1.0-382.0","0","0","89306","","null","","","null","42","","NaN","","","","","","","","","","","","","",""
"","response","","html-keyboard-response","282","237064","0.0-1.0-383.0-0.0","0","0","89306","","483","","","75","42","","","1","42","training","adjacent","DC","4","3","L.jpg","R.jpg","0","0","1","",""
"","feedback","","html-keyboard-response","283","238077","0.0-1.0-384.0-0.0","0","0","89306","","null","","","null","42","","","","","","","","","","","","","","","",""
"","ITI","","html-keyboard-response","284","239090","0.0-1.0-387.0","0","0","89306","","null","","","null","42","","","","","","","","","","","","","","","NaN",""
"","S1","","html-keyboard-response","285","239347","0.0-1.0-389.0","0","0","89306","","null","","","null","43","","","","","","","","","","","","","","","",""
"","ISI","","html-keyboard-response","286","239856","0.0-1.0-390.0","0","0","89306","","null","","","null","43","NaN","","","","","","","","","","","","","","",""
"","S2","","html-keyboard-response","287","240114","0.0-1.0-391.0","0","0","89306","","null","","","null","43","","NaN","","","","","","","","","","","","","",""
"","response","","html-keyboard-response","288","240485","0.0-1.0-392.0-0.0","0","0","89306","","367","","","75","43","","","1","43","training","adjacent","AB","1","2","P.jpg","N.jpg","0","1","0","",""
"","feedback","","html-keyboard-response","289","241500","0.0-1.0-393.0-0.0","0","0","89306","","null","","","null","43","","","","","","","","","","","","","","","",""
"","time_out","","html-keyboard-response","290","243517","0.0-1.0-395.0-0.0","0","0","89306","","null","","","null","43","","","","","","","","","","","","","","","",""
"","ITI","","html-keyboard-response","291","244528","0.0-1.0-396.0","0","0","89306","","null","","","null","43","","","","","","","","","","","","","","","NaN",""
"","S1","","html-keyboard-response","292","244783","0.0-1.0-398.0","0","0","89306","","null","","","null","44","","","","","","","","","","","","","","","",""
"","ISI","","html-keyboard-response","293","245289","0.0-1.0-399.0","0","0","89306","","null","","","null","44","NaN","","","","","","","","","","","","","","",""
"","S2","","html-keyboard-response","294","245543","0.0-1.0-400.0","0","0","89306","","null","","","null","44","","NaN","","","","","","","","","","","","","",""
"","response","","html-keyboard-response","295","245997","0.0-1.0-401.0-0.0","0","0","89306","","451","","","75","44","","","1","44","training","adjacent","DE","4","5","L.jpg","M.jpg","0","1","0","",""
"","feedback","","html-keyboard-response","296","247008","0.0-1.0-402.0-0.0","0","0","89306","","null","","","null","44","","","","","","","","","","","","","","","",""
"","time_out","","html-keyboard-response","297","249019","0.0-1.0-404.0-0.0","0","0","89306","","null","","","null","44","","","","","","","","","","","","","","","",""
"","ITI","","html-keyboard-response","298","250029","0.0-1.0-405.0","0","0","89306","","null","","","null","44","","","","","","","","","","","","","","","NaN",""
"","S1","","html-keyboard-response","299","250294","0.0-1.0-407.0","0","0","89306","","null","","","null","45","","","","","","","","","","","","","","","",""
"","ISI","","html-keyboard-response","300","250800","0.0-1.0-408.0","0","0","89306","","null","","","null","45","NaN","","","","","","","","","","","","","","",""
"","S2","","html-keyboard-response","301","251058","0.0-1.0-409.0","0","0","89306","","null","","","null","45","","NaN","","","","","","","","","","","","","",""
"","response","","html-keyboard-response","302","251549","0.0-1.0-410.0-0.0","0","0","89306","","487","","","75","45","","","1","45","training","adjacent","BC","2","3","N.jpg","R.jpg","0","1","0","",""
"","feedback","","html-keyboard-response","303","252560","0.0-1.0-411.0-0.0","0","0","89306","","null","","","null","45","","","","","","","","","","","","","","","",""
"","time_out","","html-keyboard-response","304","254573","0.0-1.0-413.0-0.0","0","0","89306","","null","","","null","45","","","","","","","","","","","","","","","",""
"","ITI","","html-keyboard-response","305","255586","0.0-1.0-414.0","0","0","89306","","null","","","null","45","","","","","","","","","","","","","","","NaN",""
"","S1","","html-keyboard-response","306","255853","0.0-1.0-416.0","0","0","89306","","null","","","null","46","","","","","","","","","","","","","","","",""
"","ISI","","html-keyboard-response","307","256365","0.0-1.0-417.0","0","0","89306","","null","","","null","46","NaN","","","","","","","","","","","","","","",""
"","S2","","html-keyboard-response","308","256623","0.0-1.0-418.0","0","0","89306","","null","","","null","46","","NaN","","","","","","","","","","","","","",""
"","response","","html-keyboard-response","309","257245","0.0-1.0-419.0-0.0","0","0","89306","","618","","","68","46","","","1","46","training","adjacent","FE","6","5","O.jpg","M.jpg","1","0","0","",""
"","feedback","","html-keyboard-response","310","258258","0.0-1.0-420.0-0.0","0","0","89306","","null","","","null","46","","","","","","","","","","","","","","","",""
"","time_out","","html-keyboard-response","311","260268","0.0-1.0-422.0-0.0","0","0","89306","","null","","","null","46","","","","","","","","","","","","","","","",""
"","ITI","","html-keyboard-response","312","261285","0.0-1.0-423.0","0","0","89306","","null","","","null","46","","","","","","","","","","","","","","","NaN",""
"","S1","","html-keyboard-response","313","261549","0.0-1.0-425.0","0","0","89306","","null","","","null","47","","","","","","","","","","","","","","","",""
"","ISI","","html-keyboard-response","314","262061","0.0-1.0-426.0","0","0","89306","","null","","","null","47","NaN","","","","","","","","","","","","","","",""
"","S2","","html-keyboard-response","315","262321","0.0-1.0-427.0","0","0","89306","","null","","","null","47","","NaN","","","","","","","","","","","","","",""
"","response","","html-keyboard-response","316","262810","0.0-1.0-428.0-0.0","0","0","89306","","486","","","75","47","","","1","47","training","adjacent","ED","5","4","M.jpg","L.jpg","0","0","1","",""
"","feedback","","html-keyboard-response","317","263821","0.0-1.0-429.0-0.0","0","0","89306","","null","","","null","47","","","","","","","","","","","","","","","",""
"","ITI","","html-keyboard-response","318","264833","0.0-1.0-432.0","0","0","89306","","null","","","null","47","","","","","","","","","","","","","","","NaN",""
"","block_over","","html-keyboard-response","319","589217","0.0-1.0-433.0-0.0","0","0","89306","","324380","","","32","47","","","","","","","","","","","","","","","",""
"","S1","","html-keyboard-response","320","589477","0.0-1.0-434.0","0","0","89306","","null","","","null","48","","","","","","","","","","","","","","","",""
"","ISI","","html-keyboard-response","321","589990","0.0-1.0-435.0","0","0","89306","","null","","","null","48","NaN","","","","","","","","","","","","","","",""
"","S2","","html-keyboard-response","322","590257","0.0-1.0-436.0","0","0","89306","","null","","","null","48","","NaN","","","","","","","","","","","","","",""
"","response","","html-keyboard-response","323","590928","0.0-1.0-437.0-0.0","0","0","89306","","668","","","68","48","","","2","48","training","adjacent","DC","4","3","L.jpg","R.jpg","1","0","0","",""
"","feedback","","html-keyboard-response","324","591940","0.0-1.0-438.0-0.0","0","0","89306","","null","","","null","48","","","","","","","","","","","","","","","",""
"","time_out","","html-keyboard-response","325","593950","0.0-1.0-440.0-0.0","0","0","89306","","null","","","null","48","","","","","","","","","","","","","","","",""
"","ITI","","html-keyboard-response","326","594958","0.0-1.0-441.0","0","0","89306","","null","","","null","48","","","","","","","","","","","","","","","NaN",""
"","S1","","html-keyboard-response","327","595214","0.0-1.0-443.0","0","0","89306","","null","","","null","49","","","","","","","","","","","","","","","",""
"","ISI","","html-keyboard-response","328","595729","0.0-1.0-444.0","0","0","89306","","null","","","null","49","NaN","","","","","","","","","","","","","","",""
"","S2","","html-keyboard-response","329","595994","0.0-1.0-445.0","0","0","89306","","null","","","null","49","","NaN","","","","","","","","","","","","","",""
"","response","","html-keyboard-response","330","596305","0.0-1.0-446.0-0.0","0","0","89306","","308","","","68","49","","","2","49","training","adjacent","CD","3","4","R.jpg","L.jpg","1","1","1","",""
"","feedback","","html-keyboard-response","331","597318","0.0-1.0-447.0-0.0","0","0","89306","","null","","","null","49","","","","","","","","","","","","","","","",""
"","ITI","","html-keyboard-response","332","598326","0.0-1.0-450.0","0","0","89306","","null","","","null","49","","","","","","","","","","","","","","","NaN",""
"","S1","","html-keyboard-response","333","598580","0.0-1.0-452.0","0","0","89306","","null","","","null","50","","","","","","","","","","","","","","","",""
"","ISI","","html-keyboard-response","334","599086","0.0-1.0-453.0","0","0","89306","","null","","","null","50","NaN","","","","","","","","","","","","","","",""
"","S2","","html-keyboard-response","335","599345","0.0-1.0-454.0","0","0","89306","","null","","","null","50","","NaN","","","","","","","","","","","","","",""
"","response","","html-keyboard-response","336","599864","0.0-1.0-455.0-0.0","0","0","89306","","515","","","75","50","","","2","50","training","adjacent","DE","4","5","L.jpg","M.jpg","0","1","0","",""
"","feedback","","html-keyboard-response","337","600867","0.0-1.0-456.0-0.0","0","0","89306","","null","","","null","50","","","","","","","","","","","","","","","",""
"","time_out","","html-keyboard-response","338","602881","0.0-1.0-458.0-0.0","0","0","89306","","null","","","null","50","","","","","","","","","","","","","","","",""
"","ITI","","html-keyboard-response","339","603894","0.0-1.0-459.0","0","0","89306","","null","","","null","50","","","","","","","","","","","","","","","NaN",""
"","S1","","html-keyboard-response","340","604161","0.0-1.0-461.0","0","0","89306","","null","","","null","51","","","","","","","","","","","","","","","",""
"","ISI","","html-keyboard-response","341","604673","0.0-1.0-462.0","0","0","89306","","null","","","null","51","NaN","","","","","","","","","","","","","","",""
"","S2","","html-keyboard-response","342","604936","0.0-1.0-463.0","0","0","89306","","null","","","null","51","","NaN","","","","","","","","","","","","","",""
"","response","","html-keyboard-response","343","605363","0.0-1.0-464.0-0.0","0","0","89306","","425","","","75","51","","","2","51","training","adjacent","BA","2","1","N.jpg","P.jpg","0","0","1","",""
"","feedback","","html-keyboard-response","344","606375","0.0-1.0-465.0-0.0","0","0","89306","","null","","","null","51","","","","","","","","","","","","","","","",""
"","ITI","","html-keyboard-response","345","607384","0.0-1.0-468.0","0","0","89306","","null","","","null","51","","","","","","","","","","","","","","","NaN",""
"","S1","","html-keyboard-response","346","607646","0.0-1.0-470.0","0","0","89306","","null","","","null","52","","","","","","","","","","","","","","","",""
"","ISI","","html-keyboard-response","347","608160","0.0-1.0-471.0","0","0","89306","","null","","","null","52","NaN","","","","","","","","","","","","","","",""
"","S2","","html-keyboard-response","348","608423","0.0-1.0-472.0","0","0","89306","","null","","","null","52","","NaN","","","","","","","","","","","","","",""
"","response","","html-keyboard-response","349","608797","0.0-1.0-473.0-0.0","0","0","89306","","370","","","75","52","","","2","52","training","adjacent","ED","5","4","M.jpg","L.jpg","0","0","1","",""
"","feedback","","html-keyboard-response","350","609809","0.0-1.0-474.0-0.0","0","0","89306","","null","","","null","52","","","","","","","","","","","","","","","",""
"","ITI","","html-keyboard-response","351","610822","0.0-1.0-477.0","0","0","89306","","null","","","null","52","","","","","","","","","","","","","","","NaN",""
"","S1","","html-keyboard-response","352","611089","0.0-1.0-479.0","0","0","89306","","null","","","null","53","","","","","","","","","","","","","","","",""
"","ISI","","html-keyboard-response","353","611601","0.0-1.0-480.0","0","0","89306","","null","","","null","53","NaN","","","","","","","","","","","","","","",""
"","S2","","html-keyboard-response","354","611863","0.0-1.0-481.0","0","0","89306","","null","","","null","53","","NaN","","","","","","","","","","","","","",""
"","response","","html-keyboard-response","355","612361","0.0-1.0-482.0-0.0","0","0","89306","","493","","","68","53","","","2","53","training","adjacent","DE","4","5","L.jpg","M.jpg","1","1","1","",""
"","feedback","","html-keyboard-response","356","613377","0.0-1.0-483.0-0.0","0","0","89306","","null","","","null","53","","","","","","","","","","","","","","","",""
"","ITI","","html-keyboard-response","357","614390","0.0-1.0-486.0","0","0","89306","","null","","","null","53","","","","","","","","","","","","","","","NaN",""
"","S1","","html-keyboard-response","358","614656","0.0-1.0-488.0","0","0","89306","","null","","","null","54","","","","","","","","","","","","","","","",""
"","ISI","","html-keyboard-response","359","615169","0.0-1.0-489.0","0","0","89306","","null","","","null","54","NaN","","","","","","","","","","","","","","",""
"","S2","","html-keyboard-response","360","615434","0.0-1.0-490.0","0","0","89306","","null","","","null","54","","NaN","","","","","","","","","","","","","",""
"","response","","html-keyboard-response","361","615711","0.0-1.0-491.0-0.0","0","0","89306","","275","","","75","54","","","2","54","training","adjacent","BA","2","1","N.jpg","P.jpg","0","0","1","",""
"","feedback","","html-keyboard-response","362","616721","0.0-1.0-492.0-0.0","0","0","89306","","null","","","null","54","","","","","","","","","","","","","","","",""
"","ITI","","html-keyboard-response","363","617735","0.0-1.0-495.0","0","0","89306","","null","","","null","54","","","","","","","","","","","","","","","NaN",""
"","S1","","html-keyboard-response","364","618001","0.0-1.0-497.0","0","0","89306","","null","","","null","55","","","","","","","","","","","","","","","",""
"","ISI","","html-keyboard-response","365","618513","0.0-1.0-498.0","0","0","89306","","null","","","null","55","NaN","","","","","","","","","","","","","","",""
"","S2","","html-keyboard-response","366","618774","0.0-1.0-499.0","0","0","89306","","null","","","null","55","","NaN","","","","","","","","","","","","","",""
"","response","","html-keyboard-response","367","619192","0.0-1.0-500.0-0.0","0","0","89306","","416","","","68","55","","","2","55","training","adjacent","GF","7","6","Q.jpg","O.jpg","1","0","0","",""
"","feedback","","html-keyboard-response","368","620198","0.0-1.0-501.0-0.0","0","0","89306","","null","","","null","55","","","","","","","","","","","","","","","",""
"","time_out","","html-keyboard-response","369","622209","0.0-1.0-503.0-0.0","0","0","89306","","null","","","null","55","","","","","","","","","","","","","","","",""
"","ITI","","html-keyboard-response","370","623225","0.0-1.0-504.0","0","0","89306","","null","","","null","55","","","","","","","","","","","","","","","NaN",""
"","S1","","html-keyboard-response","371","623489","0.0-1.0-506.0","0","0","89306","","null","","","null","56","","","","","","","","","","","","","","","",""
"","ISI","","html-keyboard-response","372","623999","0.0-1.0-507.0","0","0","89306","","null","","","null","56","NaN","","","","","","","","","","","","","","",""
"","S2","","html-keyboard-response","373","624262","0.0-1.0-508.0","0","0","89306","","null","","","null","56","","NaN","","","","","","","","","","","","","",""
"","response","","html-keyboard-response","374","624478","0.0-1.0-509.0-0.0","0","0","89306","","212","","","75","56","","","2","56","training","adjacent","GF","7","6","Q.jpg","O.jpg","0","0","1","",""
"","feedback","","html-keyboard-response","375","625486","0.0-1.0-510.0-0.0","0","0","89306","","null","","","null","56","","","","","","","","","","","","","","","",""
"","ITI","","html-keyboard-response","376","626497","0.0-1.0-513.0","0","0","89306","","null","","","null","56","","","","","","","","","","","","","","","NaN",""
"","S1","","html-keyboard-response","377","626759","0.0-1.0-515.0","0","0","89306","","null","","","null","57","","","","","","","","","","","","","","","",""
"","ISI","","html-keyboard-response","378","627262","0.0-1.0-516.0","0","0","89306","","null","","","null","57","NaN","","","","","","","","","","","","","","",""
"","S2","","html-keyboard-response","379","627515","0.0-1.0-517.0","0","0","89306","","null","","","null","57","","NaN","","","","","","","","","","","","","",""
"","response","","html-keyboard-response","380","627910","0.0-1.0-518.0-0.0","0","0","89306","","392","","","75","57","","","2","57","training","adjacent","EF","5","6","M.jpg","O.jpg","0","1","0","",""
"","feedback","","html-keyboard-response","381","628918","0.0-1.0-519.0-0.0","0","0","89306","","null","","","null","57","","","","","","","","","","","","","","","",""
"","time_out","","html-keyboard-response","382","630929","0.0-1.0-521.0-0.0","0","0","89306","","null","","","null","57","","","","","","","","","","","","","","","",""
"","ITI","","html-keyboard-response","383","631945","0.0-1.0-522.0","0","0","89306","","null","","","null","57","","","","","","","","","","","","","","","NaN",""
"","S1","","html-keyboard-response","384","632209","0.0-1.0-524.0","0","0","89306","","null","","","null","58","","","","","","","","","","","","","","","",""
"","ISI","","html-keyboard-response","385","632721","0.0-1.0-525.0","0","0","89306","","null","","","null","58","NaN","","","","","","","","","","","","","","",""
"","S2","","html-keyboard-response","386","632985","0.0-1.0-526.0","0","0","89306","","null","","","null","58","","NaN","","","","","","","","","","","","","",""
"","response","","html-keyboard-response","387","633390","0.0-1.0-527.0-0.0","0","0","89306","","401","","","75","58","","","2","58","training","adjacent","BC","2","3","N.jpg","R.jpg","0","1","0","",""
"","feedback","","html-keyboard-response","388","634402","0.0-1.0-528.0-0.0","0","0","89306","","null","","","null","58","","","","","","","","","","","","","","","",""
"","time_out","","html-keyboard-response","389","636418","0.0-1.0-530.0-0.0","0","0","89306","","null","","","null","58","","","","","","","","","","","","","","","",""
"","ITI","","html-keyboard-response","390","637427","0.0-1.0-531.0","0","0","89306","","null","","","null","58","","","","","","","","","","","","","","","NaN",""
"","S1","","html-keyboard-response","391","637686","0.0-1.0-533.0","0","0","89306","","null","","","null","59","","","","","","","","","","","","","","","",""
"","ISI","","html-keyboard-response","392","638202","0.0-1.0-534.0","0","0","89306","","null","","","null","59","NaN","","","","","","","","","","","","","","",""
"","S2","","html-keyboard-response","393","638465","0.0-1.0-535.0","0","0","89306","","null","","","null","59","","NaN","","","","","","","","","","","","","",""
"","response","","html-keyboard-response","394","638994","0.0-1.0-536.0-0.0","0","0","89306","","526","","","75","59","","","2","59","training","adjacent","FE","6","5","O.jpg","M.jpg","0","0","1","",""
"","feedback","","html-keyboard-response","395","640009","0.0-1.0-537.0-0.0","0","0","89306","","null","","","null","59","","","","","","","","","","","","","","","",""
"","ITI","","html-keyboard-response","396","641025","0.0-1.0-540.0","0","0","89306","","null","","","null","59","","","","","","","","","","","","","","","NaN",""
"","S1","","html-keyboard-response","397","641287","0.0-1.0-542.0","0","0","89306","","null","","","null","60","","","","","","","","","","","","","","","",""
"","ISI","","html-keyboard-response","398","641799","0.0-1.0-543.0","0","0","89306","","null","","","null","60","NaN","","","","","","","","","","","","","","",""
"","S2","","html-keyboard-response","399","642055","0.0-1.0-544.0","0","0","89306","","null","","","null","60","","NaN","","","","","","","","","","","","","",""
"","response","","html-keyboard-response","400","642469","0.0-1.0-545.0-0.0","0","0","89306","","409","","","75","60","","","2","60","training","adjacent","BA","2","1","N.jpg","P.jpg","0","0","1","",""
"","feedback","","html-keyboard-response","401","643476","0.0-1.0-546.0-0.0","0","0","89306","","null","","","null","60","","","","","","","","","","","","","","","",""
"","ITI","","html-keyboard-response","402","644487","0.0-1.0-549.0","0","0","89306","","null","","","null","60","","","","","","","","","","","","","","","NaN",""
"","S1","","html-keyboard-response","403","644754","0.0-1.0-551.0","0","0","89306","","null","","","null","61","","","","","","","","","","","","","","","",""
"","ISI","","html-keyboard-response","404","645265","0.0-1.0-552.0","0","0","89306","","null","","","null","61","NaN","","","","","","","","","","","","","","",""
"","S2","","html-keyboard-response","405","645526","0.0-1.0-553.0","0","0","89306","","null","","","null","61","","NaN","","","","","","","","","","","","","",""
"","response","","html-keyboard-response","406","646186","0.0-1.0-554.0-0.0","0","0","89306","","656","","","68","61","","","2","61","training","adjacent","CB","3","2","R.jpg","N.jpg","1","0","0","",""
"","feedback","","html-keyboard-response","407","647203","0.0-1.0-555.0-0.0","0","0","89306","","null","","","null","61","","","","","","","","","","","","","","","",""
"","time_out","","html-keyboard-response","408","649208","0.0-1.0-557.0-0.0","0","0","89306","","null","","","null","61","","","","","","","","","","","","","","","",""
"","ITI","","html-keyboard-response","409","650215","0.0-1.0-558.0","0","0","89306","","null","","","null","61","","","","","","","","","","","","","","","NaN",""
"","S1","","html-keyboard-response","410","650478","0.0-1.0-560.0","0","0","89306","","null","","","null","62","","","","","","","","","","","","","","","",""
"","ISI","","html-keyboard-response","411","650992","0.0-1.0-561.0","0","0","89306","","null","","","null","62","NaN","","","","","","","","","","","","","","",""
"","S2","","html-keyboard-response","412","651254","0.0-1.0-562.0","0","0","89306","","null","","","null","62","","NaN","","","","","","","","","","","","","",""
"","response","","html-keyboard-response","413","651637","0.0-1.0-563.0-0.0","0","0","89306","","380","","","75","62","","","2","62","training","adjacent","CB","3","2","R.jpg","N.jpg","0","0","1","",""
"","feedback","","html-keyboard-response","414","652647","0.0-1.0-564.0-0.0","0","0","89306","","null","","","null","62","","","","","","","","","","","","","","","",""
"","ITI","","html-keyboard-response","415","653655","0.0-1.0-567.0","0","0","89306","","null","","","null","62","","","","","","","","","","","","","","","NaN",""
"","S1","","html-keyboard-response","416","653922","0.0-1.0-569.0","0","0","89306","","null","","","null","63","","","","","","","","","","","","","","","",""
"","ISI","","html-keyboard-response","417","654433","0.0-1.0-570.0","0","0","89306","","null","","","null","63","NaN","","","","","","","","","","","","","","",""
"","S2","","html-keyboard-response","418","654695","0.0-1.0-571.0","0","0","89306","","null","","","null","63","","NaN","","","","","","","","","","","","","",""
"","response","","html-keyboard-response","419","655204","0.0-1.0-572.0-0.0","0","0","89306","","506","","","68","63","","","2","63","training","adjacent","DE","4","5","L.jpg","M.jpg","1","1","1","",""
"","feedback","","html-keyboard-response","420","656214","0.0-1.0-573.0-0.0","0","0","89306","","null","","","null","63","","","","","","","","","","","","","","","",""
"","ITI","","html-keyboard-response","421","657220","0.0-1.0-576.0","0","0","89306","","null","","","null","63","","","","","","","","","","","","","","","NaN",""
"","S1","","html-keyboard-response","422","657479","0.0-1.0-578.0","0","0","89306","","null","","","null","64","","","","","","","","","","","","","","","",""
"","ISI","","html-keyboard-response","423","657990","0.0-1.0-579.0","0","0","89306","","null","","","null","64","NaN","","","","","","","","","","","","","","",""
"","S2","","html-keyboard-response","424","658247","0.0-1.0-580.0","0","0","89306","","null","","","null","64","","NaN","","","","","","","","","","","","","",""
"","response","","html-keyboard-response","425","658734","0.0-1.0-581.0-0.0","0","0","89306","","484","","","68","64","","","2","64","training","adjacent","AB","1","2","P.jpg","N.jpg","1","1","1","",""
"","feedback","","html-keyboard-response","426","659746","0.0-1.0-582.0-0.0","0","0","89306","","null","","","null","64","","","","","","","","","","","","","","","",""
"","ITI","","html-keyboard-response","427","660759","0.0-1.0-585.0","0","0","89306","","null","","","null","64","","","","","","","","","","","","","","","NaN",""
"","S1","","html-keyboard-response","428","661025","0.0-1.0-587.0","0","0","89306","","null","","","null","65","","","","","","","","","","","","","","","",""
"","ISI","","html-keyboard-response","429","661538","0.0-1.0-588.0","0","0","89306","","null","","","null","65","NaN","","","","","","","","","","","","","","",""
"","S2","","html-keyboard-response","430","661799","0.0-1.0-589.0","0","0","89306","","null","","","null","65","","NaN","","","","","","","","","","","","","",""
"","response","","html-keyboard-response","431","662065","0.0-1.0-590.0-0.0","0","0","89306","","262","","","75","65","","","2","65","training","adjacent","FG","6","7","O.jpg","Q.jpg","0","1","0","",""
"","feedback","","html-keyboard-response","432","663079","0.0-1.0-591.0-0.0","0","0","89306","","null","","","null","65","","","","","","","","","","","","","","","",""
"","time_out","","html-keyboard-response","433","665090","0.0-1.0-593.0-0.0","0","0","89306","","null","","","null","65","","","","","","","","","","","","","","","",""
"","ITI","","html-keyboard-response","434","666103","0.0-1.0-594.0","0","0","89306","","null","","","null","65","","","","","","","","","","","","","","","NaN",""
"","S1","","html-keyboard-response","435","666370","0.0-1.0-596.0","0","0","89306","","null","","","null","66","","","","","","","","","","","","","","","",""
"","ISI","","html-keyboard-response","436","666882","0.0-1.0-597.0","0","0","89306","","null","","","null","66","NaN","","","","","","","","","","","","","","",""
"","S2","","html-keyboard-response","437","667143","0.0-1.0-598.0","0","0","89306","","null","","","null","66","","NaN","","","","","","","","","","","","","",""
"","response","","html-keyboard-response","438","667620","0.0-1.0-599.0-0.0","0","0","89306","","473","","","68","66","","","2","66","training","adjacent","BA","2","1","N.jpg","P.jpg","1","0","0","",""
"","feedback","","html-keyboard-response","439","668628","0.0-1.0-600.0-0.0","0","0","89306","","null","","","null","66","","","","","","","","","","","","","","","",""
"","time_out","","html-keyboard-response","440","670638","0.0-1.0-602.0-0.0","0","0","89306","","null","","","null","66","","","","","","","","","","","","","","","",""
"","ITI","","html-keyboard-response","441","671650","0.0-1.0-603.0","0","0","89306","","null","","","null","66","","","","","","","","","","","","","","","NaN",""
"","S1","","html-keyboard-response","442","671911","0.0-1.0-605.0","0","0","89306","","null","","","null","67","","","","","","","","","","","","","","","",""
"","ISI","","html-keyboard-response","443","672423","0.0-1.0-606.0","0","0","89306","","null","","","null","67","NaN","","","","","","","","","","","","","","",""
"","S2","","html-keyboard-response","444","672676","0.0-1.0-607.0","0","0","89306","","null","","","null","67","","NaN","","","","","","","","","","","","","",""
"","response","","html-keyboard-response","445","673255","0.0-1.0-608.0-0.0","0","0","89306","","577","","","68","67","","","2","67","training","adjacent","AB","1","2","P.jpg","N.jpg","1","1","1","",""
"","feedback","","html-keyboard-response","446","674263","0.0-1.0-609.0-0.0","0","0","89306","","null","","","null","67","","","","","","","","","","","","","","","",""
"","ITI","","html-keyboard-response","447","675268","0.0-1.0-612.0","0","0","89306","","null","","","null","67","","","","","","","","","","","","","","","NaN",""
"","S1","","html-keyboard-response","448","675524","0.0-1.0-614.0","0","0","89306","","null","","","null","68","","","","","","","","","","","","","","","",""
"","ISI","","html-keyboard-response","449","676033","0.0-1.0-615.0","0","0","89306","","null","","","null","68","NaN","","","","","","","","","","","","","","",""
"","S2","","html-keyboard-response","450","676295","0.0-1.0-616.0","0","0","89306","","null","","","null","68","","NaN","","","","","","","","","","","","","",""
"","response","","html-keyboard-response","451","676739","0.0-1.0-617.0-0.0","0","0","89306","","440","","","68","68","","","2","68","training","adjacent","CB","3","2","R.jpg","N.jpg","1","0","0","",""
"","feedback","","html-keyboard-response","452","677754","0.0-1.0-618.0-0.0","0","0","89306","","null","","","null","68","","","","","","","","","","","","","","","",""
"","time_out","","html-keyboard-response","453","679764","0.0-1.0-620.0-0.0","0","0","89306","","null","","","null","68","","","","","","","","","","","","","","","",""
"","ITI","","html-keyboard-response","454","680775","0.0-1.0-621.0","0","0","89306","","null","","","null","68","","","","","","","","","","","","","","","NaN",""
"","S1","","html-keyboard-response","455","681042","0.0-1.0-623.0","0","0","89306","","null","","","null","69","","","","","","","","","","","","","","","",""
"","ISI","","html-keyboard-response","456","681550","0.0-1.0-624.0","0","0","89306","","null","","","null","69","NaN","","","","","","","","","","","","","","",""
"","S2","","html-keyboard-response","457","681809","0.0-1.0-625.0","0","0","89306","","null","","","null","69","","NaN","","","","","","","","","","","","","",""
"","response","","html-keyboard-response","458","682327","0.0-1.0-626.0-0.0","0","0","89306","","514","","","75","69","","","2","69","training","adjacent","FG","6","7","O.jpg","Q.jpg","0","1","0","",""
"","feedback","","html-keyboard-response","459","683336","0.0-1.0-627.0-0.0","0","0","89306","","null","","","null","69","","","","","","","","","","","","","","","",""
"","time_out","","html-keyboard-response","460","685346","0.0-1.0-629.0-0.0","0","0","89306","","null","","","null","69","","","","","","","","","","","","","","","",""
"","ITI","","html-keyboard-response","461","686359","0.0-1.0-630.0","0","0","89306","","null","","","null","69","","","","","","","","","","","","","","","NaN",""
"","S1","","html-keyboard-response","462","686623","0.0-1.0-632.0","0","0","89306","","null","","","null","70","","","","","","","","","","","","","","","",""
"","ISI","","html-keyboard-response","463","687138","0.0-1.0-633.0","0","0","89306","","null","","","null","70","NaN","","","","","","","","","","","","","","",""
"","S2","","html-keyboard-response","464","687397","0.0-1.0-634.0","0","0","89306","","null","","","null","70","","NaN","","","","","","","","","","","","","",""
"","response","","html-keyboard-response","465","687762","0.0-1.0-635.0-0.0","0","0","89306","","361","","","68","70","","","2","70","training","adjacent","EF","5","6","M.jpg","O.jpg","1","1","1","",""
"","feedback","","html-keyboard-response","466","688775","0.0-1.0-636.0-0.0","0","0","89306","","null","","","null","70","","","","","","","","","","","","","","","",""
"","ITI","","html-keyboard-response","467","689785","0.0-1.0-639.0","0","0","89306","","null","","","null","70","","","","","","","","","","","","","","","NaN",""
"","S1","","html-keyboard-response","468","690050","0.0-1.0-641.0","0","0","89306","","null","","","null","71","","","","","","","","","","","","","","","",""
"","ISI","","html-keyboard-response","469","690562","0.0-1.0-642.0","0","0","89306","","null","","","null","71","NaN","","","","","","","","","","","","","","",""
"","S2","","html-keyboard-response","470","690823","0.0-1.0-643.0","0","0","89306","","null","","","null","71","","NaN","","","","","","","","","","","","","",""
"","response","","html-keyboard-response","471","691156","0.0-1.0-644.0-0.0","0","0","89306","","330","","","68","71","","","2","71","training","adjacent","FE","6","5","O.jpg","M.jpg","1","0","0","",""
"","feedback","","html-keyboard-response","472","692171","0.0-1.0-645.0-0.0","0","0","89306","","null","","","null","71","","","","","","","","","","","","","","","",""
"","time_out","","html-keyboard-response","473","694183","0.0-1.0-647.0-0.0","0","0","89306","","null","","","null","71","","","","","","","","","","","","","","","",""
"","ITI","","html-keyboard-response","474","695191","0.0-1.0-648.0","0","0","89306","","null","","","null","71","","","","","","","","","","","","","","","NaN",""
"","S1","","html-keyboard-response","475","695458","0.0-1.0-650.0","0","0","89306","","null","","","null","72","","","","","","","","","","","","","","","",""
"","ISI","","html-keyboard-response","476","695969","0.0-1.0-651.0","0","0","89306","","null","","","null","72","NaN","","","","","","","","","","","","","","",""
"","S2","","html-keyboard-response","477","696231","0.0-1.0-652.0","0","0","89306","","null","","","null","72","","NaN","","","","","","","","","","","","","",""
"","response","","html-keyboard-response","478","696671","0.0-1.0-653.0-0.0","0","0","89306","","436","","","75","72","","","2","72","training","adjacent","ED","5","4","M.jpg","L.jpg","0","0","1","",""
"","feedback","","html-keyboard-response","479","697682","0.0-1.0-654.0-0.0","0","0","89306","","null","","","null","72","","","","","","","","","","","","","","","",""
"","ITI","","html-keyboard-response","480","698693","0.0-1.0-657.0","0","0","89306","","null","","","null","72","","","","","","","","","","","","","","","NaN",""
"","S1","","html-keyboard-response","481","698955","0.0-1.0-659.0","0","0","89306","","null","","","null","73","","","","","","","","","","","","","","","",""
"","ISI","","html-keyboard-response","482","699460","0.0-1.0-660.0","0","0","89306","","null","","","null","73","NaN","","","","","","","","","","","","","","",""
"","S2","","html-keyboard-response","483","699719","0.0-1.0-661.0","0","0","89306","","null","","","null","73","","NaN","","","","","","","","","","","","","",""
"","response","","html-keyboard-response","484","700257","0.0-1.0-662.0-0.0","0","0","89306","","537","","","68","73","","","2","73","training","adjacent","DC","4","3","L.jpg","R.jpg","1","0","0","",""
"","feedback","","html-keyboard-response","485","701260","0.0-1.0-663.0-0.0","0","0","89306","","null","","","null","73","","","","","","","","","","","","","","","",""
"","time_out","","html-keyboard-response","486","703264","0.0-1.0-665.0-0.0","0","0","89306","","null","","","null","73","","","","","","","","","","","","","","","",""
"","ITI","","html-keyboard-response","487","704275","0.0-1.0-666.0","0","0","89306","","null","","","null","73","","","","","","","","","","","","","","","NaN",""
"","S1","","html-keyboard-response","488","704535","0.0-1.0-668.0","0","0","89306","","null","","","null","74","","","","","","","","","","","","","","","",""
"","ISI","","html-keyboard-response","489","705049","0.0-1.0-669.0","0","0","89306","","null","","","null","74","NaN","","","","","","","","","","","","","","",""
"","S2","","html-keyboard-response","490","705311","0.0-1.0-670.0","0","0","89306","","null","","","null","74","","NaN","","","","","","","","","","","","","",""
"","response","","html-keyboard-response","491","705555","0.0-1.0-671.0-0.0","0","0","89306","","242","","","75","74","","","2","74","training","adjacent","EF","5","6","M.jpg","O.jpg","0","1","0","",""
"","feedback","","html-keyboard-response","492","706568","0.0-1.0-672.0-0.0","0","0","89306","","null","","","null","74","","","","","","","","","","","","","","","",""
"","time_out","","html-keyboard-response","493","708575","0.0-1.0-674.0-0.0","0","0","89306","","null","","","null","74","","","","","","","","","","","","","","","",""
"","ITI","","html-keyboard-response","494","709588","0.0-1.0-675.0","0","0","89306","","null","","","null","74","","","","","","","","","","","","","","","NaN",""
"","S1","","html-keyboard-response","495","709848","0.0-1.0-677.0","0","0","89306","","null","","","null","75","","","","","","","","","","","","","","","",""
"","ISI","","html-keyboard-response","496","710357","0.0-1.0-678.0","0","0","89306","","null","","","null","75","NaN","","","","","","","","","","","","","","",""
"","S2","","html-keyboard-response","497","710617","0.0-1.0-679.0","0","0","89306","","null","","","null","75","","NaN","","","","","","","","","","","","","",""
"","response","","html-keyboard-response","498","711068","0.0-1.0-680.0-0.0","0","0","89306","","446","","","68","75","","","2","75","training","adjacent","CB","3","2","R.jpg","N.jpg","1","0","0","",""
"","feedback","","html-keyboard-response","499","712082","0.0-1.0-681.0-0.0","0","0","89306","","null","","","null","75","","","","","","","","","","","","","","","",""
"","time_out","","html-keyboard-response","500","714098","0.0-1.0-683.0-0.0","0","0","89306","","null","","","null","75","","","","","","","","","","","","","","","",""
"","ITI","","html-keyboard-response","501","715111","0.0-1.0-684.0","0","0","89306","","null","","","null","75","","","","","","","","","","","","","","","NaN",""
"","S1","","html-keyboard-response","502","715367","0.0-1.0-686.0","0","0","89306","","null","","","null","76","","","","","","","","","","","","","","","",""
"","ISI","","html-keyboard-response","503","715878","0.0-1.0-687.0","0","0","89306","","null","","","null","76","NaN","","","","","","","","","","","","","","",""
"","S2","","html-keyboard-response","504","716133","0.0-1.0-688.0","0","0","89306","","null","","","null","76","","NaN","","","","","","","","","","","","","",""
"","response","","html-keyboard-response","505","716630","0.0-1.0-689.0-0.0","0","0","89306","","495","","","68","76","","","2","76","training","adjacent","AB","1","2","P.jpg","N.jpg","1","1","1","",""
"","feedback","","html-keyboard-response","506","717640","0.0-1.0-690.0-0.0","0","0","89306","","null","","","null","76","","","","","","","","","","","","","","","",""
"","ITI","","html-keyboard-response","507","718658","0.0-1.0-693.0","0","0","89306","","null","","","null","76","","","","","","","","","","","","","","","NaN",""
"","S1","","html-keyboard-response","508","718922","0.0-1.0-695.0","0","0","89306","","null","","","null","77","","","","","","","","","","","","","","","",""
"","ISI","","html-keyboard-response","509","719429","0.0-1.0-696.0","0","0","89306","","null","","","null","77","NaN","","","","","","","","","","","","","","",""
"","S2","","html-keyboard-response","510","719689","0.0-1.0-697.0","0","0","89306","","null","","","null","77","","NaN","","","","","","","","","","","","","",""
"","response","","html-keyboard-response","511","721000","0.0-1.0-698.0-0.0","0","0","89306","","1308","","","68","77","","","2","77","training","adjacent","CD","3","4","R.jpg","L.jpg","1","1","1","",""
"","feedback","","html-keyboard-response","512","722009","0.0-1.0-699.0-0.0","0","0","89306","","null","","","null","77","","","","","","","","","","","","","","","",""
"","ITI","","html-keyboard-response","513","723026","0.0-1.0-702.0","0","0","89306","","null","","","null","77","","","","","","","","","","","","","","","NaN",""
"","S1","","html-keyboard-response","514","723286","0.0-1.0-704.0","0","0","89306","","null","","","null","78","","","","","","","","","","","","","","","",""
"","ISI","","html-keyboard-response","515","723800","0.0-1.0-705.0","0","0","89306","","null","","","null","78","NaN","","","","","","","","","","","","","","",""
"","S2","","html-keyboard-response","516","724068","0.0-1.0-706.0","0","0","89306","","null","","","null","78","","NaN","","","","","","","","","","","","","",""
"","response","","html-keyboard-response","517","724363","0.0-1.0-707.0-0.0","0","0","89306","","293","","","75","78","","","2","78","training","adjacent","BC","2","3","N.jpg","R.jpg","0","1","0","",""
"","feedback","","html-keyboard-response","518","725378","0.0-1.0-708.0-0.0","0","0","89306","","null","","","null","78","","","","","","","","","","","","","","","",""
"","time_out","","html-keyboard-response","519","727395","0.0-1.0-710.0-0.0","0","0","89306","","null","","","null","78","","","","","","","","","","","","","","","",""
"","ITI","","html-keyboard-response","520","728409","0.0-1.0-711.0","0","0","89306","","518","","","68","78","","","","","","","","","","","","","","","d",""
"","S1","","html-keyboard-response","521","728675","0.0-1.0-713.0","0","0","89306","","null","","","null","79","","","","","","","","","","","","","","","",""
"","ISI","","html-keyboard-response","522","729183","0.0-1.0-714.0","0","0","89306","","null","","","null","79","NaN","","","","","","","","","","","","","","",""
"","S2","","html-keyboard-response","523","729438","0.0-1.0-715.0","0","0","89306","","null","","","null","79","","NaN","","","","","","","","","","","","","",""
"","response","","html-keyboard-response","524","729815","0.0-1.0-716.0-0.0","0","0","89306","","374","","","68","79","","","2","79","training","adjacent","GF","7","6","Q.jpg","O.jpg","1","0","0","",""
"","feedback","","html-keyboard-response","525","730826","0.0-1.0-717.0-0.0","0","0","89306","","null","","","null","79","","","","","","","","","","","","","","","",""
"","time_out","","html-keyboard-response","526","732842","0.0-1.0-719.0-0.0","0","0","89306","","null","","","null","79","","","","","","","","","","","","","","","",""
"","ITI","","html-keyboard-response","527","733859","0.0-1.0-720.0","0","0","89306","","null","","","null","79","","","","","","","","","","","","","","","NaN",""
"","S1","","html-keyboard-response","528","734120","0.0-1.0-722.0","0","0","89306","","null","","","null","80","","","","","","","","","","","","","","","",""
"","ISI","","html-keyboard-response","529","734632","0.0-1.0-723.0","0","0","89306","","null","","","null","80","NaN","","","","","","","","","","","","","","",""
"","S2","","html-keyboard-response","530","734899","0.0-1.0-724.0","0","0","89306","","null","","","null","80","","NaN","","","","","","","","","","","","","",""
"","response","","html-keyboard-response","531","735374","0.0-1.0-725.0-0.0","0","0","89306","","472","","","75","80","","","2","80","training","adjacent","FE","6","5","O.jpg","M.jpg","0","0","1","",""
"","feedback","","html-keyboard-response","532","736383","0.0-1.0-726.0-0.0","0","0","89306","","null","","","null","80","","","","","","","","","","","","","","","",""
"","ITI","","html-keyboard-response","533","737395","0.0-1.0-729.0","0","0","89306","","null","","","null","80","","","","","","","","","","","","","","","NaN",""
"","S1","","html-keyboard-response","534","737657","0.0-1.0-731.0","0","0","89306","","null","","","null","81","","","","","","","","","","","","","","","",""
"","ISI","","html-keyboard-response","535","738168","0.0-1.0-732.0","0","0","89306","","null","","","null","81","NaN","","","","","","","","","","","","","","",""
"","S2","","html-keyboard-response","536","738434","0.0-1.0-733.0","0","0","89306","","null","","","null","81","","NaN","","","","","","","","","","","","","",""
"","response","","html-keyboard-response","537","738804","0.0-1.0-734.0-0.0","0","0","89306","","367","","","75","81","","","2","81","training","adjacent","GF","7","6","Q.jpg","O.jpg","0","0","1","",""
"","feedback","","html-keyboard-response","538","739816","0.0-1.0-735.0-0.0","0","0","89306","","null","","","null","81","","","","","","","","","","","","","","","",""
"","ITI","","html-keyboard-response","539","740821","0.0-1.0-738.0","0","0","89306","","null","","","null","81","","","","","","","","","","","","","","","NaN",""
"","S1","","html-keyboard-response","540","741081","0.0-1.0-740.0","0","0","89306","","null","","","null","82","","","","","","","","","","","","","","","",""
"","ISI","","html-keyboard-response","541","741592","0.0-1.0-741.0","0","0","89306","","null","","","null","82","NaN","","","","","","","","","","","","","","",""
"","S2","","html-keyboard-response","542","741859","0.0-1.0-742.0","0","0","89306","","null","","","null","82","","NaN","","","","","","","","","","","","","",""
"","response","","html-keyboard-response","543","742416","0.0-1.0-743.0-0.0","0","0","89306","","555","","","68","82","","","2","82","training","adjacent","DE","4","5","L.jpg","M.jpg","1","1","1","",""
"","feedback","","html-keyboard-response","544","743426","0.0-1.0-744.0-0.0","0","0","89306","","null","","","null","82","","","","","","","","","","","","","","","",""
"","ITI","","html-keyboard-response","545","744437","0.0-1.0-747.0","0","0","89306","","null","","","null","82","","","","","","","","","","","","","","","NaN",""
"","S1","","html-keyboard-response","546","744693","0.0-1.0-749.0","0","0","89306","","null","","","null","83","","","","","","","","","","","","","","","",""
"","ISI","","html-keyboard-response","547","745203","0.0-1.0-750.0","0","0","89306","","null","","","null","83","NaN","","","","","","","","","","","","","","",""
"","S2","","html-keyboard-response","548","745461","0.0-1.0-751.0","0","0","89306","","null","","","null","83","","NaN","","","","","","","","","","","","","",""
"","response","","html-keyboard-response","549","745894","0.0-1.0-752.0-0.0","0","0","89306","","431","","","75","83","","","2","83","training","adjacent","AB","1","2","P.jpg","N.jpg","0","1","0","",""
"","feedback","","html-keyboard-response","550","746907","0.0-1.0-753.0-0.0","0","0","89306","","null","","","null","83","","","","","","","","","","","","","","","",""
"","time_out","","html-keyboard-response","551","748921","0.0-1.0-755.0-0.0","0","0","89306","","null","","","null","83","","","","","","","","","","","","","","","",""
"","ITI","","html-keyboard-response","552","749927","0.0-1.0-756.0","0","0","89306","","null","","","null","83","","","","","","","","","","","","","","","NaN",""
"","S1","","html-keyboard-response","553","750184","0.0-1.0-758.0","0","0","89306","","null","","","null","84","","","","","","","","","","","","","","","",""
"","ISI","","html-keyboard-response","554","750696","0.0-1.0-759.0","0","0","89306","","null","","","null","84","NaN","","","","","","","","","","","","","","",""
"","S2","","html-keyboard-response","555","750963","0.0-1.0-760.0","0","0","89306","","null","","","null","84","","NaN","","","","","","","","","","","","","",""
"","response","","html-keyboard-response","556","751198","0.0-1.0-761.0-0.0","0","0","89306","","230","","","75","84","","","2","84","training","adjacent","ED","5","4","M.jpg","L.jpg","0","0","1","",""
"","feedback","","html-keyboard-response","557","752209","0.0-1.0-762.0-0.0","0","0","89306","","null","","","null","84","","","","","","","","","","","","","","","",""
"","ITI","","html-keyboard-response","558","753219","0.0-1.0-765.0","0","0","89306","","null","","","null","84","","","","","","","","","","","","","","","NaN",""
"","S1","","html-keyboard-response","559","753477","0.0-1.0-767.0","0","0","89306","","null","","","null","85","","","","","","","","","","","","","","","",""
"","ISI","","html-keyboard-response","560","753987","0.0-1.0-768.0","0","0","89306","","null","","","null","85","NaN","","","","","","","","","","","","","","",""
"","S2","","html-keyboard-response","561","754248","0.0-1.0-769.0","0","0","89306","","null","","","null","85","","NaN","","","","","","","","","","","","","",""
"","response","","html-keyboard-response","562","754935","0.0-1.0-770.0-0.0","0","0","89306","","683","","","75","85","","","2","85","training","adjacent","EF","5","6","M.jpg","O.jpg","0","1","0","",""
"","feedback","","html-keyboard-response","563","755941","0.0-1.0-771.0-0.0","0","0","89306","","null","","","null","85","","","","","","","","","","","","","","","",""
"","time_out","","html-keyboard-response","564","757955","0.0-1.0-773.0-0.0","0","0","89306","","null","","","null","85","","","","","","","","","","","","","","","",""
"","ITI","","html-keyboard-response","565","758968","0.0-1.0-774.0","0","0","89306","","null","","","null","85","","","","","","","","","","","","","","","NaN",""
"","S1","","html-keyboard-response","566","759232","0.0-1.0-776.0","0","0","89306","","null","","","null","86","","","","","","","","","","","","","","","",""
"","ISI","","html-keyboard-response","567","759744","0.0-1.0-777.0","0","0","89306","","null","","","null","86","NaN","","","","","","","","","","","","","","",""
"","S2","","html-keyboard-response","568","760008","0.0-1.0-778.0","0","0","89306","","null","","","null","86","","NaN","","","","","","","","","","","","","",""
"","response","","html-keyboard-response","569","760962","0.0-1.0-779.0-0.0","0","0","89306","","950","","","75","86","","","2","86","training","adjacent","BC","2","3","N.jpg","R.jpg","0","1","0","",""
"","feedback","","html-keyboard-response","570","761973","0.0-1.0-780.0-0.0","0","0","89306","","null","","","null","86","","","","","","","","","","","","","","","",""
"","time_out","","html-keyboard-response","571","763987","0.0-1.0-782.0-0.0","0","0","89306","","null","","","null","86","","","","","","","","","","","","","","","",""
"","ITI","","html-keyboard-response","572","765000","0.0-1.0-783.0","0","0","89306","","null","","","null","86","","","","","","","","","","","","","","","NaN",""
"","S1","","html-keyboard-response","573","765264","0.0-1.0-785.0","0","0","89306","","null","","","null","87","","","","","","","","","","","","","","","",""
"","ISI","","html-keyboard-response","574","765775","0.0-1.0-786.0","0","0","89306","","null","","","null","87","NaN","","","","","","","","","","","","","","",""
"","S2","","html-keyboard-response","575","766034","0.0-1.0-787.0","0","0","89306","","null","","","null","87","","NaN","","","","","","","","","","","","","",""
"","response","","html-keyboard-response","576","766535","0.0-1.0-788.0-0.0","0","0","89306","","498","","","75","87","","","2","87","training","adjacent","ED","5","4","M.jpg","L.jpg","0","0","1","",""
"","feedback","","html-keyboard-response","577","767542","0.0-1.0-789.0-0.0","0","0","89306","","null","","","null","87","","","","","","","","","","","","","","","",""
"","ITI","","html-keyboard-response","578","768552","0.0-1.0-792.0","0","0","89306","","null","","","null","87","","","","","","","","","","","","","","","NaN",""
"","S1","","html-keyboard-response","579","768808","0.0-1.0-794.0","0","0","89306","","null","","","null","88","","","","","","","","","","","","","","","",""
"","ISI","","html-keyboard-response","580","769321","0.0-1.0-795.0","0","0","89306","","null","","","null","88","NaN","","","","","","","","","","","","","","",""
"","S2","","html-keyboard-response","581","769586","0.0-1.0-796.0","0","0","89306","","null","","","null","88","","NaN","","","","","","","","","","","","","",""
"","response","","html-keyboard-response","582","770593","0.0-1.0-797.0-0.0","0","0","89306","","1003","","","68","88","","","2","88","training","adjacent","FG","6","7","O.jpg","Q.jpg","1","1","1","",""
"","feedback","","html-keyboard-response","583","771600","0.0-1.0-798.0-0.0","0","0","89306","","null","","","null","88","","","","","","","","","","","","","","","",""
