"success","ttype","start_time","trial_type","trial_index","time_elapsed","internal_node_id","warning","missed_checkup","PID","view_history","rt","responses","repeat_instructions","key_press","index","keypress_isi","keypress_S2","block","trial_num","phase","group_type","pair_type","S1_stim","S2_stim","S1_img","S2_img","S1_chosen","S1_higher","accuracy","keypress_iti","total_bonus_tally"
"true","full_screen","d04132023hr1622","fullscreen","0","15680","0.0-0.0","0","0","78845","","","","","","","","","","","","","","","","","","","","","",""
"","instructions","","instructions","1","87671","0.0-1.0-0.0-0.0","0","0","78845","[{""page_index"":0,""viewing_time"":8701},{""page_index"":1,""viewing_time"":11834},{""page_index"":2,""viewing_time"":41610},{""page_index"":3,""viewing_time"":9843}]","71989","","","","","","","","","","","","","","","","","","","",""
"","comprehension_check","","survey-multi-choice","2","118086","0.0-1.0-0.0-1.0","0","0","78845","","30406","{""Q0"":""True"",""Q1"":""K"",""Q2"":""Once the second image appears and while the screen 'MAKE A CHOICE' is shown"",""Q3"":""Green mark"",""Q4"":""either D or K""}","0","","","","","","","","","","","","","","","","","",""
"","start_exp","","html-keyboard-response","3","121051","0.0-1.0-1.0","0","0","78845","","2960","","","32","","","","","","","","","","","","","","","","",""
"","S1","","html-keyboard-response","4","121310","0.0-1.0-2.0","0","0","78845","","null","","","null","0","","","","","","","","","","","","","","","",""
"","ISI","","html-keyboard-response","5","122314","0.0-1.0-3.0","0","0","78845","","null","","","null","0","NaN","","","","","","","","","","","","","","",""
"","S2","","html-keyboard-response","6","122570","0.0-1.0-4.0","0","0","78845","","null","","","null","0","","NaN","","","","","","","","","","","","","",""
"","response","","html-keyboard-response","7","123010","0.0-1.0-5.0-0.0","0","0","78845","","437","","","68","0","","","1","0","training","adjacent","BC","2","3","P.jpg","L.jpg","0","1","0","",""
"","feedback","","html-keyboard-response","8","124021","0.0-1.0-6.0-0.0","0","0","78845","","null","","","null","0","","","","","","","","","","","","","","","",""
"","time_out","","html-keyboard-response","9","126030","0.0-1.0-8.0-0.0","0","0","78845","","null","","","null","0","","","","","","","","","","","","","","","",""
"","ITI","","html-keyboard-response","10","127034","0.0-1.0-9.0","0","0","78845","","null","","","null","0","","","","","","","","","","","","","","","NaN",""
"","S1","","html-keyboard-response","11","127289","0.0-1.0-11.0","0","0","78845","","null","","","null","1","","","","","","","","","","","","","","","",""
"","ISI","","html-keyboard-response","12","128299","0.0-1.0-12.0","0","0","78845","","null","","","null","1","NaN","","","","","","","","","","","","","","",""
"","S2","","html-keyboard-response","13","128554","0.0-1.0-13.0","0","0","78845","","null","","","null","1","","NaN","","","","","","","","","","","","","",""
"","response","","html-keyboard-response","14","128826","0.0-1.0-14.0-0.0","0","0","78845","","270","","","75","1","","","1","1","training","adjacent","FG","6","7","N.jpg","O.jpg","1","1","1","",""
"","feedback","","html-keyboard-response","15","129836","0.0-1.0-15.0-0.0","0","0","78845","","null","","","null","1","","","","","","","","","","","","","","","",""
"","ITI","","html-keyboard-response","16","130842","0.0-1.0-18.0","0","0","78845","","null","","","null","1","","","","","","","","","","","","","","","NaN",""
"","S1","","html-keyboard-response","17","131097","0.0-1.0-20.0","0","0","78845","","null","","","null","2","","","","","","","","","","","","","","","",""
"","ISI","","html-keyboard-response","18","132107","0.0-1.0-21.0","0","0","78845","","null","","","null","2","NaN","","","","","","","","","","","","","","",""
"","S2","","html-keyboard-response","19","132362","0.0-1.0-22.0","0","0","78845","","null","","","null","2","","NaN","","","","","","","","","","","","","",""
"","response","","html-keyboard-response","20","132785","0.0-1.0-23.0-0.0","0","0","78845","","421","","","68","2","","","1","2","training","adjacent","GF","7","6","O.jpg","N.jpg","0","0","1","",""
"","feedback","","html-keyboard-response","21","133796","0.0-1.0-24.0-0.0","0","0","78845","","null","","","null","2","","","","","","","","","","","","","","","",""
"","ITI","","html-keyboard-response","22","134801","0.0-1.0-27.0","0","0","78845","","null","","","null","2","","","","","","","","","","","","","","","NaN",""
"","S1","","html-keyboard-response","23","135056","0.0-1.0-29.0","0","0","78845","","null","","","null","3","","","","","","","","","","","","","","","",""
"","ISI","","html-keyboard-response","24","136066","0.0-1.0-30.0","0","0","78845","","null","","","null","3","NaN","","","","","","","","","","","","","","",""
"","S2","","html-keyboard-response","25","136321","0.0-1.0-31.0","0","0","78845","","null","","","null","3","","NaN","","","","","","","","","","","","","",""
"","response","","html-keyboard-response","26","136900","0.0-1.0-32.0-0.0","0","0","78845","","577","","","68","3","","","1","3","training","adjacent","FE","6","5","N.jpg","M.jpg","0","0","1","",""
"","feedback","","html-keyboard-response","27","137906","0.0-1.0-33.0-0.0","0","0","78845","","null","","","null","3","","","","","","","","","","","","","","","",""
"","ITI","","html-keyboard-response","28","138916","0.0-1.0-36.0","0","0","78845","","null","","","null","3","","","","","","","","","","","","","","","NaN",""
"","S1","","html-keyboard-response","29","139172","0.0-1.0-38.0","0","0","78845","","null","","","null","4","","","","","","","","","","","","","","","",""
"","ISI","","html-keyboard-response","30","140176","0.0-1.0-39.0","0","0","78845","","null","","","null","4","NaN","","","","","","","","","","","","","","",""
"","S2","","html-keyboard-response","31","140437","0.0-1.0-40.0","0","0","78845","","null","","","null","4","","NaN","","","","","","","","","","","","","",""
"","response","","html-keyboard-response","32","140921","0.0-1.0-41.0-0.0","0","0","78845","","482","","","68","4","","","1","4","training","adjacent","GF","7","6","O.jpg","N.jpg","0","0","1","",""
"","feedback","","html-keyboard-response","33","141929","0.0-1.0-42.0-0.0","0","0","78845","","null","","","null","4","","","","","","","","","","","","","","","",""
"","ITI","","html-keyboard-response","34","142939","0.0-1.0-45.0","0","0","78845","","null","","","null","4","","","","","","","","","","","","","","","NaN",""
"","S1","","html-keyboard-response","35","143194","0.0-1.0-47.0","0","0","78845","","null","","","null","5","","","","","","","","","","","","","","","",""
"","ISI","","html-keyboard-response","36","144204","0.0-1.0-48.0","0","0","78845","","null","","","null","5","NaN","","","","","","","","","","","","","","",""
"","S2","","html-keyboard-response","37","144466","0.0-1.0-49.0","0","0","78845","","null","","","null","5","","NaN","","","","","","","","","","","","","",""
"","response","","html-keyboard-response","38","144953","0.0-1.0-50.0-0.0","0","0","78845","","486","","","75","5","","","1","5","training","adjacent","CD","3","4","L.jpg","Q.jpg","1","1","1","",""
"","feedback","","html-keyboard-response","39","145963","0.0-1.0-51.0-0.0","0","0","78845","","null","","","null","5","","","","","","","","","","","","","","","",""
"","ITI","","html-keyboard-response","40","146973","0.0-1.0-54.0","0","0","78845","","null","","","null","5","","","","","","","","","","","","","","","NaN",""
"","S1","","html-keyboard-response","41","147234","0.0-1.0-56.0","0","0","78845","","null","","","null","6","","","","","","","","","","","","","","","",""
"","ISI","","html-keyboard-response","42","148244","0.0-1.0-57.0","0","0","78845","","null","","","null","6","NaN","","","","","","","","","","","","","","",""
"","S2","","html-keyboard-response","43","148506","0.0-1.0-58.0","0","0","78845","","null","","","null","6","","NaN","","","","","","","","","","","","","",""
"","response","","html-keyboard-response","44","149234","0.0-1.0-59.0-0.0","0","0","78845","","725","","","68","6","","","1","6","training","adjacent","EF","5","6","M.jpg","N.jpg","0","1","0","",""
"","feedback","","html-keyboard-response","45","150242","0.0-1.0-60.0-0.0","0","0","78845","","null","","","null","6","","","","","","","","","","","","","","","",""
"","time_out","","html-keyboard-response","46","152244","0.0-1.0-62.0-0.0","0","0","78845","","null","","","null","6","","","","","","","","","","","","","","","",""
"","ITI","","html-keyboard-response","47","153248","0.0-1.0-63.0","0","0","78845","","null","","","null","6","","","","","","","","","","","","","","","NaN",""
"","S1","","html-keyboard-response","48","153504","0.0-1.0-65.0","0","0","78845","","null","","","null","7","","","","","","","","","","","","","","","",""
"","ISI","","html-keyboard-response","49","154514","0.0-1.0-66.0","0","0","78845","","null","","","null","7","NaN","","","","","","","","","","","","","","",""
"","S2","","html-keyboard-response","50","154769","0.0-1.0-67.0","0","0","78845","","null","","","null","7","","NaN","","","","","","","","","","","","","",""
"","response","","html-keyboard-response","51","155161","0.0-1.0-68.0-0.0","0","0","78845","","390","","","75","7","","","1","7","training","adjacent","EF","5","6","M.jpg","N.jpg","1","1","1","",""
"","feedback","","html-keyboard-response","52","156168","0.0-1.0-69.0-0.0","0","0","78845","","null","","","null","7","","","","","","","","","","","","","","","",""
"","ITI","","html-keyboard-response","53","157178","0.0-1.0-72.0","0","0","78845","","null","","","null","7","","","","","","","","","","","","","","","NaN",""
"","S1","","html-keyboard-response","54","157433","0.0-1.0-74.0","0","0","78845","","null","","","null","8","","","","","","","","","","","","","","","",""
"","ISI","","html-keyboard-response","55","158445","0.0-1.0-75.0","0","0","78845","","null","","","null","8","NaN","","","","","","","","","","","","","","",""
"","S2","","html-keyboard-response","56","158705","0.0-1.0-76.0","0","0","78845","","null","","","null","8","","NaN","","","","","","","","","","","","","",""
"","response","","html-keyboard-response","57","159241","0.0-1.0-77.0-0.0","0","0","78845","","534","","","68","8","","","1","8","training","adjacent","CB","3","2","L.jpg","P.jpg","0","0","1","",""
"","feedback","","html-keyboard-response","58","160244","0.0-1.0-78.0-0.0","0","0","78845","","null","","","null","8","","","","","","","","","","","","","","","",""
"","ITI","","html-keyboard-response","59","161249","0.0-1.0-81.0","0","0","78845","","null","","","null","8","","","","","","","","","","","","","","","NaN",""
"","S1","","html-keyboard-response","60","161508","0.0-1.0-83.0","0","0","78845","","null","","","null","9","","","","","","","","","","","","","","","",""
"","ISI","","html-keyboard-response","61","162513","0.0-1.0-84.0","0","0","78845","","null","","","null","9","NaN","","","","","","","","","","","","","","",""
"","S2","","html-keyboard-response","62","162768","0.0-1.0-85.0","0","0","78845","","null","","","null","9","","NaN","","","","","","","","","","","","","",""
"","response","","html-keyboard-response","63","163637","0.0-1.0-86.0-0.0","0","0","78845","","867","","","68","9","","","1","9","training","adjacent","CB","3","2","L.jpg","P.jpg","0","0","1","",""
"","feedback","","html-keyboard-response","64","164643","0.0-1.0-87.0-0.0","0","0","78845","","null","","","null","9","","","","","","","","","","","","","","","",""
"","ITI","","html-keyboard-response","65","165648","0.0-1.0-90.0","0","0","78845","","null","","","null","9","","","","","","","","","","","","","","","NaN",""
"","S1","","html-keyboard-response","66","165905","0.0-1.0-92.0","0","0","78845","","null","","","null","10","","","","","","","","","","","","","","","",""
"","ISI","","html-keyboard-response","67","166913","0.0-1.0-93.0","0","0","78845","","null","","","null","10","NaN","","","","","","","","","","","","","","",""
"","S2","","html-keyboard-response","68","167168","0.0-1.0-94.0","0","0","78845","","null","","","null","10","","NaN","","","","","","","","","","","","","",""
"","response","","html-keyboard-response","69","167880","0.0-1.0-95.0-0.0","0","0","78845","","710","","","68","10","","","1","10","training","adjacent","DC","4","3","Q.jpg","L.jpg","0","0","1","",""
"","feedback","","html-keyboard-response","70","168892","0.0-1.0-96.0-0.0","0","0","78845","","null","","","null","10","","","","","","","","","","","","","","","",""
"","ITI","","html-keyboard-response","71","169896","0.0-1.0-99.0","0","0","78845","","null","","","null","10","","","","","","","","","","","","","","","NaN",""
"","S1","","html-keyboard-response","72","170152","0.0-1.0-101.0","0","0","78845","","null","","","null","11","","","","","","","","","","","","","","","",""
"","ISI","","html-keyboard-response","73","171162","0.0-1.0-102.0","0","0","78845","","null","","","null","11","NaN","","","","","","","","","","","","","","",""
"","S2","","html-keyboard-response","74","171416","0.0-1.0-103.0","0","0","78845","","null","","","null","11","","NaN","","","","","","","","","","","","","",""
"","response","","html-keyboard-response","75","171947","0.0-1.0-104.0-0.0","0","0","78845","","529","","","68","11","","","1","11","training","adjacent","BC","2","3","P.jpg","L.jpg","0","1","0","",""
"","feedback","","html-keyboard-response","76","172953","0.0-1.0-105.0-0.0","0","0","78845","","null","","","null","11","","","","","","","","","","","","","","","",""
"","time_out","","html-keyboard-response","77","174962","0.0-1.0-107.0-0.0","0","0","78845","","null","","","null","11","","","","","","","","","","","","","","","",""
"","ITI","","html-keyboard-response","78","175969","0.0-1.0-108.0","0","0","78845","","null","","","null","11","","","","","","","","","","","","","","","NaN",""
"","S1","","html-keyboard-response","79","176224","0.0-1.0-110.0","0","0","78845","","null","","","null","12","","","","","","","","","","","","","","","",""
"","ISI","","html-keyboard-response","80","177234","0.0-1.0-111.0","0","0","78845","","null","","","null","12","NaN","","","","","","","","","","","","","","",""
"","S2","","html-keyboard-response","81","177490","0.0-1.0-112.0","0","0","78845","","null","","","null","12","","NaN","","","","","","","","","","","","","",""
"","response","","html-keyboard-response","82","177897","0.0-1.0-113.0-0.0","0","0","78845","","404","","","68","12","","","1","12","training","adjacent","DC","4","3","Q.jpg","L.jpg","0","0","1","",""
"","feedback","","html-keyboard-response","83","178905","0.0-1.0-114.0-0.0","0","0","78845","","null","","","null","12","","","","","","","","","","","","","","","",""
"","ITI","","html-keyboard-response","84","179915","0.0-1.0-117.0","0","0","78845","","null","","","null","12","","","","","","","","","","","","","","","NaN",""
"","S1","","html-keyboard-response","85","180177","0.0-1.0-119.0","0","0","78845","","null","","","null","13","","","","","","","","","","","","","","","",""
"","ISI","","html-keyboard-response","86","181187","0.0-1.0-120.0","0","0","78845","","null","","","null","13","NaN","","","","","","","","","","","","","","",""
"","S2","","html-keyboard-response","87","181442","0.0-1.0-121.0","0","0","78845","","null","","","null","13","","NaN","","","","","","","","","","","","","",""
"","response","","html-keyboard-response","88","181905","0.0-1.0-122.0-0.0","0","0","78845","","460","","","75","13","","","1","13","training","adjacent","BA","2","1","P.jpg","R.jpg","1","0","0","",""
"","feedback","","html-keyboard-response","89","182911","0.0-1.0-123.0-0.0","0","0","78845","","null","","","null","13","","","","","","","","","","","","","","","",""
"","time_out","","html-keyboard-response","90","184919","0.0-1.0-125.0-0.0","0","0","78845","","null","","","null","13","","","","","","","","","","","","","","","",""
"","ITI","","html-keyboard-response","91","185929","0.0-1.0-126.0","0","0","78845","","null","","","null","13","","","","","","","","","","","","","","","NaN",""
"","S1","","html-keyboard-response","92","186185","0.0-1.0-128.0","0","0","78845","","null","","","null","14","","","","","","","","","","","","","","","",""
"","ISI","","html-keyboard-response","93","187195","0.0-1.0-129.0","0","0","78845","","null","","","null","14","NaN","","","","","","","","","","","","","","",""
"","S2","","html-keyboard-response","94","187456","0.0-1.0-130.0","0","0","78845","","null","","","null","14","","NaN","","","","","","","","","","","","","",""
"","response","","html-keyboard-response","95","187776","0.0-1.0-131.0-0.0","0","0","78845","","318","","","68","14","","","1","14","training","adjacent","ED","5","4","M.jpg","Q.jpg","0","0","1","",""
"","feedback","","html-keyboard-response","96","188785","0.0-1.0-132.0-0.0","0","0","78845","","null","","","null","14","","","","","","","","","","","","","","","",""
"","ITI","","html-keyboard-response","97","189795","0.0-1.0-135.0","0","0","78845","","null","","","null","14","","","","","","","","","","","","","","","NaN",""
"","S1","","html-keyboard-response","98","190056","0.0-1.0-137.0","0","0","78845","","null","","","null","15","","","","","","","","","","","","","","","",""
"","ISI","","html-keyboard-response","99","191067","0.0-1.0-138.0","0","0","78845","","null","","","null","15","NaN","","","","","","","","","","","","","","",""
"","S2","","html-keyboard-response","100","191328","0.0-1.0-139.0","0","0","78845","","null","","","null","15","","NaN","","","","","","","","","","","","","",""
"","response","","html-keyboard-response","101","191851","0.0-1.0-140.0-0.0","0","0","78845","","522","","","68","15","","","1","15","training","adjacent","DC","4","3","Q.jpg","L.jpg","0","0","1","",""
"","feedback","","html-keyboard-response","102","192854","0.0-1.0-141.0-0.0","0","0","78845","","null","","","null","15","","","","","","","","","","","","","","","",""
"","ITI","","html-keyboard-response","103","193865","0.0-1.0-144.0","0","0","78845","","null","","","null","15","","","","","","","","","","","","","","","NaN",""
"","S1","","html-keyboard-response","104","194118","0.0-1.0-146.0","0","0","78845","","null","","","null","16","","","","","","","","","","","","","","","",""
"","ISI","","html-keyboard-response","105","195130","0.0-1.0-147.0","0","0","78845","","null","","","null","16","NaN","","","","","","","","","","","","","","",""
"","S2","","html-keyboard-response","106","195385","0.0-1.0-148.0","0","0","78845","","null","","","null","16","","NaN","","","","","","","","","","","","","",""
"","response","","html-keyboard-response","107","195816","0.0-1.0-149.0-0.0","0","0","78845","","429","","","75","16","","","1","16","training","adjacent","CD","3","4","L.jpg","Q.jpg","1","1","1","",""
"","feedback","","html-keyboard-response","108","196825","0.0-1.0-150.0-0.0","0","0","78845","","null","","","null","16","","","","","","","","","","","","","","","",""
"","ITI","","html-keyboard-response","109","197835","0.0-1.0-153.0","0","0","78845","","null","","","null","16","","","","","","","","","","","","","","","NaN",""
"","S1","","html-keyboard-response","110","198097","0.0-1.0-155.0","0","0","78845","","null","","","null","17","","","","","","","","","","","","","","","",""
"","ISI","","html-keyboard-response","111","199106","0.0-1.0-156.0","0","0","78845","","null","","","null","17","NaN","","","","","","","","","","","","","","",""
"","S2","","html-keyboard-response","112","199367","0.0-1.0-157.0","0","0","78845","","null","","","null","17","","NaN","","","","","","","","","","","","","",""
"","response","","html-keyboard-response","113","200115","0.0-1.0-158.0-0.0","0","0","78845","","745","","","75","17","","","1","17","training","adjacent","EF","5","6","M.jpg","N.jpg","1","1","1","",""
"","feedback","","html-keyboard-response","114","201118","0.0-1.0-159.0-0.0","0","0","78845","","null","","","null","17","","","","","","","","","","","","","","","",""
"","ITI","","html-keyboard-response","115","202129","0.0-1.0-162.0","0","0","78845","","null","","","null","17","","","","","","","","","","","","","","","NaN",""
"","S1","","html-keyboard-response","116","202386","0.0-1.0-164.0","0","0","78845","","null","","","null","18","","","","","","","","","","","","","","","",""
"","ISI","","html-keyboard-response","117","203390","0.0-1.0-165.0","0","0","78845","","null","","","null","18","NaN","","","","","","","","","","","","","","",""
"","S2","","html-keyboard-response","118","203648","0.0-1.0-166.0","0","0","78845","","null","","","null","18","","NaN","","","","","","","","","","","","","",""
"","response","","html-keyboard-response","119","204207","0.0-1.0-167.0-0.0","0","0","78845","","557","","","75","18","","","1","18","training","adjacent","FE","6","5","N.jpg","M.jpg","1","0","0","",""
"","feedback","","html-keyboard-response","120","205219","0.0-1.0-168.0-0.0","0","0","78845","","null","","","null","18","","","","","","","","","","","","","","","",""
"","time_out","","html-keyboard-response","121","207227","0.0-1.0-170.0-0.0","0","0","78845","","null","","","null","18","","","","","","","","","","","","","","","",""
"","ITI","","html-keyboard-response","122","208231","0.0-1.0-171.0","0","0","78845","","null","","","null","18","","","","","","","","","","","","","","","NaN",""
"","S1","","html-keyboard-response","123","208487","0.0-1.0-173.0","0","0","78845","","null","","","null","19","","","","","","","","","","","","","","","",""
"","ISI","","html-keyboard-response","124","209497","0.0-1.0-174.0","0","0","78845","","null","","","null","19","NaN","","","","","","","","","","","","","","",""
"","S2","","html-keyboard-response","125","209751","0.0-1.0-175.0","0","0","78845","","null","","","null","19","","NaN","","","","","","","","","","","","","",""
"","response","","html-keyboard-response","126","210335","0.0-1.0-176.0-0.0","0","0","78845","","582","","","68","19","","","1","19","training","adjacent","DE","4","5","Q.jpg","M.jpg","0","1","0","",""
"","feedback","","html-keyboard-response","127","211343","0.0-1.0-177.0-0.0","0","0","78845","","null","","","null","19","","","","","","","","","","","","","","","",""
"","time_out","","html-keyboard-response","128","213345","0.0-1.0-179.0-0.0","0","0","78845","","null","","","null","19","","","","","","","","","","","","","","","",""
"","ITI","","html-keyboard-response","129","214350","0.0-1.0-180.0","0","0","78845","","null","","","null","19","","","","","","","","","","","","","","","NaN",""
"","S1","","html-keyboard-response","130","214611","0.0-1.0-182.0","0","0","78845","","null","","","null","20","","","","","","","","","","","","","","","",""
"","ISI","","html-keyboard-response","131","215615","0.0-1.0-183.0","0","0","78845","","null","","","null","20","NaN","","","","","","","","","","","","","","",""
"","S2","","html-keyboard-response","132","215870","0.0-1.0-184.0","0","0","78845","","null","","","null","20","","NaN","","","","","","","","","","","","","",""
"","response","","html-keyboard-response","133","216151","0.0-1.0-185.0-0.0","0","0","78845","","279","","","75","20","","","1","20","training","adjacent","AB","1","2","R.jpg","P.jpg","1","1","1","",""
"","feedback","","html-keyboard-response","134","217159","0.0-1.0-186.0-0.0","0","0","78845","","null","","","null","20","","","","","","","","","","","","","","","",""
"","ITI","","html-keyboard-response","135","218169","0.0-1.0-189.0","0","0","78845","","null","","","null","20","","","","","","","","","","","","","","","NaN",""
"","S1","","html-keyboard-response","136","218425","0.0-1.0-191.0","0","0","78845","","null","","","null","21","","","","","","","","","","","","","","","",""
"","ISI","","html-keyboard-response","137","219435","0.0-1.0-192.0","0","0","78845","","null","","","null","21","NaN","","","","","","","","","","","","","","",""
"","S2","","html-keyboard-response","138","219696","0.0-1.0-193.0","0","0","78845","","null","","","null","21","","NaN","","","","","","","","","","","","","",""
"","response","","html-keyboard-response","139","219983","0.0-1.0-194.0-0.0","0","0","78845","","285","","","68","21","","","1","21","training","adjacent","GF","7","6","O.jpg","N.jpg","0","0","1","",""
"","feedback","","html-keyboard-response","140","220990","0.0-1.0-195.0-0.0","0","0","78845","","null","","","null","21","","","","","","","","","","","","","","","",""
"","ITI","","html-keyboard-response","141","222000","0.0-1.0-198.0","0","0","78845","","null","","","null","21","","","","","","","","","","","","","","","NaN",""
"","S1","","html-keyboard-response","142","222256","0.0-1.0-200.0","0","0","78845","","null","","","null","22","","","","","","","","","","","","","","","",""
"","ISI","","html-keyboard-response","143","223265","0.0-1.0-201.0","0","0","78845","","null","","","null","22","NaN","","","","","","","","","","","","","","",""
"","S2","","html-keyboard-response","144","223521","0.0-1.0-202.0","0","0","78845","","null","","","null","22","","NaN","","","","","","","","","","","","","",""
"","response","","html-keyboard-response","145","223983","0.0-1.0-203.0-0.0","0","0","78845","","460","","","75","22","","","1","22","training","adjacent","CD","3","4","L.jpg","Q.jpg","1","1","1","",""
"","feedback","","html-keyboard-response","146","224990","0.0-1.0-204.0-0.0","0","0","78845","","null","","","null","22","","","","","","","","","","","","","","","",""
"","ITI","","html-keyboard-response","147","226000","0.0-1.0-207.0","0","0","78845","","null","","","null","22","","","","","","","","","","","","","","","NaN",""
"","S1","","html-keyboard-response","148","226255","0.0-1.0-209.0","0","0","78845","","null","","","null","23","","","","","","","","","","","","","","","",""
"","ISI","","html-keyboard-response","149","227265","0.0-1.0-210.0","0","0","78845","","null","","","null","23","NaN","","","","","","","","","","","","","","",""
"","S2","","html-keyboard-response","150","227527","0.0-1.0-211.0","0","0","78845","","null","","","null","23","","NaN","","","","","","","","","","","","","",""
"","response","","html-keyboard-response","151","227919","0.0-1.0-212.0-0.0","0","0","78845","","390","","","68","23","","","1","23","training","adjacent","FE","6","5","N.jpg","M.jpg","0","0","1","",""
"","feedback","","html-keyboard-response","152","228926","0.0-1.0-213.0-0.0","0","0","78845","","null","","","null","23","","","","","","","","","","","","","","","",""
"","ITI","","html-keyboard-response","153","229936","0.0-1.0-216.0","0","0","78845","","null","","","null","23","","","","","","","","","","","","","","","NaN",""
"","S1","","html-keyboard-response","154","230191","0.0-1.0-218.0","0","0","78845","","null","","","null","24","","","","","","","","","","","","","","","",""
"","ISI","","html-keyboard-response","155","231201","0.0-1.0-219.0","0","0","78845","","null","","","null","24","NaN","","","","","","","","","","","","","","",""
"","S2","","html-keyboard-response","156","231462","0.0-1.0-220.0","0","0","78845","","null","","","null","24","","NaN","","","","","","","","","","","","","",""
"","response","","html-keyboard-response","157","232074","0.0-1.0-221.0-0.0","0","0","78845","","610","","","68","24","","","1","24","training","adjacent","DE","4","5","Q.jpg","M.jpg","0","1","0","",""
"","feedback","","html-keyboard-response","158","233081","0.0-1.0-222.0-0.0","0","0","78845","","null","","","null","24","","","","","","","","","","","","","","","",""
"","time_out","","html-keyboard-response","159","235090","0.0-1.0-224.0-0.0","0","0","78845","","null","","","null","24","","","","","","","","","","","","","","","",""
"","ITI","","html-keyboard-response","160","236094","0.0-1.0-225.0","0","0","78845","","null","","","null","24","","","","","","","","","","","","","","","NaN",""
"","S1","","html-keyboard-response","161","236350","0.0-1.0-227.0","0","0","78845","","null","","","null","25","","","","","","","","","","","","","","","",""
"","ISI","","html-keyboard-response","162","237360","0.0-1.0-228.0","0","0","78845","","null","","","null","25","NaN","","","","","","","","","","","","","","",""
"","S2","","html-keyboard-response","163","237616","0.0-1.0-229.0","0","0","78845","","null","","","null","25","","NaN","","","","","","","","","","","","","",""
"","response","","html-keyboard-response","164","238126","0.0-1.0-230.0-0.0","0","0","78845","","508","","","75","25","","","1","25","training","adjacent","AB","1","2","R.jpg","P.jpg","1","1","1","",""
"","feedback","","html-keyboard-response","165","239136","0.0-1.0-231.0-0.0","0","0","78845","","null","","","null","25","","","","","","","","","","","","","","","",""
"","ITI","","html-keyboard-response","166","240146","0.0-1.0-234.0","0","0","78845","","null","","","null","25","","","","","","","","","","","","","","","NaN",""
"","S1","","html-keyboard-response","167","240408","0.0-1.0-236.0","0","0","78845","","null","","","null","26","","","","","","","","","","","","","","","",""
"","ISI","","html-keyboard-response","168","241415","0.0-1.0-237.0","0","0","78845","","null","","","null","26","NaN","","","","","","","","","","","","","","",""
"","S2","","html-keyboard-response","169","241673","0.0-1.0-238.0","0","0","78845","","null","","","null","26","","NaN","","","","","","","","","","","","","",""
"","response","","html-keyboard-response","170","242207","0.0-1.0-239.0-0.0","0","0","78845","","532","","","68","26","","","1","26","training","adjacent","BA","2","1","P.jpg","R.jpg","0","0","1","",""
"","feedback","","html-keyboard-response","171","243217","0.0-1.0-240.0-0.0","0","0","78845","","null","","","null","26","","","","","","","","","","","","","","","",""
"","ITI","","html-keyboard-response","172","244221","0.0-1.0-243.0","0","0","78845","","null","","","null","26","","","","","","","","","","","","","","","NaN",""
"","S1","","html-keyboard-response","173","244477","0.0-1.0-245.0","0","0","78845","","null","","","null","27","","","","","","","","","","","","","","","",""
"","ISI","","html-keyboard-response","174","245487","0.0-1.0-246.0","0","0","78845","","null","","","null","27","NaN","","","","","","","","","","","","","","",""
"","S2","","html-keyboard-response","175","245742","0.0-1.0-247.0","0","0","78845","","null","","","null","27","","NaN","","","","","","","","","","","","","",""
"","response","","html-keyboard-response","176","246119","0.0-1.0-248.0-0.0","0","0","78845","","375","","","68","27","","","1","27","training","adjacent","AB","1","2","R.jpg","P.jpg","0","1","0","",""
"","feedback","","html-keyboard-response","177","247128","0.0-1.0-249.0-0.0","0","0","78845","","null","","","null","27","","","","","","","","","","","","","","","",""
"","time_out","","html-keyboard-response","178","249138","0.0-1.0-251.0-0.0","0","0","78845","","null","","","null","27","","","","","","","","","","","","","","","",""
"","ITI","","html-keyboard-response","179","250142","0.0-1.0-252.0","0","0","78845","","null","","","null","27","","","","","","","","","","","","","","","NaN",""
"","S1","","html-keyboard-response","180","250397","0.0-1.0-254.0","0","0","78845","","null","","","null","28","","","","","","","","","","","","","","","",""
"","ISI","","html-keyboard-response","181","251407","0.0-1.0-255.0","0","0","78845","","null","","","null","28","NaN","","","","","","","","","","","","","","",""
"","S2","","html-keyboard-response","182","251663","0.0-1.0-256.0","0","0","78845","","null","","","null","28","","NaN","","","","","","","","","","","","","",""
"","response","","html-keyboard-response","183","252006","0.0-1.0-257.0-0.0","0","0","78845","","341","","","75","28","","","1","28","training","adjacent","BA","2","1","P.jpg","R.jpg","1","0","0","",""
"","feedback","","html-keyboard-response","184","253015","0.0-1.0-258.0-0.0","0","0","78845","","null","","","null","28","","","","","","","","","","","","","","","",""
"","time_out","","html-keyboard-response","185","255024","0.0-1.0-260.0-0.0","0","0","78845","","null","","","null","28","","","","","","","","","","","","","","","",""
"","ITI","","html-keyboard-response","186","256030","0.0-1.0-261.0","0","0","78845","","null","","","null","28","","","","","","","","","","","","","","","NaN",""
"","S1","","html-keyboard-response","187","256289","0.0-1.0-263.0","0","0","78845","","null","","","null","29","","","","","","","","","","","","","","","",""
"","ISI","","html-keyboard-response","188","257294","0.0-1.0-264.0","0","0","78845","","null","","","null","29","NaN","","","","","","","","","","","","","","",""
"","S2","","html-keyboard-response","189","257550","0.0-1.0-265.0","0","0","78845","","null","","","null","29","","NaN","","","","","","","","","","","","","",""
"","response","","html-keyboard-response","190","257575","0.0-1.0-266.0-0.0","0","0","78845","","23","","","68","29","","","1","29","training","adjacent","DE","4","5","Q.jpg","M.jpg","0","1","0","",""
"","feedback","","html-keyboard-response","191","258582","0.0-1.0-267.0-0.0","0","0","78845","","null","","","null","29","","","","","","","","","","","","","","","",""
"","time_out","","html-keyboard-response","192","260591","0.0-1.0-269.0-0.0","0","0","78845","","null","","","null","29","","","","","","","","","","","","","","","",""
"","ITI","","html-keyboard-response","193","261601","0.0-1.0-270.0","0","0","78845","","null","","","null","29","","","","","","","","","","","","","","","NaN",""
"","S1","","html-keyboard-response","194","261862","0.0-1.0-272.0","0","0","78845","","null","","","null","30","","","","","","","","","","","","","","","",""
"","ISI","","html-keyboard-response","195","262872","0.0-1.0-273.0","0","0","78845","","null","","","null","30","NaN","","","","","","","","","","","","","","",""
"","S2","","html-keyboard-response","196","263133","0.0-1.0-274.0","0","0","78845","","null","","","null","30","","NaN","","","","","","","","","","","","","",""
"","response","","html-keyboard-response","197","263406","0.0-1.0-275.0-0.0","0","0","78845","","270","","","75","30","","","1","30","training","adjacent","GF","7","6","O.jpg","N.jpg","1","0","0","",""
"","feedback","","html-keyboard-response","198","264416","0.0-1.0-276.0-0.0","0","0","78845","","null","","","null","30","","","","","","","","","","","","","","","",""
"","time_out","","html-keyboard-response","199","266425","0.0-1.0-278.0-0.0","0","0","78845","","null","","","null","30","","","","","","","","","","","","","","","",""
"","ITI","","html-keyboard-response","200","267429","0.0-1.0-279.0","0","0","78845","","null","","","null","30","","","","","","","","","","","","","","","NaN",""
"","S1","","html-keyboard-response","201","267684","0.0-1.0-281.0","0","0","78845","","null","","","null","31","","","","","","","","","","","","","","","",""
"","ISI","","html-keyboard-response","202","268694","0.0-1.0-282.0","0","0","78845","","null","","","null","31","NaN","","","","","","","","","","","","","","",""
"","S2","","html-keyboard-response","203","268949","0.0-1.0-283.0","0","0","78845","","null","","","null","31","","NaN","","","","","","","","","","","","","",""
"","response","","html-keyboard-response","204","269349","0.0-1.0-284.0-0.0","0","0","78845","","398","","","68","31","","","1","31","training","adjacent","BC","2","3","P.jpg","L.jpg","0","1","0","",""
"","feedback","","html-keyboard-response","205","270359","0.0-1.0-285.0-0.0","0","0","78845","","null","","","null","31","","","","","","","","","","","","","","","",""
"","time_out","","html-keyboard-response","206","272369","0.0-1.0-287.0-0.0","0","0","78845","","null","","","null","31","","","","","","","","","","","","","","","",""
"","ITI","","html-keyboard-response","207","273373","0.0-1.0-288.0","0","0","78845","","null","","","null","31","","","","","","","","","","","","","","","NaN",""
"","S1","","html-keyboard-response","208","273628","0.0-1.0-290.0","0","0","78845","","null","","","null","32","","","","","","","","","","","","","","","",""
"","ISI","","html-keyboard-response","209","274638","0.0-1.0-291.0","0","0","78845","","null","","","null","32","NaN","","","","","","","","","","","","","","",""
"","S2","","html-keyboard-response","210","274894","0.0-1.0-292.0","0","0","78845","","null","","","null","32","","NaN","","","","","","","","","","","","","",""
"","response","","html-keyboard-response","211","275397","0.0-1.0-293.0-0.0","0","0","78845","","501","","","75","32","","","1","32","training","adjacent","CB","3","2","L.jpg","P.jpg","1","0","0","",""
"","feedback","","html-keyboard-response","212","276405","0.0-1.0-294.0-0.0","0","0","78845","","null","","","null","32","","","","","","","","","","","","","","","",""
"","time_out","","html-keyboard-response","213","278417","0.0-1.0-296.0-0.0","0","0","78845","","null","","","null","32","","","","","","","","","","","","","","","",""
"","ITI","","html-keyboard-response","214","279422","0.0-1.0-297.0","0","0","78845","","null","","","null","32","","","","","","","","","","","","","","","NaN",""
"","S1","","html-keyboard-response","215","279677","0.0-1.0-299.0","0","0","78845","","null","","","null","33","","","","","","","","","","","","","","","",""
"","ISI","","html-keyboard-response","216","280687","0.0-1.0-300.0","0","0","78845","","null","","","null","33","NaN","","","","","","","","","","","","","","",""
"","S2","","html-keyboard-response","217","280942","0.0-1.0-301.0","0","0","78845","","null","","","null","33","","NaN","","","","","","","","","","","","","",""
"","response","","html-keyboard-response","218","282016","0.0-1.0-302.0-0.0","0","0","78845","","1072","","","75","33","","","1","33","training","adjacent","AB","1","2","R.jpg","P.jpg","1","1","1","",""
"","feedback","","html-keyboard-response","219","283020","0.0-1.0-303.0-0.0","0","0","78845","","null","","","null","33","","","","","","","","","","","","","","","",""
"","ITI","","html-keyboard-response","220","284030","0.0-1.0-306.0","0","0","78845","","null","","","null","33","","","","","","","","","","","","","","","NaN",""
"","S1","","html-keyboard-response","221","284286","0.0-1.0-308.0","0","0","78845","","null","","","null","34","","","","","","","","","","","","","","","",""
"","ISI","","html-keyboard-response","222","285296","0.0-1.0-309.0","0","0","78845","","null","","","null","34","NaN","","","","","","","","","","","","","","",""
"","S2","","html-keyboard-response","223","285557","0.0-1.0-310.0","0","0","78845","","null","","","null","34","","NaN","","","","","","","","","","","","","",""
"","response","","html-keyboard-response","224","286157","0.0-1.0-311.0-0.0","0","0","78845","","598","","","75","34","","","1","34","training","adjacent","FG","6","7","N.jpg","O.jpg","1","1","1","",""
"","feedback","","html-keyboard-response","225","287165","0.0-1.0-312.0-0.0","0","0","78845","","null","","","null","34","","","","","","","","","","","","","","","",""
"","ITI","","html-keyboard-response","226","288175","0.0-1.0-315.0","0","0","78845","","null","","","null","34","","","","","","","","","","","","","","","NaN",""
"","S1","","html-keyboard-response","227","288430","0.0-1.0-317.0","0","0","78845","","null","","","null","35","","","","","","","","","","","","","","","",""
"","ISI","","html-keyboard-response","228","289441","0.0-1.0-318.0","0","0","78845","","null","","","null","35","NaN","","","","","","","","","","","","","","",""
"","S2","","html-keyboard-response","229","289702","0.0-1.0-319.0","0","0","78845","","null","","","null","35","","NaN","","","","","","","","","","","","","",""
"","response","","html-keyboard-response","230","290192","0.0-1.0-320.0-0.0","0","0","78845","","487","","","75","35","","","1","35","training","adjacent","CD","3","4","L.jpg","Q.jpg","1","1","1","",""
"","feedback","","html-keyboard-response","231","291199","0.0-1.0-321.0-0.0","0","0","78845","","null","","","null","35","","","","","","","","","","","","","","","",""
"","ITI","","html-keyboard-response","232","292203","0.0-1.0-324.0","0","0","78845","","null","","","null","35","","","","","","","","","","","","","","","NaN",""
"","S1","","html-keyboard-response","233","292465","0.0-1.0-326.0","0","0","78845","","null","","","null","36","","","","","","","","","","","","","","","",""
"","ISI","","html-keyboard-response","234","293469","0.0-1.0-327.0","0","0","78845","","null","","","null","36","NaN","","","","","","","","","","","","","","",""
"","S2","","html-keyboard-response","235","293724","0.0-1.0-328.0","0","0","78845","","null","","","null","36","","NaN","","","","","","","","","","","","","",""
"","response","","html-keyboard-response","236","294077","0.0-1.0-329.0-0.0","0","0","78845","","350","","","68","36","","","1","36","training","adjacent","BC","2","3","P.jpg","L.jpg","0","1","0","",""
"","feedback","","html-keyboard-response","237","295084","0.0-1.0-330.0-0.0","0","0","78845","","null","","","null","36","","","","","","","","","","","","","","","",""
"","time_out","","html-keyboard-response","238","297091","0.0-1.0-332.0-0.0","0","0","78845","","null","","","null","36","","","","","","","","","","","","","","","",""
"","ITI","","html-keyboard-response","239","298102","0.0-1.0-333.0","0","0","78845","","675","","","68","36","","","","","","","","","","","","","","","d",""
"","S1","","html-keyboard-response","240","298357","0.0-1.0-335.0","0","0","78845","","null","","","null","37","","","","","","","","","","","","","","","",""
"","ISI","","html-keyboard-response","241","299367","0.0-1.0-336.0","0","0","78845","","null","","","null","37","NaN","","","","","","","","","","","","","","",""
"","S2","","html-keyboard-response","242","299628","0.0-1.0-337.0","0","0","78845","","null","","","null","37","","NaN","","","","","","","","","","","","","",""
"","response","","html-keyboard-response","243","301253","0.0-1.0-338.0-0.0","0","0","78845","","1622","","","75","37","","","1","37","training","adjacent","DC","4","3","Q.jpg","L.jpg","1","0","0","",""
"","feedback","","html-keyboard-response","244","302263","0.0-1.0-339.0-0.0","0","0","78845","","null","","","null","37","","","","","","","","","","","","","","","",""
"","time_out","","html-keyboard-response","245","304272","0.0-1.0-341.0-0.0","0","0","78845","","null","","","null","37","","","","","","","","","","","","","","","",""
"","ITI","","html-keyboard-response","246","305279","0.0-1.0-342.0","0","0","78845","","674","","","68","37","","","","","","","","","","","","","","","d",""
"","S1","","html-keyboard-response","247","305543","0.0-1.0-344.0","0","0","78845","","null","","","null","38","","","","","","","","","","","","","","","",""
"","ISI","","html-keyboard-response","248","306547","0.0-1.0-345.0","0","0","78845","","182","","","68","38","d","","","","","","","","","","","","","","",""
"","S2","","html-keyboard-response","249","306808","0.0-1.0-346.0","0","0","78845","","null","","","null","38","","NaN","","","","","","","","","","","","","",""
"","response","","html-keyboard-response","250","307308","0.0-1.0-347.0-0.0","0","0","78845","","498","","","68","38","","","1","38","training","adjacent","BA","2","1","P.jpg","R.jpg","0","0","1","",""
"","feedback","","html-keyboard-response","251","308315","0.0-1.0-348.0-0.0","0","0","78845","","null","","","null","38","","","","","","","","","","","","","","","",""
"","ITI","","html-keyboard-response","252","309324","0.0-1.0-351.0","0","0","78845","","null","","","null","38","","","","","","","","","","","","","","","NaN",""
"","S1","","html-keyboard-response","253","309583","0.0-1.0-353.0","0","0","78845","","null","","","null","39","","","","","","","","","","","","","","","",""
"","ISI","","html-keyboard-response","254","310587","0.0-1.0-354.0","0","0","78845","","null","","","null","39","NaN","","","","","","","","","","","","","","",""
"","S2","","html-keyboard-response","255","310843","0.0-1.0-355.0","0","0","78845","","null","","","null","39","","NaN","","","","","","","","","","","","","",""
"","response","","html-keyboard-response","256","311309","0.0-1.0-356.0-0.0","0","0","78845","","463","","","75","39","","","1","39","training","adjacent","ED","5","4","M.jpg","Q.jpg","1","0","0","",""
"","feedback","","html-keyboard-response","257","312318","0.0-1.0-357.0-0.0","0","0","78845","","null","","","null","39","","","","","","","","","","","","","","","",""
"","time_out","","html-keyboard-response","258","314326","0.0-1.0-359.0-0.0","0","0","78845","","null","","","null","39","","","","","","","","","","","","","","","",""
"","ITI","","html-keyboard-response","259","315335","0.0-1.0-360.0","0","0","78845","","null","","","null","39","","","","","","","","","","","","","","","NaN",""
"","S1","","html-keyboard-response","260","315597","0.0-1.0-362.0","0","0","78845","","null","","","null","40","","","","","","","","","","","","","","","",""
"","ISI","","html-keyboard-response","261","316607","0.0-1.0-363.0","0","0","78845","","null","","","null","40","NaN","","","","","","","","","","","","","","",""
"","S2","","html-keyboard-response","262","316868","0.0-1.0-364.0","0","0","78845","","null","","","null","40","","NaN","","","","","","","","","","","","","",""
"","response","","html-keyboard-response","263","317063","0.0-1.0-365.0-0.0","0","0","78845","","193","","","75","40","","","1","40","training","adjacent","FG","6","7","N.jpg","O.jpg","1","1","1","",""
"","feedback","","html-keyboard-response","264","318070","0.0-1.0-366.0-0.0","0","0","78845","","null","","","null","40","","","","","","","","","","","","","","","",""
"","ITI","","html-keyboard-response","265","319075","0.0-1.0-369.0","0","0","78845","","null","","","null","40","","","","","","","","","","","","","","","NaN",""
"","S1","","html-keyboard-response","266","319335","0.0-1.0-371.0","0","0","78845","","null","","","null","41","","","","","","","","","","","","","","","",""
"","ISI","","html-keyboard-response","267","320340","0.0-1.0-372.0","0","0","78845","","null","","","null","41","NaN","","","","","","","","","","","","","","",""
"","S2","","html-keyboard-response","268","320595","0.0-1.0-373.0","0","0","78845","","null","","","null","41","","NaN","","","","","","","","","","","","","",""
"","response","","html-keyboard-response","269","322357","0.0-1.0-374.0-0.0","0","0","78845","","null","","","null","41","","","1","41","training","adjacent","ED","5","4","M.jpg","Q.jpg","NaN","0","0","",""
"","too_slow_prompt","","html-keyboard-response","270","323364","0.0-1.0-376.0-0.0","1","0","78845","","null","","","null","","","","","","","","","","","","","","","","",""
"","time_out","","html-keyboard-response","271","325373","0.0-1.0-377.0-0.0","0","0","78845","","null","","","null","41","","","","","","","","","","","","","","","",""
"","ITI","","html-keyboard-response","272","326382","0.0-1.0-378.0","0","0","78845","","null","","","null","41","","","","","","","","","","","","","","","NaN",""
"","S1","","html-keyboard-response","273","326638","0.0-1.0-380.0","0","0","78845","","null","","","null","42","","","","","","","","","","","","","","","",""
"","ISI","","html-keyboard-response","274","327644","0.0-1.0-381.0","0","0","78845","","null","","","null","42","NaN","","","","","","","","","","","","","","",""
"","S2","","html-keyboard-response","275","327900","0.0-1.0-382.0","0","0","78845","","null","","","null","42","","NaN","","","","","","","","","","","","","",""
"","response","","html-keyboard-response","276","328035","0.0-1.0-383.0-0.0","0","0","78845","","133","","","75","42","","","1","42","training","adjacent","FE","6","5","N.jpg","M.jpg","1","0","0","",""
"","feedback","","html-keyboard-response","277","329044","0.0-1.0-384.0-0.0","0","0","78845","","null","","","null","42","","","","","","","","","","","","","","","",""
"","time_out","","html-keyboard-response","278","331053","0.0-1.0-386.0-0.0","0","0","78845","","null","","","null","42","","","","","","","","","","","","","","","",""
"","ITI","","html-keyboard-response","279","332060","0.0-1.0-387.0","0","0","78845","","null","","","null","42","","","","","","","","","","","","","","","NaN",""
"","S1","","html-keyboard-response","280","332315","0.0-1.0-389.0","0","0","78845","","null","","","null","43","","","","","","","","","","","","","","","",""
"","ISI","","html-keyboard-response","281","333325","0.0-1.0-390.0","0","0","78845","","null","","","null","43","NaN","","","","","","","","","","","","","","",""
"","S2","","html-keyboard-response","282","333582","0.0-1.0-391.0","0","0","78845","","null","","","null","43","","NaN","","","","","","","","","","","","","",""
"","response","","html-keyboard-response","283","333871","0.0-1.0-392.0-0.0","0","0","78845","","287","","","75","43","","","1","43","training","adjacent","ED","5","4","M.jpg","Q.jpg","1","0","0","",""
"","feedback","","html-keyboard-response","284","334875","0.0-1.0-393.0-0.0","0","0","78845","","null","","","null","43","","","","","","","","","","","","","","","",""
"","time_out","","html-keyboard-response","285","336883","0.0-1.0-395.0-0.0","0","0","78845","","null","","","null","43","","","","","","","","","","","","","","","",""
"","ITI","","html-keyboard-response","286","337887","0.0-1.0-396.0","0","0","78845","","null","","","null","43","","","","","","","","","","","","","","","NaN",""
"","S1","","html-keyboard-response","287","338143","0.0-1.0-398.0","0","0","78845","","null","","","null","44","","","","","","","","","","","","","","","",""
"","ISI","","html-keyboard-response","288","339147","0.0-1.0-399.0","0","0","78845","","null","","","null","44","NaN","","","","","","","","","","","","","","",""
"","S2","","html-keyboard-response","289","339403","0.0-1.0-400.0","0","0","78845","","null","","","null","44","","NaN","","","","","","","","","","","","","",""
"","response","","html-keyboard-response","290","339572","0.0-1.0-401.0-0.0","0","0","78845","","166","","","68","44","","","1","44","training","adjacent","EF","5","6","M.jpg","N.jpg","0","1","0","",""
"","feedback","","html-keyboard-response","291","340581","0.0-1.0-402.0-0.0","0","0","78845","","null","","","null","44","","","","","","","","","","","","","","","",""
"","time_out","","html-keyboard-response","292","342589","0.0-1.0-404.0-0.0","0","0","78845","","null","","","null","44","","","","","","","","","","","","","","","",""
"","ITI","","html-keyboard-response","293","343594","0.0-1.0-405.0","0","0","78845","","null","","","null","44","","","","","","","","","","","","","","","NaN",""
"","S1","","html-keyboard-response","294","343853","0.0-1.0-407.0","0","0","78845","","null","","","null","45","","","","","","","","","","","","","","","",""
"","ISI","","html-keyboard-response","295","344859","0.0-1.0-408.0","0","0","78845","","null","","","null","45","NaN","","","","","","","","","","","","","","",""
"","S2","","html-keyboard-response","296","345112","0.0-1.0-409.0","0","0","78845","","null","","","null","45","","NaN","","","","","","","","","","","","","",""
"","response","","html-keyboard-response","297","345254","0.0-1.0-410.0-0.0","0","0","78845","","140","","","75","45","","","1","45","training","adjacent","DE","4","5","Q.jpg","M.jpg","1","1","1","",""
"","feedback","","html-keyboard-response","298","346258","0.0-1.0-411.0-0.0","0","0","78845","","null","","","null","45","","","","","","","","","","","","","","","",""
"","ITI","","html-keyboard-response","299","347269","0.0-1.0-414.0","0","0","78845","","null","","","null","45","","","","","","","","","","","","","","","NaN",""
"","S1","","html-keyboard-response","300","347523","0.0-1.0-416.0","0","0","78845","","null","","","null","46","","","","","","","","","","","","","","","",""
"","ISI","","html-keyboard-response","301","348533","0.0-1.0-417.0","0","0","78845","","null","","","null","46","NaN","","","","","","","","","","","","","","",""
"","S2","","html-keyboard-response","302","348795","0.0-1.0-418.0","0","0","78845","","null","","","null","46","","NaN","","","","","","","","","","","","","",""
"","response","","html-keyboard-response","303","348894","0.0-1.0-419.0-0.0","0","0","78845","","96","","","68","46","","","1","46","training","adjacent","CB","3","2","L.jpg","P.jpg","0","0","1","",""
"","feedback","","html-keyboard-response","304","349898","0.0-1.0-420.0-0.0","0","0","78845","","null","","","null","46","","","","","","","","","","","","","","","",""
"","ITI","","html-keyboard-response","305","350908","0.0-1.0-423.0","0","0","78845","","null","","","null","46","","","","","","","","","","","","","","","NaN",""
"","S1","","html-keyboard-response","306","351163","0.0-1.0-425.0","0","0","78845","","null","","","null","47","","","","","","","","","","","","","","","",""
"","ISI","","html-keyboard-response","307","352173","0.0-1.0-426.0","0","0","78845","","null","","","null","47","NaN","","","","","","","","","","","","","","",""
"","S2","","html-keyboard-response","308","352406","0.0-1.0-427.0","0","0","78845","","231","","","75","47","","k","1","47","training","adjacent","FG","6","7","N.jpg","O.jpg","1","1","1","",""
"","feedback","","html-keyboard-response","309","353409","0.0-1.0-429.0-0.0","0","0","78845","","null","","","null","47","","","","","","","","","","","","","","","",""
"","ITI","","html-keyboard-response","310","354420","0.0-1.0-432.0","0","0","78845","","null","","","null","47","","","","","","","","","","","","","","","NaN",""
"","block_over","","html-keyboard-response","311","372304","0.0-1.0-433.0-0.0","0","0","78845","","17882","","","32","47","","","","","","","","","","","","","","","",""
"","S1","","html-keyboard-response","312","372564","0.0-1.0-434.0","0","0","78845","","null","","","null","48","","","","","","","","","","","","","","","",""
"","ISI","","html-keyboard-response","313","373570","0.0-1.0-435.0","0","0","78845","","null","","","null","48","NaN","","","","","","","","","","","","","","",""
"","S2","","html-keyboard-response","314","373825","0.0-1.0-436.0","0","0","78845","","null","","","null","48","","NaN","","","","","","","","","","","","","",""
"","response","","html-keyboard-response","315","374239","0.0-1.0-437.0-0.0","0","0","78845","","412","","","75","48","","","2","48","training","adjacent","GF","7","6","O.jpg","N.jpg","1","0","0","",""
"","feedback","","html-keyboard-response","316","375252","0.0-1.0-438.0-0.0","0","0","78845","","null","","","null","48","","","","","","","","","","","","","","","",""
"","time_out","","html-keyboard-response","317","377260","0.0-1.0-440.0-0.0","0","0","78845","","null","","","null","48","","","","","","","","","","","","","","","",""
"","ITI","","html-keyboard-response","318","378266","0.0-1.0-441.0","0","0","78845","","null","","","null","48","","","","","","","","","","","","","","","NaN",""
"","S1","","html-keyboard-response","319","378521","0.0-1.0-443.0","0","0","78845","","null","","","null","49","","","","","","","","","","","","","","","",""
"","ISI","","html-keyboard-response","320","379531","0.0-1.0-444.0","0","0","78845","","null","","","null","49","NaN","","","","","","","","","","","","","","",""
"","S2","","html-keyboard-response","321","379787","0.0-1.0-445.0","0","0","78845","","null","","","null","49","","NaN","","","","","","","","","","","","","",""
"","response","","html-keyboard-response","322","380049","0.0-1.0-446.0-0.0","0","0","78845","","261","","","75","49","","","2","49","training","adjacent","AB","1","2","R.jpg","P.jpg","1","1","1","",""
"","feedback","","html-keyboard-response","323","381058","0.0-1.0-447.0-0.0","0","0","78845","","null","","","null","49","","","","","","","","","","","","","","","",""
"","ITI","","html-keyboard-response","324","382068","0.0-1.0-450.0","0","0","78845","","null","","","null","49","","","","","","","","","","","","","","","NaN",""
"","S1","","html-keyboard-response","325","382323","0.0-1.0-452.0","0","0","78845","","null","","","null","50","","","","","","","","","","","","","","","",""
"","ISI","","html-keyboard-response","326","383333","0.0-1.0-453.0","0","0","78845","","null","","","null","50","NaN","","","","","","","","","","","","","","",""
"","S2","","html-keyboard-response","327","383595","0.0-1.0-454.0","0","0","78845","","null","","","null","50","","NaN","","","","","","","","","","","","","",""
"","response","","html-keyboard-response","328","383871","0.0-1.0-455.0-0.0","0","0","78845","","275","","","68","50","","","2","50","training","adjacent","CD","3","4","L.jpg","Q.jpg","0","1","0","",""
"","feedback","","html-keyboard-response","329","384883","0.0-1.0-456.0-0.0","0","0","78845","","null","","","null","50","","","","","","","","","","","","","","","",""
"","time_out","","html-keyboard-response","330","386892","0.0-1.0-458.0-0.0","0","0","78845","","null","","","null","50","","","","","","","","","","","","","","","",""
"","ITI","","html-keyboard-response","331","387899","0.0-1.0-459.0","0","0","78845","","null","","","null","50","","","","","","","","","","","","","","","NaN",""
"","S1","","html-keyboard-response","332","388156","0.0-1.0-461.0","0","0","78845","","null","","","null","51","","","","","","","","","","","","","","","",""
"","ISI","","html-keyboard-response","333","389162","0.0-1.0-462.0","0","0","78845","","null","","","null","51","NaN","","","","","","","","","","","","","","",""
"","S2","","html-keyboard-response","334","389417","0.0-1.0-463.0","0","0","78845","","null","","","null","51","","NaN","","","","","","","","","","","","","",""
"","response","","html-keyboard-response","335","389879","0.0-1.0-464.0-0.0","0","0","78845","","460","","","75","51","","","2","51","training","adjacent","ED","5","4","M.jpg","Q.jpg","1","0","0","",""
"","feedback","","html-keyboard-response","336","390891","0.0-1.0-465.0-0.0","0","0","78845","","null","","","null","51","","","","","","","","","","","","","","","",""
"","time_out","","html-keyboard-response","337","392900","0.0-1.0-467.0-0.0","0","0","78845","","null","","","null","51","","","","","","","","","","","","","","","",""
"","ITI","","html-keyboard-response","338","393905","0.0-1.0-468.0","0","0","78845","","null","","","null","51","","","","","","","","","","","","","","","NaN",""
"","S1","","html-keyboard-response","339","394161","0.0-1.0-470.0","0","0","78845","","null","","","null","52","","","","","","","","","","","","","","","",""
"","ISI","","html-keyboard-response","340","395169","0.0-1.0-471.0","0","0","78845","","null","","","null","52","NaN","","","","","","","","","","","","","","",""
"","S2","","html-keyboard-response","341","395425","0.0-1.0-472.0","0","0","78845","","null","","","null","52","","NaN","","","","","","","","","","","","","",""
"","response","","html-keyboard-response","342","396024","0.0-1.0-473.0-0.0","0","0","78845","","596","","","68","52","","","2","52","training","adjacent","BA","2","1","P.jpg","R.jpg","0","0","1","",""
"","feedback","","html-keyboard-response","343","397032","0.0-1.0-474.0-0.0","0","0","78845","","null","","","null","52","","","","","","","","","","","","","","","",""
"","ITI","","html-keyboard-response","344","398037","0.0-1.0-477.0","0","0","78845","","null","","","null","52","","","","","","","","","","","","","","","NaN",""
"","S1","","html-keyboard-response","345","398298","0.0-1.0-479.0","0","0","78845","","null","","","null","53","","","","","","","","","","","","","","","",""
"","ISI","","html-keyboard-response","346","399308","0.0-1.0-480.0","0","0","78845","","null","","","null","53","NaN","","","","","","","","","","","","","","",""
"","S2","","html-keyboard-response","347","399570","0.0-1.0-481.0","0","0","78845","","null","","","null","53","","NaN","","","","","","","","","","","","","",""
"","response","","html-keyboard-response","348","400081","0.0-1.0-482.0-0.0","0","0","78845","","509","","","68","53","","","2","53","training","adjacent","FE","6","5","N.jpg","M.jpg","0","0","1","",""
"","feedback","","html-keyboard-response","349","401090","0.0-1.0-483.0-0.0","0","0","78845","","null","","","null","53","","","","","","","","","","","","","","","",""
"","ITI","","html-keyboard-response","350","402100","0.0-1.0-486.0","0","0","78845","","null","","","null","53","","","","","","","","","","","","","","","NaN",""
"","S1","","html-keyboard-response","351","402361","0.0-1.0-488.0","0","0","78845","","null","","","null","54","","","","","","","","","","","","","","","",""
"","ISI","","html-keyboard-response","352","403372","0.0-1.0-489.0","0","0","78845","","null","","","null","54","NaN","","","","","","","","","","","","","","",""
"","S2","","html-keyboard-response","353","403633","0.0-1.0-490.0","0","0","78845","","null","","","null","54","","NaN","","","","","","","","","","","","","",""
"","response","","html-keyboard-response","354","404511","0.0-1.0-491.0-0.0","0","0","78845","","876","","","75","54","","","2","54","training","adjacent","EF","5","6","M.jpg","N.jpg","1","1","1","",""
"","feedback","","html-keyboard-response","355","405525","0.0-1.0-492.0-0.0","0","0","78845","","null","","","null","54","","","","","","","","","","","","","","","",""
"","ITI","","html-keyboard-response","356","406529","0.0-1.0-495.0","0","0","78845","","null","","","null","54","","","","","","","","","","","","","","","NaN",""
"","S1","","html-keyboard-response","357","406785","0.0-1.0-497.0","0","0","78845","","null","","","null","55","","","","","","","","","","","","","","","",""
"","ISI","","html-keyboard-response","358","407795","0.0-1.0-498.0","0","0","78845","","null","","","null","55","NaN","","","","","","","","","","","","","","",""
"","S2","","html-keyboard-response","359","408050","0.0-1.0-499.0","0","0","78845","","null","","","null","55","","NaN","","","","","","","","","","","","","",""
"","response","","html-keyboard-response","360","408599","0.0-1.0-500.0-0.0","0","0","78845","","547","","","68","55","","","2","55","training","adjacent","BC","2","3","P.jpg","L.jpg","0","1","0","",""
"","feedback","","html-keyboard-response","361","409612","0.0-1.0-501.0-0.0","0","0","78845","","null","","","null","55","","","","","","","","","","","","","","","",""
"","time_out","","html-keyboard-response","362","411620","0.0-1.0-503.0-0.0","0","0","78845","","null","","","null","55","","","","","","","","","","","","","","","",""
"","ITI","","html-keyboard-response","363","412624","0.0-1.0-504.0","0","0","78845","","null","","","null","55","","","","","","","","","","","","","","","NaN",""
"","S1","","html-keyboard-response","364","412880","0.0-1.0-506.0","0","0","78845","","null","","","null","56","","","","","","","","","","","","","","","",""
"","ISI","","html-keyboard-response","365","413884","0.0-1.0-507.0","0","0","78845","","null","","","null","56","NaN","","","","","","","","","","","","","","",""
"","S2","","html-keyboard-response","366","414140","0.0-1.0-508.0","0","0","78845","","null","","","null","56","","NaN","","","","","","","","","","","","","",""
"","response","","html-keyboard-response","367","414601","0.0-1.0-509.0-0.0","0","0","78845","","459","","","68","56","","","2","56","training","adjacent","FE","6","5","N.jpg","M.jpg","0","0","1","",""
"","feedback","","html-keyboard-response","368","415608","0.0-1.0-510.0-0.0","0","0","78845","","null","","","null","56","","","","","","","","","","","","","","","",""
"","ITI","","html-keyboard-response","369","416618","0.0-1.0-513.0","0","0","78845","","null","","","null","56","","","","","","","","","","","","","","","NaN",""
"","S1","","html-keyboard-response","370","416873","0.0-1.0-515.0","0","0","78845","","null","","","null","57","","","","","","","","","","","","","","","",""
"","ISI","","html-keyboard-response","371","417884","0.0-1.0-516.0","0","0","78845","","null","","","null","57","NaN","","","","","","","","","","","","","","",""
"","S2","","html-keyboard-response","372","418139","0.0-1.0-517.0","0","0","78845","","null","","","null","57","","NaN","","","","","","","","","","","","","",""
"","response","","html-keyboard-response","373","418591","0.0-1.0-518.0-0.0","0","0","78845","","449","","","75","57","","","2","57","training","adjacent","BC","2","3","P.jpg","L.jpg","1","1","1","",""
"","feedback","","html-keyboard-response","374","419602","0.0-1.0-519.0-0.0","0","0","78845","","null","","","null","57","","","","","","","","","","","","","","","",""
"","ITI","","html-keyboard-response","375","420612","0.0-1.0-522.0","0","0","78845","","null","","","null","57","","","","","","","","","","","","","","","NaN",""
"","S1","","html-keyboard-response","376","420873","0.0-1.0-524.0","0","0","78845","","null","","","null","58","","","","","","","","","","","","","","","",""
"","ISI","","html-keyboard-response","377","421883","0.0-1.0-525.0","0","0","78845","","null","","","null","58","NaN","","","","","","","","","","","","","","",""
"","S2","","html-keyboard-response","378","422139","0.0-1.0-526.0","0","0","78845","","null","","","null","58","","NaN","","","","","","","","","","","","","",""
"","response","","html-keyboard-response","379","422590","0.0-1.0-527.0-0.0","0","0","78845","","449","","","68","58","","","2","58","training","adjacent","DC","4","3","Q.jpg","L.jpg","0","0","1","",""
"","feedback","","html-keyboard-response","380","423601","0.0-1.0-528.0-0.0","0","0","78845","","null","","","null","58","","","","","","","","","","","","","","","",""
"","ITI","","html-keyboard-response","381","424611","0.0-1.0-531.0","0","0","78845","","null","","","null","58","","","","","","","","","","","","","","","NaN",""
"","S1","","html-keyboard-response","382","424873","0.0-1.0-533.0","0","0","78845","","null","","","null","59","","","","","","","","","","","","","","","",""
"","ISI","","html-keyboard-response","383","425883","0.0-1.0-534.0","0","0","78845","","null","","","null","59","NaN","","","","","","","","","","","","","","",""
"","S2","","html-keyboard-response","384","426138","0.0-1.0-535.0","0","0","78845","","null","","","null","59","","NaN","","","","","","","","","","","","","",""
"","response","","html-keyboard-response","385","426758","0.0-1.0-536.0-0.0","0","0","78845","","618","","","75","59","","","2","59","training","adjacent","EF","5","6","M.jpg","N.jpg","1","1","1","",""
"","feedback","","html-keyboard-response","386","427769","0.0-1.0-537.0-0.0","0","0","78845","","null","","","null","59","","","","","","","","","","","","","","","",""
"","ITI","","html-keyboard-response","387","428779","0.0-1.0-540.0","0","0","78845","","null","","","null","59","","","","","","","","","","","","","","","NaN",""
"","S1","","html-keyboard-response","388","429035","0.0-1.0-542.0","0","0","78845","","null","","","null","60","","","","","","","","","","","","","","","",""
"","ISI","","html-keyboard-response","389","430039","0.0-1.0-543.0","0","0","78845","","null","","","null","60","NaN","","","","","","","","","","","","","","",""
"","S2","","html-keyboard-response","390","430300","0.0-1.0-544.0","0","0","78845","","null","","","null","60","","NaN","","","","","","","","","","","","","",""
"","response","","html-keyboard-response","391","430742","0.0-1.0-545.0-0.0","0","0","78845","","440","","","68","60","","","2","60","training","adjacent","BC","2","3","P.jpg","L.jpg","0","1","0","",""
"","feedback","","html-keyboard-response","392","431751","0.0-1.0-546.0-0.0","0","0","78845","","null","","","null","60","","","","","","","","","","","","","","","",""
"","time_out","","html-keyboard-response","393","433760","0.0-1.0-548.0-0.0","0","0","78845","","null","","","null","60","","","","","","","","","","","","","","","",""
"","ITI","","html-keyboard-response","394","434770","0.0-1.0-549.0","0","0","78845","","null","","","null","60","","","","","","","","","","","","","","","NaN",""
"","S1","","html-keyboard-response","395","435025","0.0-1.0-551.0","0","0","78845","","null","","","null","61","","","","","","","","","","","","","","","",""
"","ISI","","html-keyboard-response","396","436035","0.0-1.0-552.0","0","0","78845","","null","","","null","61","NaN","","","","","","","","","","","","","","",""
"","S2","","html-keyboard-response","397","436297","0.0-1.0-553.0","0","0","78845","","null","","","null","61","","NaN","","","","","","","","","","","","","",""
"","response","","html-keyboard-response","398","436606","0.0-1.0-554.0-0.0","0","0","78845","","307","","","75","61","","","2","61","training","adjacent","EF","5","6","M.jpg","N.jpg","1","1","1","",""
"","feedback","","html-keyboard-response","399","437620","0.0-1.0-555.0-0.0","0","0","78845","","null","","","null","61","","","","","","","","","","","","","","","",""
"","ITI","","html-keyboard-response","400","438624","0.0-1.0-558.0","0","0","78845","","null","","","null","61","","","","","","","","","","","","","","","NaN",""
"","S1","","html-keyboard-response","401","438879","0.0-1.0-560.0","0","0","78845","","null","","","null","62","","","","","","","","","","","","","","","",""
"","ISI","","html-keyboard-response","402","439884","0.0-1.0-561.0","0","0","78845","","null","","","null","62","NaN","","","","","","","","","","","","","","",""
"","S2","","html-keyboard-response","403","440139","0.0-1.0-562.0","0","0","78845","","null","","","null","62","","NaN","","","","","","","","","","","","","",""
"","response","","html-keyboard-response","404","441898","0.0-1.0-563.0-0.0","0","0","78845","","null","","","null","62","","","2","62","training","adjacent","CB","3","2","L.jpg","P.jpg","NaN","0","0","",""
"","too_slow_prompt","","html-keyboard-response","405","442908","0.0-1.0-565.0-0.0","1","0","78845","","null","","","null","","","","","","","","","","","","","","","","",""
"","time_out","","html-keyboard-response","406","444911","0.0-1.0-566.0-0.0","0","0","78845","","null","","","null","62","","","","","","","","","","","","","","","",""
"","ITI","","html-keyboard-response","407","445921","0.0-1.0-567.0","0","0","78845","","null","","","null","62","","","","","","","","","","","","","","","NaN",""
"","S1","","html-keyboard-response","408","446176","0.0-1.0-569.0","0","0","78845","","null","","","null","63","","","","","","","","","","","","","","","",""
"","ISI","","html-keyboard-response","409","447186","0.0-1.0-570.0","0","0","78845","","null","","","null","63","NaN","","","","","","","","","","","","","","",""
"","S2","","html-keyboard-response","410","447447","0.0-1.0-571.0","0","0","78845","","null","","","null","63","","NaN","","","","","","","","","","","","","",""
"","response","","html-keyboard-response","411","447560","0.0-1.0-572.0-0.0","0","0","78845","","111","","","68","63","","","2","63","training","adjacent","CB","3","2","L.jpg","P.jpg","0","0","1","",""
"","feedback","","html-keyboard-response","412","448568","0.0-1.0-573.0-0.0","0","0","78845","","null","","","null","63","","","","","","","","","","","","","","","",""
"","ITI","","html-keyboard-response","413","449578","0.0-1.0-576.0","0","0","78845","","null","","","null","63","","","","","","","","","","","","","","","NaN",""
"","S1","","html-keyboard-response","414","449833","0.0-1.0-578.0","0","0","78845","","null","","","null","64","","","","","","","","","","","","","","","",""
"","ISI","","html-keyboard-response","415","450840","0.0-1.0-579.0","0","0","78845","","null","","","null","64","NaN","","","","","","","","","","","","","","",""
"","S2","","html-keyboard-response","416","451097","0.0-1.0-580.0","0","0","78845","","null","","","null","64","","NaN","","","","","","","","","","","","","",""
"","response","","html-keyboard-response","417","451422","0.0-1.0-581.0-0.0","0","0","78845","","323","","","75","64","","","2","64","training","adjacent","BC","2","3","P.jpg","L.jpg","1","1","1","",""
"","feedback","","html-keyboard-response","418","452434","0.0-1.0-582.0-0.0","0","0","78845","","null","","","null","64","","","","","","","","","","","","","","","",""
"","ITI","","html-keyboard-response","419","453439","0.0-1.0-585.0","0","0","78845","","null","","","null","64","","","","","","","","","","","","","","","NaN",""
"","S1","","html-keyboard-response","420","453699","0.0-1.0-587.0","0","0","78845","","null","","","null","65","","","","","","","","","","","","","","","",""
"","ISI","","html-keyboard-response","421","454704","0.0-1.0-588.0","0","0","78845","","null","","","null","65","NaN","","","","","","","","","","","","","","",""
"","S2","","html-keyboard-response","422","454959","0.0-1.0-589.0","0","0","78845","","null","","","null","65","","NaN","","","","","","","","","","","","","",""
"","response","","html-keyboard-response","423","455288","0.0-1.0-590.0-0.0","0","0","78845","","327","","","75","65","","","2","65","training","adjacent","GF","7","6","O.jpg","N.jpg","1","0","0","",""
"","feedback","","html-keyboard-response","424","456299","0.0-1.0-591.0-0.0","0","0","78845","","null","","","null","65","","","","","","","","","","","","","","","",""
"","time_out","","html-keyboard-response","425","458302","0.0-1.0-593.0-0.0","0","0","78845","","null","","","null","65","","","","","","","","","","","","","","","",""
"","ITI","","html-keyboard-response","426","459312","0.0-1.0-594.0","0","0","78845","","null","","","null","65","","","","","","","","","","","","","","","NaN",""
"","S1","","html-keyboard-response","427","459568","0.0-1.0-596.0","0","0","78845","","null","","","null","66","","","","","","","","","","","","","","","",""
"","ISI","","html-keyboard-response","428","460578","0.0-1.0-597.0","0","0","78845","","null","","","null","66","NaN","","","","","","","","","","","","","","",""
"","S2","","html-keyboard-response","429","460833","0.0-1.0-598.0","0","0","78845","","null","","","null","66","","NaN","","","","","","","","","","","","","",""
"","response","","html-keyboard-response","430","461145","0.0-1.0-599.0-0.0","0","0","78845","","310","","","68","66","","","2","66","training","adjacent","DE","4","5","Q.jpg","M.jpg","0","1","0","",""
"","feedback","","html-keyboard-response","431","462151","0.0-1.0-600.0-0.0","0","0","78845","","null","","","null","66","","","","","","","","","","","","","","","",""
"","time_out","","html-keyboard-response","432","464160","0.0-1.0-602.0-0.0","0","0","78845","","null","","","null","66","","","","","","","","","","","","","","","",""
"","ITI","","html-keyboard-response","433","465169","0.0-1.0-603.0","0","0","78845","","null","","","null","66","","","","","","","","","","","","","","","NaN",""
"","S1","","html-keyboard-response","434","465425","0.0-1.0-605.0","0","0","78845","","null","","","null","67","","","","","","","","","","","","","","","",""
"","ISI","","html-keyboard-response","435","466435","0.0-1.0-606.0","0","0","78845","","null","","","null","67","NaN","","","","","","","","","","","","","","",""
"","S2","","html-keyboard-response","436","466696","0.0-1.0-607.0","0","0","78845","","null","","","null","67","","NaN","","","","","","","","","","","","","",""
"","response","","html-keyboard-response","437","466795","0.0-1.0-608.0-0.0","0","0","78845","","97","","","75","67","","","2","67","training","adjacent","FE","6","5","N.jpg","M.jpg","1","0","0","",""
"","feedback","","html-keyboard-response","438","467799","0.0-1.0-609.0-0.0","0","0","78845","","null","","","null","67","","","","","","","","","","","","","","","",""
"","time_out","","html-keyboard-response","439","469809","0.0-1.0-611.0-0.0","0","0","78845","","null","","","null","67","","","","","","","","","","","","","","","",""
"","ITI","","html-keyboard-response","440","470820","0.0-1.0-612.0","0","0","78845","","null","","","null","67","","","","","","","","","","","","","","","NaN",""
"","S1","","html-keyboard-response","441","471081","0.0-1.0-614.0","0","0","78845","","null","","","null","68","","","","","","","","","","","","","","","",""
"","ISI","","html-keyboard-response","442","472092","0.0-1.0-615.0","0","0","78845","","null","","","null","68","NaN","","","","","","","","","","","","","","",""
"","S2","","html-keyboard-response","443","472346","0.0-1.0-616.0","0","0","78845","","null","","","null","68","","NaN","","","","","","","","","","","","","",""
"","response","","html-keyboard-response","444","472660","0.0-1.0-617.0-0.0","0","0","78845","","311","","","75","68","","","2","68","training","adjacent","DC","4","3","Q.jpg","L.jpg","1","0","0","",""
"","feedback","","html-keyboard-response","445","473666","0.0-1.0-618.0-0.0","0","0","78845","","null","","","null","68","","","","","","","","","","","","","","","",""
"","time_out","","html-keyboard-response","446","475676","0.0-1.0-620.0-0.0","0","0","78845","","null","","","null","68","","","","","","","","","","","","","","","",""
"","ITI","","html-keyboard-response","447","476685","0.0-1.0-621.0","0","0","78845","","null","","","null","68","","","","","","","","","","","","","","","NaN",""
"","S1","","html-keyboard-response","448","476942","0.0-1.0-623.0","0","0","78845","","null","","","null","69","","","","","","","","","","","","","","","",""
"","ISI","","html-keyboard-response","449","477950","0.0-1.0-624.0","0","0","78845","","null","","","null","69","NaN","","","","","","","","","","","","","","",""
"","S2","","html-keyboard-response","450","478209","0.0-1.0-625.0","0","0","78845","","null","","","null","69","","NaN","","","","","","","","","","","","","",""
"","response","","html-keyboard-response","451","478566","0.0-1.0-626.0-0.0","0","0","78845","","355","","","68","69","","","2","69","training","adjacent","DE","4","5","Q.jpg","M.jpg","0","1","0","",""
"","feedback","","html-keyboard-response","452","479573","0.0-1.0-627.0-0.0","0","0","78845","","null","","","null","69","","","","","","","","","","","","","","","",""
"","time_out","","html-keyboard-response","453","481582","0.0-1.0-629.0-0.0","0","0","78845","","null","","","null","69","","","","","","","","","","","","","","","",""
"","ITI","","html-keyboard-response","454","482592","0.0-1.0-630.0","0","0","78845","","null","","","null","69","","","","","","","","","","","","","","","NaN",""
"","S1","","html-keyboard-response","455","482847","0.0-1.0-632.0","0","0","78845","","null","","","null","70","","","","","","","","","","","","","","","",""
"","ISI","","html-keyboard-response","456","483857","0.0-1.0-633.0","0","0","78845","","null","","","null","70","NaN","","","","","","","","","","","","","","",""
"","S2","","html-keyboard-response","457","484114","0.0-1.0-634.0","0","0","78845","","null","","","null","70","","NaN","","","","","","","","","","","","","",""
"","response","","html-keyboard-response","458","484463","0.0-1.0-635.0-0.0","0","0","78845","","347","","","68","70","","","2","70","training","adjacent","DE","4","5","Q.jpg","M.jpg","0","1","0","",""
"","feedback","","html-keyboard-response","459","485472","0.0-1.0-636.0-0.0","0","0","78845","","null","","","null","70","","","","","","","","","","","","","","","",""
"","time_out","","html-keyboard-response","460","487482","0.0-1.0-638.0-0.0","0","0","78845","","null","","","null","70","","","","","","","","","","","","","","","",""
"","ITI","","html-keyboard-response","461","488492","0.0-1.0-639.0","0","0","78845","","null","","","null","70","","","","","","","","","","","","","","","NaN",""
"","S1","","html-keyboard-response","462","488747","0.0-1.0-641.0","0","0","78845","","null","","","null","71","","","","","","","","","","","","","","","",""
"","ISI","","html-keyboard-response","463","489752","0.0-1.0-642.0","0","0","78845","","null","","","null","71","NaN","","","","","","","","","","","","","","",""
"","S2","","html-keyboard-response","464","490008","0.0-1.0-643.0","0","0","78845","","null","","","null","71","","NaN","","","","","","","","","","","","","",""
"","response","","html-keyboard-response","465","491369","0.0-1.0-644.0-0.0","0","0","78845","","1359","","","68","71","","","2","71","training","adjacent","GF","7","6","O.jpg","N.jpg","0","0","1","",""
"","feedback","","html-keyboard-response","466","492380","0.0-1.0-645.0-0.0","0","0","78845","","null","","","null","71","","","","","","","","","","","","","","","",""
"","ITI","","html-keyboard-response","467","493386","0.0-1.0-648.0","0","0","78845","","null","","","null","71","","","","","","","","","","","","","","","NaN",""
"","S1","","html-keyboard-response","468","493641","0.0-1.0-650.0","0","0","78845","","null","","","null","72","","","","","","","","","","","","","","","",""
"","ISI","","html-keyboard-response","469","494650","0.0-1.0-651.0","0","0","78845","","null","","","null","72","NaN","","","","","","","","","","","","","","",""
"","S2","","html-keyboard-response","470","494907","0.0-1.0-652.0","0","0","78845","","null","","","null","72","","NaN","","","","","","","","","","","","","",""
"","response","","html-keyboard-response","471","495540","0.0-1.0-653.0-0.0","0","0","78845","","631","","","75","72","","","2","72","training","adjacent","FG","6","7","N.jpg","O.jpg","1","1","1","",""
"","feedback","","html-keyboard-response","472","496545","0.0-1.0-654.0-0.0","0","0","78845","","null","","","null","72","","","","","","","","","","","","","","","",""
"","ITI","","html-keyboard-response","473","497549","0.0-1.0-657.0","0","0","78845","","null","","","null","72","","","","","","","","","","","","","","","NaN",""
"","S1","","html-keyboard-response","474","497810","0.0-1.0-659.0","0","0","78845","","null","","","null","73","","","","","","","","","","","","","","","",""
"","ISI","","html-keyboard-response","475","498820","0.0-1.0-660.0","0","0","78845","","null","","","null","73","NaN","","","","","","","","","","","","","","",""
"","S2","","html-keyboard-response","476","499081","0.0-1.0-661.0","0","0","78845","","null","","","null","73","","NaN","","","","","","","","","","","","","",""
"","response","","html-keyboard-response","477","500144","0.0-1.0-662.0-0.0","0","0","78845","","1061","","","75","73","","","2","73","training","adjacent","BA","2","1","P.jpg","R.jpg","1","0","0","",""
"","feedback","","html-keyboard-response","478","501148","0.0-1.0-663.0-0.0","0","0","78845","","null","","","null","73","","","","","","","","","","","","","","","",""
"","time_out","","html-keyboard-response","479","503155","0.0-1.0-665.0-0.0","0","0","78845","","null","","","null","73","","","","","","","","","","","","","","","",""
"","ITI","","html-keyboard-response","480","504161","0.0-1.0-666.0","0","0","78845","","null","","","null","73","","","","","","","","","","","","","","","NaN",""
"","S1","","html-keyboard-response","481","504422","0.0-1.0-668.0","0","0","78845","","null","","","null","74","","","","","","","","","","","","","","","",""
"","ISI","","html-keyboard-response","482","505427","0.0-1.0-669.0","0","0","78845","","null","","","null","74","NaN","","","","","","","","","","","","","","",""
"","S2","","html-keyboard-response","483","505682","0.0-1.0-670.0","0","0","78845","","null","","","null","74","","NaN","","","","","","","","","","","","","",""
"","response","","html-keyboard-response","484","506084","0.0-1.0-671.0-0.0","0","0","78845","","400","","","75","74","","","2","74","training","adjacent","CD","3","4","L.jpg","Q.jpg","1","1","1","",""
"","feedback","","html-keyboard-response","485","507093","0.0-1.0-672.0-0.0","0","0","78845","","null","","","null","74","","","","","","","","","","","","","","","",""
"","ITI","","html-keyboard-response","486","508098","0.0-1.0-675.0","0","0","78845","","null","","","null","74","","","","","","","","","","","","","","","NaN",""
"","S1","","html-keyboard-response","487","508354","0.0-1.0-677.0","0","0","78845","","null","","","null","75","","","","","","","","","","","","","","","",""
"","ISI","","html-keyboard-response","488","509363","0.0-1.0-678.0","0","0","78845","","null","","","null","75","NaN","","","","","","","","","","","","","","",""
"","S2","","html-keyboard-response","489","509618","0.0-1.0-679.0","0","0","78845","","null","","","null","75","","NaN","","","","","","","","","","","","","",""
"","response","","html-keyboard-response","490","510068","0.0-1.0-680.0-0.0","0","0","78845","","448","","","68","75","","","2","75","training","adjacent","DC","4","3","Q.jpg","L.jpg","0","0","1","",""
"","feedback","","html-keyboard-response","491","511079","0.0-1.0-681.0-0.0","0","0","78845","","null","","","null","75","","","","","","","","","","","","","","","",""
"","ITI","","html-keyboard-response","492","512086","0.0-1.0-684.0","0","0","78845","","null","","","null","75","","","","","","","","","","","","","","","NaN",""
"","S1","","html-keyboard-response","493","512347","0.0-1.0-686.0","0","0","78845","","null","","","null","76","","","","","","","","","","","","","","","",""
"","ISI","","html-keyboard-response","494","513350","0.0-1.0-687.0","0","0","78845","","null","","","null","76","NaN","","","","","","","","","","","","","","",""
"","S2","","html-keyboard-response","495","513612","0.0-1.0-688.0","0","0","78845","","null","","","null","76","","NaN","","","","","","","","","","","","","",""
"","response","","html-keyboard-response","496","514020","0.0-1.0-689.0-0.0","0","0","78845","","406","","","75","76","","","2","76","training","adjacent","FG","6","7","N.jpg","O.jpg","1","1","1","",""
"","feedback","","html-keyboard-response","497","515029","0.0-1.0-690.0-0.0","0","0","78845","","null","","","null","76","","","","","","","","","","","","","","","",""
"","ITI","","html-keyboard-response","498","516039","0.0-1.0-693.0","0","0","78845","","null","","","null","76","","","","","","","","","","","","","","","NaN",""
"","S1","","html-keyboard-response","499","516301","0.0-1.0-695.0","0","0","78845","","null","","","null","77","","","","","","","","","","","","","","","",""
"","ISI","","html-keyboard-response","500","517310","0.0-1.0-696.0","0","0","78845","","null","","","null","77","NaN","","","","","","","","","","","","","","",""
"","S2","","html-keyboard-response","501","517571","0.0-1.0-697.0","0","0","78845","","null","","","null","77","","NaN","","","","","","","","","","","","","",""
"","response","","html-keyboard-response","502","517968","0.0-1.0-698.0-0.0","0","0","78845","","394","","","75","77","","","2","77","training","adjacent","CD","3","4","L.jpg","Q.jpg","1","1","1","",""
"","feedback","","html-keyboard-response","503","518982","0.0-1.0-699.0-0.0","0","0","78845","","null","","","null","77","","","","","","","","","","","","","","","",""
"","ITI","","html-keyboard-response","504","519986","0.0-1.0-702.0","0","0","78845","","null","","","null","77","","","","","","","","","","","","","","","NaN",""
"","S1","","html-keyboard-response","505","520245","0.0-1.0-704.0","0","0","78845","","null","","","null","78","","","","","","","","","","","","","","","",""
"","ISI","","html-keyboard-response","506","521251","0.0-1.0-705.0","0","0","78845","","null","","","null","78","NaN","","","","","","","","","","","","","","",""
"","S2","","html-keyboard-response","507","521507","0.0-1.0-706.0","0","0","78845","","null","","","null","78","","NaN","","","","","","","","","","","","","",""
"","response","","html-keyboard-response","508","522228","0.0-1.0-707.0-0.0","0","0","78845","","718","","","68","78","","","2","78","training","adjacent","BA","2","1","P.jpg","R.jpg","0","0","1","",""
"","feedback","","html-keyboard-response","509","523237","0.0-1.0-708.0-0.0","0","0","78845","","null","","","null","78","","","","","","","","","","","","","","","",""
"","ITI","","html-keyboard-response","510","524244","0.0-1.0-711.0","0","0","78845","","null","","","null","78","","","","","","","","","","","","","","","NaN",""
"","S1","","html-keyboard-response","511","524502","0.0-1.0-713.0","0","0","78845","","null","","","null","79","","","","","","","","","","","","","","","",""
"","ISI","","html-keyboard-response","512","525507","0.0-1.0-714.0","0","0","78845","","null","","","null","79","NaN","","","","","","","","","","","","","","",""
"","S2","","html-keyboard-response","513","525762","0.0-1.0-715.0","0","0","78845","","null","","","null","79","","NaN","","","","","","","","","","","","","",""
"","response","","html-keyboard-response","514","526172","0.0-1.0-716.0-0.0","0","0","78845","","408","","","75","79","","","2","79","training","adjacent","AB","1","2","R.jpg","P.jpg","1","1","1","",""
"","feedback","","html-keyboard-response","515","527178","0.0-1.0-717.0-0.0","0","0","78845","","null","","","null","79","","","","","","","","","","","","","","","",""
"","ITI","","html-keyboard-response","516","528189","0.0-1.0-720.0","0","0","78845","","null","","","null","79","","","","","","","","","","","","","","","NaN",""
"","S1","","html-keyboard-response","517","528444","0.0-1.0-722.0","0","0","78845","","null","","","null","80","","","","","","","","","","","","","","","",""
"","ISI","","html-keyboard-response","518","529451","0.0-1.0-723.0","0","0","78845","","null","","","null","80","NaN","","","","","","","","","","","","","","",""
"","S2","","html-keyboard-response","519","529709","0.0-1.0-724.0","0","0","78845","","null","","","null","80","","NaN","","","","","","","","","","","","","",""
"","response","","html-keyboard-response","520","530351","0.0-1.0-725.0-0.0","0","0","78845","","640","","","75","80","","","2","80","training","adjacent","FE","6","5","N.jpg","M.jpg","1","0","0","",""
"","feedback","","html-keyboard-response","521","531356","0.0-1.0-726.0-0.0","0","0","78845","","null","","","null","80","","","","","","","","","","","","","","","",""
"","time_out","","html-keyboard-response","522","533362","0.0-1.0-728.0-0.0","0","0","78845","","null","","","null","80","","","","","","","","","","","","","","","",""
"","ITI","","html-keyboard-response","523","534371","0.0-1.0-729.0","0","0","78845","","null","","","null","80","","","","","","","","","","","","","","","NaN",""
"","S1","","html-keyboard-response","524","534626","0.0-1.0-731.0","0","0","78845","","null","","","null","81","","","","","","","","","","","","","","","",""
"","ISI","","html-keyboard-response","525","535636","0.0-1.0-732.0","0","0","78845","","null","","","null","81","NaN","","","","","","","","","","","","","","",""
"","S2","","html-keyboard-response","526","535896","0.0-1.0-733.0","0","0","78845","","null","","","null","81","","NaN","","","","","","","","","","","","","",""
"","response","","html-keyboard-response","527","536469","0.0-1.0-734.0-0.0","0","0","78845","","570","","","75","81","","","2","81","training","adjacent","ED","5","4","M.jpg","Q.jpg","1","0","0","",""
"","feedback","","html-keyboard-response","528","537477","0.0-1.0-735.0-0.0","0","0","78845","","null","","","null","81","","","","","","","","","","","","","","","",""
"","time_out","","html-keyboard-response","529","539485","0.0-1.0-737.0-0.0","0","0","78845","","null","","","null","81","","","","","","","","","","","","","","","",""
"","ITI","","html-keyboard-response","530","540491","0.0-1.0-738.0","0","0","78845","","null","","","null","81","","","","","","","","","","","","","","","NaN",""
"","S1","","html-keyboard-response","531","540751","0.0-1.0-740.0","0","0","78845","","null","","","null","82","","","","","","","","","","","","","","","",""
"","ISI","","html-keyboard-response","532","541755","0.0-1.0-741.0","0","0","78845","","null","","","null","82","NaN","","","","","","","","","","","","","","",""
"","S2","","html-keyboard-response","533","542010","0.0-1.0-742.0","0","0","78845","","null","","","null","82","","NaN","","","","","","","","","","","","","",""
"","response","","html-keyboard-response","534","542381","0.0-1.0-743.0-0.0","0","0","78845","","367","","","68","82","","","2","82","training","adjacent","GF","7","6","O.jpg","N.jpg","0","0","1","",""
"","feedback","","html-keyboard-response","535","543386","0.0-1.0-744.0-0.0","0","0","78845","","null","","","null","82","","","","","","","","","","","","","","","",""
"","ITI","","html-keyboard-response","536","544396","0.0-1.0-747.0","0","0","78845","","null","","","null","82","","","","","","","","","","","","","","","NaN",""
"","S1","","html-keyboard-response","537","544651","0.0-1.0-749.0","0","0","78845","","null","","","null","83","","","","","","","","","","","","","","","",""
"","ISI","","html-keyboard-response","538","545661","0.0-1.0-750.0","0","0","78845","","null","","","null","83","NaN","","","","","","","","","","","","","","",""
"","S2","","html-keyboard-response","539","545923","0.0-1.0-751.0","0","0","78845","","null","","","null","83","","NaN","","","","","","","","","","","","","",""
"","response","","html-keyboard-response","540","546327","0.0-1.0-752.0-0.0","0","0","78845","","402","","","68","83","","","2","83","training","adjacent","DE","4","5","Q.jpg","M.jpg","0","1","0","",""
"","feedback","","html-keyboard-response","541","547334","0.0-1.0-753.0-0.0","0","0","78845","","null","","","null","83","","","","","","","","","","","","","","","",""
"","time_out","","html-keyboard-response","542","549342","0.0-1.0-755.0-0.0","0","0","78845","","null","","","null","83","","","","","","","","","","","","","","","",""
"","ITI","","html-keyboard-response","543","550346","0.0-1.0-756.0","0","0","78845","","null","","","null","83","","","","","","","","","","","","","","","NaN",""
"","S1","","html-keyboard-response","544","550602","0.0-1.0-758.0","0","0","78845","","null","","","null","84","","","","","","","","","","","","","","","",""
"","ISI","","html-keyboard-response","545","551612","0.0-1.0-759.0","0","0","78845","","null","","","null","84","NaN","","","","","","","","","","","","","","",""
"","S2","","html-keyboard-response","546","551867","0.0-1.0-760.0","0","0","78845","","null","","","null","84","","NaN","","","","","","","","","","","","","",""
"","response","","html-keyboard-response","547","552268","0.0-1.0-761.0-0.0","0","0","78845","","399","","","75","84","","","2","84","training","adjacent","CB","3","2","L.jpg","P.jpg","1","0","0","",""
"","feedback","","html-keyboard-response","548","553278","0.0-1.0-762.0-0.0","0","0","78845","","null","","","null","84","","","","","","","","","","","","","","","",""
"","time_out","","html-keyboard-response","549","555286","0.0-1.0-764.0-0.0","0","0","78845","","null","","","null","84","","","","","","","","","","","","","","","",""
"","ITI","","html-keyboard-response","550","556290","0.0-1.0-765.0","0","0","78845","","null","","","null","84","","","","","","","","","","","","","","","NaN",""
"","S1","","html-keyboard-response","551","556546","0.0-1.0-767.0","0","0","78845","","null","","","null","85","","","","","","","","","","","","","","","",""
"","ISI","","html-keyboard-response","552","557550","0.0-1.0-768.0","0","0","78845","","null","","","null","85","NaN","","","","","","","","","","","","","","",""
"","S2","","html-keyboard-response","553","557811","0.0-1.0-769.0","0","0","78845","","null","","","null","85","","NaN","","","","","","","","","","","","","",""
"","response","","html-keyboard-response","554","558375","0.0-1.0-770.0-0.0","0","0","78845","","562","","","75","85","","","2","85","training","adjacent","AB","1","2","R.jpg","P.jpg","1","1","1","",""
"","feedback","","html-keyboard-response","555","559390","0.0-1.0-771.0-0.0","0","0","78845","","null","","","null","85","","","","","","","","","","","","","","","",""
"","ITI","","html-keyboard-response","556","560395","0.0-1.0-774.0","0","0","78845","","null","","","null","85","","","","","","","","","","","","","","","NaN",""
"","S1","","html-keyboard-response","557","560650","0.0-1.0-776.0","0","0","78845","","null","","","null","86","","","","","","","","","","","","","","","",""
"","ISI","","html-keyboard-response","558","561660","0.0-1.0-777.0","0","0","78845","","null","","","null","86","NaN","","","","","","","","","","","","","","",""
"","S2","","html-keyboard-response","559","561915","0.0-1.0-778.0","0","0","78845","","null","","","null","86","","NaN","","","","","","","","","","","","","",""
"","response","","html-keyboard-response","560","562540","0.0-1.0-779.0-0.0","0","0","78845","","623","","","75","86","","","2","86","training","adjacent","AB","1","2","R.jpg","P.jpg","1","1","1","",""
"","feedback","","html-keyboard-response","561","563546","0.0-1.0-780.0-0.0","0","0","78845","","null","","","null","86","","","","","","","","","","","","","","","",""
"","ITI","","html-keyboard-response","562","564554","0.0-1.0-783.0","0","0","78845","","null","","","null","86","","","","","","","","","","","","","","","NaN",""
"","S1","","html-keyboard-response","563","564812","0.0-1.0-785.0","0","0","78845","","null","","","null","87","","","","","","","","","","","","","","","",""
"","ISI","","html-keyboard-response","564","565822","0.0-1.0-786.0","0","0","78845","","null","","","null","87","NaN","","","","","","","","","","","","","","",""
"","S2","","html-keyboard-response","565","566083","0.0-1.0-787.0","0","0","78845","","null","","","null","87","","NaN","","","","","","","","","","","","","",""
"","response","","html-keyboard-response","566","566540","0.0-1.0-788.0-0.0","0","0","78845","","455","","","68","87","","","2","87","training","adjacent","EF","5","6","M.jpg","N.jpg","0","1","0","",""
"","feedback","","html-keyboard-response","567","567546","0.0-1.0-789.0-0.0","0","0","78845","","null","","","null","87","","","","","","","","","","","","","","","",""
"","time_out","","html-keyboard-response","568","569548","0.0-1.0-791.0-0.0","0","0","78845","","null","","","null","87","","","","","","","","","","","","","","","",""
"","ITI","","html-keyboard-response","569","570554","0.0-1.0-792.0","0","0","78845","","null","","","null","87","","","","","","","","","","","","","","","NaN",""
"","S1","","html-keyboard-response","570","570814","0.0-1.0-794.0","0","0","78845","","null","","","null","88","","","","","","","","","","","","","","","",""
"","ISI","","html-keyboard-response","571","571819","0.0-1.0-795.0","0","0","78845","","null","","","null","88","NaN","","","","","","","","","","","","","","",""
"","S2","","html-keyboard-response","572","572074","0.0-1.0-796.0","0","0","78845","","null","","","null","88","","NaN","","","","","","","","","","","","","",""
"","response","","html-keyboard-response","573","572476","0.0-1.0-797.0-0.0","0","0","78845","","400","","","75","88","","","2","88","training","adjacent","CB","3","2","L.jpg","P.jpg","1","0","0","",""
"","feedback","","html-keyboard-response","574","573484","0.0-1.0-798.0-0.0","0","0","78845","","null","","","null","88","","","","","","","","","","","","","","","",""
"","time_out","","html-keyboard-response","575","575493","0.0-1.0-800.0-0.0","0","0","78845","","null","","","null","88","","","","","","","","","","","","","","","",""
"","ITI","","html-keyboard-response","576","576498","0.0-1.0-801.0","0","0","78845","","null","","","null","88","","","","","","","","","","","","","","","NaN",""
"","S1","","html-keyboard-response","577","576755","0.0-1.0-803.0","0","0","78845","","null","","","null","89","","","","","","","","","","","","","","","",""
"","ISI","","html-keyboard-response","578","577763","0.0-1.0-804.0","0","0","78845","","null","","","null","89","NaN","","","","","","","","","","","","","","",""
"","S2","","html-keyboard-response","579","578018","0.0-1.0-805.0","0","0","78845","","null","","","null","89","","NaN","","","","","","","","","","","","","",""
"","response","","html-keyboard-response","580","578231","0.0-1.0-806.0-0.0","0","0","78845","","210","","","75","89","","","2","89","training","adjacent","CD","3","4","L.jpg","Q.jpg","1","1","1","",""
"","feedback","","html-keyboard-response","581","579237","0.0-1.0-807.0-0.0","0","0","78845","","null","","","null","89","","","","","","","","","","","","","","","",""
"","ITI","","html-keyboard-response","582","580241","0.0-1.0-810.0","0","0","78845","","null","","","null","89","","","","","","","","","","","","","","","NaN",""
