"success","ttype","start_time","trial_type","trial_index","time_elapsed","internal_node_id","warning","missed_checkup","PID","view_history","rt","responses","repeat_instructions","key_press","index","keypress_isi","keypress_S2","block","trial_num","phase","group_type","pair_type","S1_stim","S2_stim","S1_img","S2_img","S1_chosen","S1_higher","accuracy","keypress_iti","total_bonus_tally"
"true","full_screen","d04072023hr0314","fullscreen","0","12709","0.0-0.0","0","0","88517","","","","","","","","","","","","","","","","","","","","","",""
"","instructions","","instructions","1","55407","0.0-1.0-0.0-0.0","0","0","88517","[{""page_index"":0,""viewing_time"":5702},{""page_index"":1,""viewing_time"":22799},{""page_index"":2,""viewing_time"":11639},{""page_index"":3,""viewing_time"":2555}]","42695","","","","","","","","","","","","","","","","","","","",""
"","comprehension_check","","survey-multi-choice","2","85436","0.0-1.0-0.0-1.0","0","0","88517","","30023","{""Q0"":""True"",""Q1"":""K"",""Q2"":""Once the second image appears and while the screen 'MAKE A CHOICE' is shown"",""Q3"":""Green mark"",""Q4"":""either D or K""}","0","","","","","","","","","","","","","","","","","",""
"","start_exp","","html-keyboard-response","3","108859","0.0-1.0-1.0","0","0","88517","","23418","","","32","","","","","","","","","","","","","","","","",""
"","S1","","html-keyboard-response","4","109018","0.0-1.0-2.0","0","0","88517","","null","","","null","0","","","","","","","","","","","","","","","",""
"","ISI","","html-keyboard-response","5","111030","0.0-1.0-3.0","0","0","88517","","null","","","null","0","NaN","","","","","","","","","","","","","","",""
"","S2","","html-keyboard-response","6","111194","0.0-1.0-4.0","0","0","88517","","null","","","null","0","","NaN","","","","","","","","","","","","","",""
"","response","","html-keyboard-response","7","111739","0.0-1.0-5.0-0.0","0","0","88517","","541","","","68","0","","","1","0","training","adjacent","BC","2","3","R.jpg","O.jpg","0","1","0","",""
"","feedback","","html-keyboard-response","8","112755","0.0-1.0-6.0-0.0","0","0","88517","","null","","","null","0","","","","","","","","","","","","","","","",""
"","time_out","","html-keyboard-response","9","114765","0.0-1.0-8.0-0.0","0","0","88517","","null","","","null","0","","","","","","","","","","","","","","","",""
"","ITI","","html-keyboard-response","10","115769","0.0-1.0-9.0","0","0","88517","","null","","","null","0","","","","","","","","","","","","","","","NaN",""
"","S1","","html-keyboard-response","11","115925","0.0-1.0-11.0","0","0","88517","","null","","","null","1","","","","","","","","","","","","","","","",""
"","ISI","","html-keyboard-response","12","117935","0.0-1.0-12.0","0","0","88517","","null","","","null","1","NaN","","","","","","","","","","","","","","",""
"","S2","","html-keyboard-response","13","118095","0.0-1.0-13.0","0","0","88517","","null","","","null","1","","NaN","","","","","","","","","","","","","",""
"","response","","html-keyboard-response","14","118898","0.0-1.0-14.0-0.0","0","0","88517","","799","","","75","1","","","1","1","training","adjacent","FG","6","7","Q.jpg","P.jpg","1","1","1","",""
"","feedback","","html-keyboard-response","15","119910","0.0-1.0-15.0-0.0","0","0","88517","","null","","","null","1","","","","","","","","","","","","","","","",""
"","ITI","","html-keyboard-response","16","120926","0.0-1.0-18.0","0","0","88517","","null","","","null","1","","","","","","","","","","","","","","","NaN",""
"","S1","","html-keyboard-response","17","121091","0.0-1.0-20.0","0","0","88517","","null","","","null","2","","","","","","","","","","","","","","","",""
"","ISI","","html-keyboard-response","18","123101","0.0-1.0-21.0","0","0","88517","","null","","","null","2","NaN","","","","","","","","","","","","","","",""
"","S2","","html-keyboard-response","19","123270","0.0-1.0-22.0","0","0","88517","","null","","","null","2","","NaN","","","","","","","","","","","","","",""
"","response","","html-keyboard-response","20","123862","0.0-1.0-23.0-0.0","0","0","88517","","589","","","75","2","","","1","2","training","adjacent","ED","5","4","N.jpg","L.jpg","1","0","0","",""
"","feedback","","html-keyboard-response","21","124881","0.0-1.0-24.0-0.0","0","0","88517","","null","","","null","2","","","","","","","","","","","","","","","",""
"","time_out","","html-keyboard-response","22","126890","0.0-1.0-26.0-0.0","0","0","88517","","null","","","null","2","","","","","","","","","","","","","","","",""
"","ITI","","html-keyboard-response","23","127902","0.0-1.0-27.0","0","0","88517","","null","","","null","2","","","","","","","","","","","","","","","NaN",""
"","S1","","html-keyboard-response","24","128061","0.0-1.0-29.0","0","0","88517","","null","","","null","3","","","","","","","","","","","","","","","",""
"","ISI","","html-keyboard-response","25","130070","0.0-1.0-30.0","0","0","88517","","null","","","null","3","NaN","","","","","","","","","","","","","","",""
"","S2","","html-keyboard-response","26","130232","0.0-1.0-31.0","0","0","88517","","null","","","null","3","","NaN","","","","","","","","","","","","","",""
"","response","","html-keyboard-response","27","130855","0.0-1.0-32.0-0.0","0","0","88517","","621","","","68","3","","","1","3","training","adjacent","CB","3","2","O.jpg","R.jpg","0","0","1","",""
"","feedback","","html-keyboard-response","28","131861","0.0-1.0-33.0-0.0","0","0","88517","","null","","","null","3","","","","","","","","","","","","","","","",""
"","ITI","","html-keyboard-response","29","132881","0.0-1.0-36.0","0","0","88517","","null","","","null","3","","","","","","","","","","","","","","","NaN",""
"","S1","","html-keyboard-response","30","133043","0.0-1.0-38.0","0","0","88517","","null","","","null","4","","","","","","","","","","","","","","","",""
"","ISI","","html-keyboard-response","31","135055","0.0-1.0-39.0","0","0","88517","","null","","","null","4","NaN","","","","","","","","","","","","","","",""
"","S2","","html-keyboard-response","32","135226","0.0-1.0-40.0","0","0","88517","","null","","","null","4","","NaN","","","","","","","","","","","","","",""
"","response","","html-keyboard-response","33","135744","0.0-1.0-41.0-0.0","0","0","88517","","514","","","75","4","","","1","4","training","adjacent","BC","2","3","R.jpg","O.jpg","1","1","1","",""
"","feedback","","html-keyboard-response","34","136753","0.0-1.0-42.0-0.0","0","0","88517","","null","","","null","4","","","","","","","","","","","","","","","",""
"","ITI","","html-keyboard-response","35","137762","0.0-1.0-45.0","0","0","88517","","null","","","null","4","","","","","","","","","","","","","","","NaN",""
"","S1","","html-keyboard-response","36","137922","0.0-1.0-47.0","0","0","88517","","null","","","null","5","","","","","","","","","","","","","","","",""
"","ISI","","html-keyboard-response","37","139932","0.0-1.0-48.0","0","0","88517","","null","","","null","5","NaN","","","","","","","","","","","","","","",""
"","S2","","html-keyboard-response","38","140093","0.0-1.0-49.0","0","0","88517","","null","","","null","5","","NaN","","","","","","","","","","","","","",""
"","response","","html-keyboard-response","39","140480","0.0-1.0-50.0-0.0","0","0","88517","","383","","","68","5","","","1","5","training","adjacent","EF","5","6","N.jpg","Q.jpg","0","1","0","",""
"","feedback","","html-keyboard-response","40","141496","0.0-1.0-51.0-0.0","0","0","88517","","null","","","null","5","","","","","","","","","","","","","","","",""
"","time_out","","html-keyboard-response","41","143515","0.0-1.0-53.0-0.0","0","0","88517","","null","","","null","5","","","","","","","","","","","","","","","",""
"","ITI","","html-keyboard-response","42","144521","0.0-1.0-54.0","0","0","88517","","null","","","null","5","","","","","","","","","","","","","","","NaN",""
"","S1","","html-keyboard-response","43","144693","0.0-1.0-56.0","0","0","88517","","null","","","null","6","","","","","","","","","","","","","","","",""
"","ISI","","html-keyboard-response","44","146701","0.0-1.0-57.0","0","0","88517","","null","","","null","6","NaN","","","","","","","","","","","","","","",""
"","S2","","html-keyboard-response","45","146863","0.0-1.0-58.0","0","0","88517","","null","","","null","6","","NaN","","","","","","","","","","","","","",""
"","response","","html-keyboard-response","46","147139","0.0-1.0-59.0-0.0","0","0","88517","","272","","","75","6","","","1","6","training","adjacent","GF","7","6","P.jpg","Q.jpg","1","0","0","",""
"","feedback","","html-keyboard-response","47","148146","0.0-1.0-60.0-0.0","0","0","88517","","null","","","null","6","","","","","","","","","","","","","","","",""
"","time_out","","html-keyboard-response","48","150160","0.0-1.0-62.0-0.0","0","0","88517","","null","","","null","6","","","","","","","","","","","","","","","",""
"","ITI","","html-keyboard-response","49","151171","0.0-1.0-63.0","0","0","88517","","null","","","null","6","","","","","","","","","","","","","","","NaN",""
"","S1","","html-keyboard-response","50","151332","0.0-1.0-65.0","0","0","88517","","null","","","null","7","","","","","","","","","","","","","","","",""
"","ISI","","html-keyboard-response","51","153341","0.0-1.0-66.0","0","0","88517","","null","","","null","7","NaN","","","","","","","","","","","","","","",""
"","S2","","html-keyboard-response","52","153501","0.0-1.0-67.0","0","0","88517","","null","","","null","7","","NaN","","","","","","","","","","","","","",""
"","response","","html-keyboard-response","53","153900","0.0-1.0-68.0-0.0","0","0","88517","","397","","","75","7","","","1","7","training","adjacent","GF","7","6","P.jpg","Q.jpg","1","0","0","",""
"","feedback","","html-keyboard-response","54","154906","0.0-1.0-69.0-0.0","0","0","88517","","null","","","null","7","","","","","","","","","","","","","","","",""
"","time_out","","html-keyboard-response","55","156913","0.0-1.0-71.0-0.0","0","0","88517","","null","","","null","7","","","","","","","","","","","","","","","",""
"","ITI","","html-keyboard-response","56","157916","0.0-1.0-72.0","0","0","88517","","null","","","null","7","","","","","","","","","","","","","","","NaN",""
"","S1","","html-keyboard-response","57","158075","0.0-1.0-74.0","0","0","88517","","null","","","null","8","","","","","","","","","","","","","","","",""
"","ISI","","html-keyboard-response","58","160086","0.0-1.0-75.0","0","0","88517","","null","","","null","8","NaN","","","","","","","","","","","","","","",""
"","S2","","html-keyboard-response","59","160256","0.0-1.0-76.0","0","0","88517","","null","","","null","8","","NaN","","","","","","","","","","","","","",""
"","response","","html-keyboard-response","60","160737","0.0-1.0-77.0-0.0","0","0","88517","","478","","","75","8","","","1","8","training","adjacent","FG","6","7","Q.jpg","P.jpg","1","1","1","",""
"","feedback","","html-keyboard-response","61","161749","0.0-1.0-78.0-0.0","0","0","88517","","null","","","null","8","","","","","","","","","","","","","","","",""
"","ITI","","html-keyboard-response","62","162758","0.0-1.0-81.0","0","0","88517","","null","","","null","8","","","","","","","","","","","","","","","NaN",""
"","S1","","html-keyboard-response","63","162914","0.0-1.0-83.0","0","0","88517","","null","","","null","9","","","","","","","","","","","","","","","",""
"","ISI","","html-keyboard-response","64","164924","0.0-1.0-84.0","0","0","88517","","null","","","null","9","NaN","","","","","","","","","","","","","","",""
"","S2","","html-keyboard-response","65","165079","0.0-1.0-85.0","0","0","88517","","null","","","null","9","","NaN","","","","","","","","","","","","","",""
"","response","","html-keyboard-response","66","165471","0.0-1.0-86.0-0.0","0","0","88517","","388","","","68","9","","","1","9","training","adjacent","DE","4","5","L.jpg","N.jpg","0","1","0","",""
"","feedback","","html-keyboard-response","67","166485","0.0-1.0-87.0-0.0","0","0","88517","","null","","","null","9","","","","","","","","","","","","","","","",""
"","time_out","","html-keyboard-response","68","168491","0.0-1.0-89.0-0.0","0","0","88517","","null","","","null","9","","","","","","","","","","","","","","","",""
"","ITI","","html-keyboard-response","69","169504","0.0-1.0-90.0","0","0","88517","","null","","","null","9","","","","","","","","","","","","","","","NaN",""
"","S1","","html-keyboard-response","70","169663","0.0-1.0-92.0","0","0","88517","","null","","","null","10","","","","","","","","","","","","","","","",""
"","ISI","","html-keyboard-response","71","171675","0.0-1.0-93.0","0","0","88517","","null","","","null","10","NaN","","","","","","","","","","","","","","",""
"","S2","","html-keyboard-response","72","171844","0.0-1.0-94.0","0","0","88517","","null","","","null","10","","NaN","","","","","","","","","","","","","",""
"","response","","html-keyboard-response","73","172258","0.0-1.0-95.0-0.0","0","0","88517","","411","","","75","10","","","1","10","training","adjacent","CD","3","4","O.jpg","L.jpg","1","1","1","",""
"","feedback","","html-keyboard-response","74","173270","0.0-1.0-96.0-0.0","0","0","88517","","null","","","null","10","","","","","","","","","","","","","","","",""
"","ITI","","html-keyboard-response","75","174275","0.0-1.0-99.0","0","0","88517","","null","","","null","10","","","","","","","","","","","","","","","NaN",""
"","S1","","html-keyboard-response","76","174433","0.0-1.0-101.0","0","0","88517","","null","","","null","11","","","","","","","","","","","","","","","",""
"","ISI","","html-keyboard-response","77","176446","0.0-1.0-102.0","0","0","88517","","null","","","null","11","NaN","","","","","","","","","","","","","","",""
"","S2","","html-keyboard-response","78","176616","0.0-1.0-103.0","0","0","88517","","null","","","null","11","","NaN","","","","","","","","","","","","","",""
"","response","","html-keyboard-response","79","177056","0.0-1.0-104.0-0.0","0","0","88517","","437","","","68","11","","","1","11","training","adjacent","FE","6","5","Q.jpg","N.jpg","0","0","1","",""
"","feedback","","html-keyboard-response","80","178061","0.0-1.0-105.0-0.0","0","0","88517","","null","","","null","11","","","","","","","","","","","","","","","",""
"","ITI","","html-keyboard-response","81","179075","0.0-1.0-108.0","0","0","88517","","null","","","null","11","","","","","","","","","","","","","","","NaN",""
"","S1","","html-keyboard-response","82","179240","0.0-1.0-110.0","0","0","88517","","null","","","null","12","","","","","","","","","","","","","","","",""
"","ISI","","html-keyboard-response","83","181258","0.0-1.0-111.0","0","0","88517","","null","","","null","12","NaN","","","","","","","","","","","","","","",""
"","S2","","html-keyboard-response","84","181422","0.0-1.0-112.0","0","0","88517","","null","","","null","12","","NaN","","","","","","","","","","","","","",""
"","response","","html-keyboard-response","85","181763","0.0-1.0-113.0-0.0","0","0","88517","","338","","","68","12","","","1","12","training","adjacent","FG","6","7","Q.jpg","P.jpg","0","1","0","",""
"","feedback","","html-keyboard-response","86","182780","0.0-1.0-114.0-0.0","0","0","88517","","null","","","null","12","","","","","","","","","","","","","","","",""
"","time_out","","html-keyboard-response","87","184789","0.0-1.0-116.0-0.0","0","0","88517","","null","","","null","12","","","","","","","","","","","","","","","",""
"","ITI","","html-keyboard-response","88","185795","0.0-1.0-117.0","0","0","88517","","null","","","null","12","","","","","","","","","","","","","","","NaN",""
"","S1","","html-keyboard-response","89","185951","0.0-1.0-119.0","0","0","88517","","null","","","null","13","","","","","","","","","","","","","","","",""
"","ISI","","html-keyboard-response","90","187955","0.0-1.0-120.0","0","0","88517","","null","","","null","13","NaN","","","","","","","","","","","","","","",""
"","S2","","html-keyboard-response","91","188120","0.0-1.0-121.0","0","0","88517","","null","","","null","13","","NaN","","","","","","","","","","","","","",""
"","response","","html-keyboard-response","92","188288","0.0-1.0-122.0-0.0","0","0","88517","","165","","","75","13","","","1","13","training","adjacent","AB","1","2","M.jpg","R.jpg","1","1","1","",""
"","feedback","","html-keyboard-response","93","189295","0.0-1.0-123.0-0.0","0","0","88517","","null","","","null","13","","","","","","","","","","","","","","","",""
"","ITI","","html-keyboard-response","94","190309","0.0-1.0-126.0","0","0","88517","","null","","","null","13","","","","","","","","","","","","","","","NaN",""
"","S1","","html-keyboard-response","95","190472","0.0-1.0-128.0","0","0","88517","","null","","","null","14","","","","","","","","","","","","","","","",""
"","ISI","","html-keyboard-response","96","192480","0.0-1.0-129.0","0","0","88517","","null","","","null","14","NaN","","","","","","","","","","","","","","",""
"","S2","","html-keyboard-response","97","192642","0.0-1.0-130.0","0","0","88517","","null","","","null","14","","NaN","","","","","","","","","","","","","",""
"","response","","html-keyboard-response","98","192934","0.0-1.0-131.0-0.0","0","0","88517","","289","","","75","14","","","1","14","training","adjacent","GF","7","6","P.jpg","Q.jpg","1","0","0","",""
"","feedback","","html-keyboard-response","99","193952","0.0-1.0-132.0-0.0","0","0","88517","","null","","","null","14","","","","","","","","","","","","","","","",""
"","time_out","","html-keyboard-response","100","195955","0.0-1.0-134.0-0.0","0","0","88517","","null","","","null","14","","","","","","","","","","","","","","","",""
"","ITI","","html-keyboard-response","101","196967","0.0-1.0-135.0","0","0","88517","","null","","","null","14","","","","","","","","","","","","","","","NaN",""
"","S1","","html-keyboard-response","102","197132","0.0-1.0-137.0","0","0","88517","","null","","","null","15","","","","","","","","","","","","","","","",""
"","ISI","","html-keyboard-response","103","199151","0.0-1.0-138.0","0","0","88517","","null","","","null","15","NaN","","","","","","","","","","","","","","",""
"","S2","","html-keyboard-response","104","199314","0.0-1.0-139.0","0","0","88517","","null","","","null","15","","NaN","","","","","","","","","","","","","",""
"","response","","html-keyboard-response","105","199827","0.0-1.0-140.0-0.0","0","0","88517","","509","","","68","15","","","1","15","training","adjacent","FE","6","5","Q.jpg","N.jpg","0","0","1","",""
"","feedback","","html-keyboard-response","106","200832","0.0-1.0-141.0-0.0","0","0","88517","","null","","","null","15","","","","","","","","","","","","","","","",""
"","ITI","","html-keyboard-response","107","201851","0.0-1.0-144.0","0","0","88517","","null","","","null","15","","","","","","","","","","","","","","","NaN",""
"","S1","","html-keyboard-response","108","202010","0.0-1.0-146.0","0","0","88517","","null","","","null","16","","","","","","","","","","","","","","","",""
"","ISI","","html-keyboard-response","109","204016","0.0-1.0-147.0","0","0","88517","","null","","","null","16","NaN","","","","","","","","","","","","","","",""
"","S2","","html-keyboard-response","110","204173","0.0-1.0-148.0","0","0","88517","","null","","","null","16","","NaN","","","","","","","","","","","","","",""
"","response","","html-keyboard-response","111","204704","0.0-1.0-149.0-0.0","0","0","88517","","527","","","75","16","","","1","16","training","adjacent","DE","4","5","L.jpg","N.jpg","1","1","1","",""
"","feedback","","html-keyboard-response","112","205720","0.0-1.0-150.0-0.0","0","0","88517","","null","","","null","16","","","","","","","","","","","","","","","",""
"","ITI","","html-keyboard-response","113","206730","0.0-1.0-153.0","0","0","88517","","null","","","null","16","","","","","","","","","","","","","","","NaN",""
"","S1","","html-keyboard-response","114","206887","0.0-1.0-155.0","0","0","88517","","null","","","null","17","","","","","","","","","","","","","","","",""
"","ISI","","html-keyboard-response","115","208894","0.0-1.0-156.0","0","0","88517","","null","","","null","17","NaN","","","","","","","","","","","","","","",""
"","S2","","html-keyboard-response","116","209050","0.0-1.0-157.0","0","0","88517","","null","","","null","17","","NaN","","","","","","","","","","","","","",""
"","response","","html-keyboard-response","117","209600","0.0-1.0-158.0-0.0","0","0","88517","","548","","","68","17","","","1","17","training","adjacent","BA","2","1","R.jpg","M.jpg","0","0","1","",""
"","feedback","","html-keyboard-response","118","210611","0.0-1.0-159.0-0.0","0","0","88517","","null","","","null","17","","","","","","","","","","","","","","","",""
"","ITI","","html-keyboard-response","119","211628","0.0-1.0-162.0","0","0","88517","","null","","","null","17","","","","","","","","","","","","","","","NaN",""
"","S1","","html-keyboard-response","120","211795","0.0-1.0-164.0","0","0","88517","","null","","","null","18","","","","","","","","","","","","","","","",""
"","ISI","","html-keyboard-response","121","213809","0.0-1.0-165.0","0","0","88517","","null","","","null","18","NaN","","","","","","","","","","","","","","",""
"","S2","","html-keyboard-response","122","213973","0.0-1.0-166.0","0","0","88517","","null","","","null","18","","NaN","","","","","","","","","","","","","",""
"","response","","html-keyboard-response","123","214542","0.0-1.0-167.0-0.0","0","0","88517","","566","","","68","18","","","1","18","training","adjacent","CD","3","4","O.jpg","L.jpg","0","1","0","",""
"","feedback","","html-keyboard-response","124","215552","0.0-1.0-168.0-0.0","0","0","88517","","null","","","null","18","","","","","","","","","","","","","","","",""
"","time_out","","html-keyboard-response","125","217568","0.0-1.0-170.0-0.0","0","0","88517","","null","","","null","18","","","","","","","","","","","","","","","",""
"","ITI","","html-keyboard-response","126","218580","0.0-1.0-171.0","0","0","88517","","null","","","null","18","","","","","","","","","","","","","","","NaN",""
"","S1","","html-keyboard-response","127","218747","0.0-1.0-173.0","0","0","88517","","null","","","null","19","","","","","","","","","","","","","","","",""
"","ISI","","html-keyboard-response","128","220757","0.0-1.0-174.0","0","0","88517","","null","","","null","19","NaN","","","","","","","","","","","","","","",""
"","S2","","html-keyboard-response","129","220921","0.0-1.0-175.0","0","0","88517","","null","","","null","19","","NaN","","","","","","","","","","","","","",""
"","response","","html-keyboard-response","130","221351","0.0-1.0-176.0-0.0","0","0","88517","","427","","","75","19","","","1","19","training","adjacent","GF","7","6","P.jpg","Q.jpg","1","0","0","",""
"","feedback","","html-keyboard-response","131","222360","0.0-1.0-177.0-0.0","0","0","88517","","null","","","null","19","","","","","","","","","","","","","","","",""
"","time_out","","html-keyboard-response","132","224365","0.0-1.0-179.0-0.0","0","0","88517","","null","","","null","19","","","","","","","","","","","","","","","",""
"","ITI","","html-keyboard-response","133","225382","0.0-1.0-180.0","0","0","88517","","null","","","null","19","","","","","","","","","","","","","","","NaN",""
"","S1","","html-keyboard-response","134","225542","0.0-1.0-182.0","0","0","88517","","null","","","null","20","","","","","","","","","","","","","","","",""
"","ISI","","html-keyboard-response","135","227550","0.0-1.0-183.0","0","0","88517","","null","","","null","20","NaN","","","","","","","","","","","","","","",""
"","S2","","html-keyboard-response","136","227707","0.0-1.0-184.0","0","0","88517","","null","","","null","20","","NaN","","","","","","","","","","","","","",""
"","response","","html-keyboard-response","137","227999","0.0-1.0-185.0-0.0","0","0","88517","","289","","","68","20","","","1","20","training","adjacent","CB","3","2","O.jpg","R.jpg","0","0","1","",""
"","feedback","","html-keyboard-response","138","229015","0.0-1.0-186.0-0.0","0","0","88517","","null","","","null","20","","","","","","","","","","","","","","","",""
"","ITI","","html-keyboard-response","139","230027","0.0-1.0-189.0","0","0","88517","","null","","","null","20","","","","","","","","","","","","","","","NaN",""
"","S1","","html-keyboard-response","140","230198","0.0-1.0-191.0","0","0","88517","","null","","","null","21","","","","","","","","","","","","","","","",""
"","ISI","","html-keyboard-response","141","232202","0.0-1.0-192.0","0","0","88517","","null","","","null","21","NaN","","","","","","","","","","","","","","",""
"","S2","","html-keyboard-response","142","232364","0.0-1.0-193.0","0","0","88517","","null","","","null","21","","NaN","","","","","","","","","","","","","",""
"","response","","html-keyboard-response","143","232606","0.0-1.0-194.0-0.0","0","0","88517","","239","","","75","21","","","1","21","training","adjacent","AB","1","2","M.jpg","R.jpg","1","1","1","",""
"","feedback","","html-keyboard-response","144","233617","0.0-1.0-195.0-0.0","0","0","88517","","null","","","null","21","","","","","","","","","","","","","","","",""
"","ITI","","html-keyboard-response","145","234623","0.0-1.0-198.0","0","0","88517","","null","","","null","21","","","","","","","","","","","","","","","NaN",""
"","S1","","html-keyboard-response","146","234786","0.0-1.0-200.0","0","0","88517","","null","","","null","22","","","","","","","","","","","","","","","",""
"","ISI","","html-keyboard-response","147","236797","0.0-1.0-201.0","0","0","88517","","null","","","null","22","NaN","","","","","","","","","","","","","","",""
"","S2","","html-keyboard-response","148","236966","0.0-1.0-202.0","0","0","88517","","null","","","null","22","","NaN","","","","","","","","","","","","","",""
"","response","","html-keyboard-response","149","237445","0.0-1.0-203.0-0.0","0","0","88517","","475","","","75","22","","","1","22","training","adjacent","BA","2","1","R.jpg","M.jpg","1","0","0","",""
"","feedback","","html-keyboard-response","150","238451","0.0-1.0-204.0-0.0","0","0","88517","","null","","","null","22","","","","","","","","","","","","","","","",""
"","time_out","","html-keyboard-response","151","240461","0.0-1.0-206.0-0.0","0","0","88517","","null","","","null","22","","","","","","","","","","","","","","","",""
"","ITI","","html-keyboard-response","152","241473","0.0-1.0-207.0","0","0","88517","","null","","","null","22","","","","","","","","","","","","","","","NaN",""
"","S1","","html-keyboard-response","153","241644","0.0-1.0-209.0","0","0","88517","","null","","","null","23","","","","","","","","","","","","","","","",""
"","ISI","","html-keyboard-response","154","243658","0.0-1.0-210.0","0","0","88517","","null","","","null","23","NaN","","","","","","","","","","","","","","",""
"","S2","","html-keyboard-response","155","243817","0.0-1.0-211.0","0","0","88517","","null","","","null","23","","NaN","","","","","","","","","","","","","",""
"","response","","html-keyboard-response","156","244160","0.0-1.0-212.0-0.0","0","0","88517","","339","","","75","23","","","1","23","training","adjacent","DC","4","3","L.jpg","O.jpg","1","0","0","",""
"","feedback","","html-keyboard-response","157","245166","0.0-1.0-213.0-0.0","0","0","88517","","null","","","null","23","","","","","","","","","","","","","","","",""
"","time_out","","html-keyboard-response","158","247177","0.0-1.0-215.0-0.0","0","0","88517","","null","","","null","23","","","","","","","","","","","","","","","",""
"","ITI","","html-keyboard-response","159","248184","0.0-1.0-216.0","0","0","88517","","null","","","null","23","","","","","","","","","","","","","","","NaN",""
"","S1","","html-keyboard-response","160","248346","0.0-1.0-218.0","0","0","88517","","null","","","null","24","","","","","","","","","","","","","","","",""
"","ISI","","html-keyboard-response","161","250357","0.0-1.0-219.0","0","0","88517","","null","","","null","24","NaN","","","","","","","","","","","","","","",""
"","S2","","html-keyboard-response","162","250519","0.0-1.0-220.0","0","0","88517","","null","","","null","24","","NaN","","","","","","","","","","","","","",""
"","response","","html-keyboard-response","163","250733","0.0-1.0-221.0-0.0","0","0","88517","","210","","","75","24","","","1","24","training","adjacent","DC","4","3","L.jpg","O.jpg","1","0","0","",""
"","feedback","","html-keyboard-response","164","251751","0.0-1.0-222.0-0.0","0","0","88517","","null","","","null","24","","","","","","","","","","","","","","","",""
"","time_out","","html-keyboard-response","165","253756","0.0-1.0-224.0-0.0","0","0","88517","","null","","","null","24","","","","","","","","","","","","","","","",""
"","ITI","","html-keyboard-response","166","254773","0.0-1.0-225.0","0","0","88517","","null","","","null","24","","","","","","","","","","","","","","","NaN",""
"","S1","","html-keyboard-response","167","254927","0.0-1.0-227.0","0","0","88517","","null","","","null","25","","","","","","","","","","","","","","","",""
"","ISI","","html-keyboard-response","168","256940","0.0-1.0-228.0","0","0","88517","","null","","","null","25","NaN","","","","","","","","","","","","","","",""
"","S2","","html-keyboard-response","169","257101","0.0-1.0-229.0","0","0","88517","","null","","","null","25","","NaN","","","","","","","","","","","","","",""
"","response","","html-keyboard-response","170","257241","0.0-1.0-230.0-0.0","0","0","88517","","136","","","75","25","","","1","25","training","adjacent","AB","1","2","M.jpg","R.jpg","1","1","1","",""
"","feedback","","html-keyboard-response","171","258249","0.0-1.0-231.0-0.0","0","0","88517","","null","","","null","25","","","","","","","","","","","","","","","",""
"","ITI","","html-keyboard-response","172","259265","0.0-1.0-234.0","0","0","88517","","null","","","null","25","","","","","","","","","","","","","","","NaN",""
"","S1","","html-keyboard-response","173","259420","0.0-1.0-236.0","0","0","88517","","null","","","null","26","","","","","","","","","","","","","","","",""
"","ISI","","html-keyboard-response","174","261439","0.0-1.0-237.0","0","0","88517","","null","","","null","26","NaN","","","","","","","","","","","","","","",""
"","S2","","html-keyboard-response","175","261610","0.0-1.0-238.0","0","0","88517","","null","","","null","26","","NaN","","","","","","","","","","","","","",""
"","response","","html-keyboard-response","176","261749","0.0-1.0-239.0-0.0","0","0","88517","","136","","","68","26","","","1","26","training","adjacent","BC","2","3","R.jpg","O.jpg","0","1","0","",""
"","feedback","","html-keyboard-response","177","262767","0.0-1.0-240.0-0.0","0","0","88517","","null","","","null","26","","","","","","","","","","","","","","","",""
"","time_out","","html-keyboard-response","178","264776","0.0-1.0-242.0-0.0","0","0","88517","","null","","","null","26","","","","","","","","","","","","","","","",""
"","ITI","","html-keyboard-response","179","265796","0.0-1.0-243.0","0","0","88517","","null","","","null","26","","","","","","","","","","","","","","","NaN",""
"","S1","","html-keyboard-response","180","265963","0.0-1.0-245.0","0","0","88517","","null","","","null","27","","","","","","","","","","","","","","","",""
"","ISI","","html-keyboard-response","181","267973","0.0-1.0-246.0","0","0","88517","","null","","","null","27","NaN","","","","","","","","","","","","","","",""
"","S2","","html-keyboard-response","182","268127","0.0-1.0-247.0","0","0","88517","","null","","","null","27","","NaN","","","","","","","","","","","","","",""
"","response","","html-keyboard-response","183","268527","0.0-1.0-248.0-0.0","0","0","88517","","398","","","75","27","","","1","27","training","adjacent","ED","5","4","N.jpg","L.jpg","1","0","0","",""
"","feedback","","html-keyboard-response","184","269536","0.0-1.0-249.0-0.0","0","0","88517","","null","","","null","27","","","","","","","","","","","","","","","",""
"","time_out","","html-keyboard-response","185","271547","0.0-1.0-251.0-0.0","0","0","88517","","null","","","null","27","","","","","","","","","","","","","","","",""
"","ITI","","html-keyboard-response","186","272559","0.0-1.0-252.0","0","0","88517","","null","","","null","27","","","","","","","","","","","","","","","NaN",""
"","S1","","html-keyboard-response","187","272716","0.0-1.0-254.0","0","0","88517","","null","","","null","28","","","","","","","","","","","","","","","",""
"","ISI","","html-keyboard-response","188","274721","0.0-1.0-255.0","0","0","88517","","null","","","null","28","NaN","","","","","","","","","","","","","","",""
"","S2","","html-keyboard-response","189","274874","0.0-1.0-256.0","0","0","88517","","null","","","null","28","","NaN","","","","","","","","","","","","","",""
"","response","","html-keyboard-response","190","275452","0.0-1.0-257.0-0.0","0","0","88517","","574","","","68","28","","","1","28","training","adjacent","ED","5","4","N.jpg","L.jpg","0","0","1","",""
"","feedback","","html-keyboard-response","191","276456","0.0-1.0-258.0-0.0","0","0","88517","","null","","","null","28","","","","","","","","","","","","","","","",""
"","ITI","","html-keyboard-response","192","277462","0.0-1.0-261.0","0","0","88517","","null","","","null","28","","","","","","","","","","","","","","","NaN",""
"","S1","","html-keyboard-response","193","277623","0.0-1.0-263.0","0","0","88517","","null","","","null","29","","","","","","","","","","","","","","","",""
"","ISI","","html-keyboard-response","194","279642","0.0-1.0-264.0","0","0","88517","","null","","","null","29","NaN","","","","","","","","","","","","","","",""
"","S2","","html-keyboard-response","195","279797","0.0-1.0-265.0","0","0","88517","","null","","","null","29","","NaN","","","","","","","","","","","","","",""
"","response","","html-keyboard-response","196","279942","0.0-1.0-266.0-0.0","0","0","88517","","142","","","75","29","","","1","29","training","adjacent","BC","2","3","R.jpg","O.jpg","1","1","1","",""
"","feedback","","html-keyboard-response","197","280960","0.0-1.0-267.0-0.0","0","0","88517","","null","","","null","29","","","","","","","","","","","","","","","",""
"","ITI","","html-keyboard-response","198","281972","0.0-1.0-270.0","0","0","88517","","null","","","null","29","","","","","","","","","","","","","","","NaN",""
"","S1","","html-keyboard-response","199","282134","0.0-1.0-272.0","0","0","88517","","null","","","null","30","","","","","","","","","","","","","","","",""
"","ISI","","html-keyboard-response","200","284144","0.0-1.0-273.0","0","0","88517","","null","","","null","30","NaN","","","","","","","","","","","","","","",""
"","S2","","html-keyboard-response","201","284304","0.0-1.0-274.0","0","0","88517","","null","","","null","30","","NaN","","","","","","","","","","","","","",""
"","response","","html-keyboard-response","202","284737","0.0-1.0-275.0-0.0","0","0","88517","","430","","","68","30","","","1","30","training","adjacent","ED","5","4","N.jpg","L.jpg","0","0","1","",""
"","feedback","","html-keyboard-response","203","285752","0.0-1.0-276.0-0.0","0","0","88517","","null","","","null","30","","","","","","","","","","","","","","","",""
"","ITI","","html-keyboard-response","204","286770","0.0-1.0-279.0","0","0","88517","","null","","","null","30","","","","","","","","","","","","","","","NaN",""
"","S1","","html-keyboard-response","205","286931","0.0-1.0-281.0","0","0","88517","","null","","","null","31","","","","","","","","","","","","","","","",""
"","ISI","","html-keyboard-response","206","288935","0.0-1.0-282.0","0","0","88517","","null","","","null","31","NaN","","","","","","","","","","","","","","",""
"","S2","","html-keyboard-response","207","289106","0.0-1.0-283.0","0","0","88517","","null","","","null","31","","NaN","","","","","","","","","","","","","",""
"","response","","html-keyboard-response","208","289576","0.0-1.0-284.0-0.0","0","0","88517","","466","","","75","31","","","1","31","training","adjacent","BA","2","1","R.jpg","M.jpg","1","0","0","",""
"","feedback","","html-keyboard-response","209","290592","0.0-1.0-285.0-0.0","0","0","88517","","null","","","null","31","","","","","","","","","","","","","","","",""
"","time_out","","html-keyboard-response","210","292603","0.0-1.0-287.0-0.0","0","0","88517","","null","","","null","31","","","","","","","","","","","","","","","",""
"","ITI","","html-keyboard-response","211","293620","0.0-1.0-288.0","0","0","88517","","null","","","null","31","","","","","","","","","","","","","","","NaN",""
"","S1","","html-keyboard-response","212","293783","0.0-1.0-290.0","0","0","88517","","null","","","null","32","","","","","","","","","","","","","","","",""
"","ISI","","html-keyboard-response","213","295788","0.0-1.0-291.0","0","0","88517","","null","","","null","32","NaN","","","","","","","","","","","","","","",""
"","S2","","html-keyboard-response","214","295959","0.0-1.0-292.0","0","0","88517","","null","","","null","32","","NaN","","","","","","","","","","","","","",""
"","response","","html-keyboard-response","215","296055","0.0-1.0-293.0-0.0","0","0","88517","","92","","","75","32","","","1","32","training","adjacent","DE","4","5","L.jpg","N.jpg","1","1","1","",""
"","feedback","","html-keyboard-response","216","297062","0.0-1.0-294.0-0.0","0","0","88517","","null","","","null","32","","","","","","","","","","","","","","","",""
"","ITI","","html-keyboard-response","217","298074","0.0-1.0-297.0","0","0","88517","","null","","","null","32","","","","","","","","","","","","","","","NaN",""
"","S1","","html-keyboard-response","218","298242","0.0-1.0-299.0","0","0","88517","","null","","","null","33","","","","","","","","","","","","","","","",""
"","ISI","","html-keyboard-response","219","300255","0.0-1.0-300.0","0","0","88517","","null","","","null","33","NaN","","","","","","","","","","","","","","",""
"","S2","","html-keyboard-response","220","300413","0.0-1.0-301.0","0","0","88517","","null","","","null","33","","NaN","","","","","","","","","","","","","",""
"","response","","html-keyboard-response","221","300617","0.0-1.0-302.0-0.0","0","0","88517","","200","","","68","33","","","1","33","training","adjacent","EF","5","6","N.jpg","Q.jpg","0","1","0","",""
"","feedback","","html-keyboard-response","222","301634","0.0-1.0-303.0-0.0","0","0","88517","","null","","","null","33","","","","","","","","","","","","","","","",""
"","time_out","","html-keyboard-response","223","303653","0.0-1.0-305.0-0.0","0","0","88517","","null","","","null","33","","","","","","","","","","","","","","","",""
"","ITI","","html-keyboard-response","224","304672","0.0-1.0-306.0","0","0","88517","","null","","","null","33","","","","","","","","","","","","","","","NaN",""
"","S1","","html-keyboard-response","225","304844","0.0-1.0-308.0","0","0","88517","","null","","","null","34","","","","","","","","","","","","","","","",""
"","ISI","","html-keyboard-response","226","306850","0.0-1.0-309.0","0","0","88517","","null","","","null","34","NaN","","","","","","","","","","","","","","",""
"","S2","","html-keyboard-response","227","307012","0.0-1.0-310.0","0","0","88517","","null","","","null","34","","NaN","","","","","","","","","","","","","",""
"","response","","html-keyboard-response","228","307367","0.0-1.0-311.0-0.0","0","0","88517","","352","","","75","34","","","1","34","training","adjacent","AB","1","2","M.jpg","R.jpg","1","1","1","",""
"","feedback","","html-keyboard-response","229","308375","0.0-1.0-312.0-0.0","0","0","88517","","null","","","null","34","","","","","","","","","","","","","","","",""
"","ITI","","html-keyboard-response","230","309382","0.0-1.0-315.0","0","0","88517","","null","","","null","34","","","","","","","","","","","","","","","NaN",""
"","S1","","html-keyboard-response","231","309551","0.0-1.0-317.0","0","0","88517","","null","","","null","35","","","","","","","","","","","","","","","",""
"","ISI","","html-keyboard-response","232","311565","0.0-1.0-318.0","0","0","88517","","null","","","null","35","NaN","","","","","","","","","","","","","","",""
"","S2","","html-keyboard-response","233","311725","0.0-1.0-319.0","0","0","88517","","null","","","null","35","","NaN","","","","","","","","","","","","","",""
"","response","","html-keyboard-response","234","312134","0.0-1.0-320.0-0.0","0","0","88517","","406","","","75","35","","","1","35","training","adjacent","EF","5","6","N.jpg","Q.jpg","1","1","1","",""
"","feedback","","html-keyboard-response","235","313140","0.0-1.0-321.0-0.0","0","0","88517","","null","","","null","35","","","","","","","","","","","","","","","",""
"","ITI","","html-keyboard-response","236","314146","0.0-1.0-324.0","0","0","88517","","null","","","null","35","","","","","","","","","","","","","","","NaN",""
"","S1","","html-keyboard-response","237","314300","0.0-1.0-326.0","0","0","88517","","null","","","null","36","","","","","","","","","","","","","","","",""
"","ISI","","html-keyboard-response","238","316320","0.0-1.0-327.0","0","0","88517","","null","","","null","36","NaN","","","","","","","","","","","","","","",""
"","S2","","html-keyboard-response","239","316482","0.0-1.0-328.0","0","0","88517","","null","","","null","36","","NaN","","","","","","","","","","","","","",""
"","response","","html-keyboard-response","240","316657","0.0-1.0-329.0-0.0","0","0","88517","","172","","","68","36","","","1","36","training","adjacent","FG","6","7","Q.jpg","P.jpg","0","1","0","",""
"","feedback","","html-keyboard-response","241","317664","0.0-1.0-330.0-0.0","0","0","88517","","null","","","null","36","","","","","","","","","","","","","","","",""
"","time_out","","html-keyboard-response","242","319677","0.0-1.0-332.0-0.0","0","0","88517","","null","","","null","36","","","","","","","","","","","","","","","",""
"","ITI","","html-keyboard-response","243","320696","0.0-1.0-333.0","0","0","88517","","null","","","null","36","","","","","","","","","","","","","","","NaN",""
"","S1","","html-keyboard-response","244","320863","0.0-1.0-335.0","0","0","88517","","null","","","null","37","","","","","","","","","","","","","","","",""
"","ISI","","html-keyboard-response","245","322876","0.0-1.0-336.0","0","0","88517","","171","","","75","37","k","","","","","","","","","","","","","","",""
"","S2","","html-keyboard-response","246","323034","0.0-1.0-337.0","0","0","88517","","null","","","null","37","","NaN","","","","","","","","","","","","","",""
"","response","","html-keyboard-response","247","323165","0.0-1.0-338.0-0.0","0","0","88517","","128","","","75","37","","","1","37","training","adjacent","CB","3","2","O.jpg","R.jpg","1","0","0","",""
"","feedback","","html-keyboard-response","248","324173","0.0-1.0-339.0-0.0","0","0","88517","","null","","","null","37","","","","","","","","","","","","","","","",""
"","time_out","","html-keyboard-response","249","326186","0.0-1.0-341.0-0.0","0","0","88517","","null","","","null","37","","","","","","","","","","","","","","","",""
"","ITI","","html-keyboard-response","250","327190","0.0-1.0-342.0","0","0","88517","","null","","","null","37","","","","","","","","","","","","","","","NaN",""
"","S1","","html-keyboard-response","251","327347","0.0-1.0-344.0","0","0","88517","","null","","","null","38","","","","","","","","","","","","","","","",""
"","ISI","","html-keyboard-response","252","329357","0.0-1.0-345.0","0","0","88517","","null","","","null","38","NaN","","","","","","","","","","","","","","",""
"","S2","","html-keyboard-response","253","329516","0.0-1.0-346.0","0","0","88517","","null","","","null","38","","NaN","","","","","","","","","","","","","",""
"","response","","html-keyboard-response","254","330085","0.0-1.0-347.0-0.0","0","0","88517","","566","","","68","38","","","1","38","training","adjacent","CB","3","2","O.jpg","R.jpg","0","0","1","",""
"","feedback","","html-keyboard-response","255","331096","0.0-1.0-348.0-0.0","0","0","88517","","null","","","null","38","","","","","","","","","","","","","","","",""
"","ITI","","html-keyboard-response","256","332102","0.0-1.0-351.0","0","0","88517","","null","","","null","38","","","","","","","","","","","","","","","NaN",""
"","S1","","html-keyboard-response","257","332265","0.0-1.0-353.0","0","0","88517","","null","","","null","39","","","","","","","","","","","","","","","",""
"","ISI","","html-keyboard-response","258","334274","0.0-1.0-354.0","0","0","88517","","null","","","null","39","NaN","","","","","","","","","","","","","","",""
"","S2","","html-keyboard-response","259","334431","0.0-1.0-355.0","0","0","88517","","null","","","null","39","","NaN","","","","","","","","","","","","","",""
"","response","","html-keyboard-response","260","334925","0.0-1.0-356.0-0.0","0","0","88517","","492","","","68","39","","","1","39","training","adjacent","CD","3","4","O.jpg","L.jpg","0","1","0","",""
"","feedback","","html-keyboard-response","261","335943","0.0-1.0-357.0-0.0","0","0","88517","","null","","","null","39","","","","","","","","","","","","","","","",""
"","time_out","","html-keyboard-response","262","337947","0.0-1.0-359.0-0.0","0","0","88517","","null","","","null","39","","","","","","","","","","","","","","","",""
"","ITI","","html-keyboard-response","263","338965","0.0-1.0-360.0","0","0","88517","","null","","","null","39","","","","","","","","","","","","","","","NaN",""
"","S1","","html-keyboard-response","264","339128","0.0-1.0-362.0","0","0","88517","","null","","","null","40","","","","","","","","","","","","","","","",""
"","ISI","","html-keyboard-response","265","341134","0.0-1.0-363.0","0","0","88517","","null","","","null","40","NaN","","","","","","","","","","","","","","",""
"","S2","","html-keyboard-response","266","341294","0.0-1.0-364.0","0","0","88517","","null","","","null","40","","NaN","","","","","","","","","","","","","",""
"","response","","html-keyboard-response","267","341795","0.0-1.0-365.0-0.0","0","0","88517","","498","","","68","40","","","1","40","training","adjacent","CD","3","4","O.jpg","L.jpg","0","1","0","",""
"","feedback","","html-keyboard-response","268","342806","0.0-1.0-366.0-0.0","0","0","88517","","null","","","null","40","","","","","","","","","","","","","","","",""
"","time_out","","html-keyboard-response","269","344811","0.0-1.0-368.0-0.0","0","0","88517","","null","","","null","40","","","","","","","","","","","","","","","",""
"","ITI","","html-keyboard-response","270","345820","0.0-1.0-369.0","0","0","88517","","null","","","null","40","","","","","","","","","","","","","","","NaN",""
"","S1","","html-keyboard-response","271","345979","0.0-1.0-371.0","0","0","88517","","null","","","null","41","","","","","","","","","","","","","","","",""
"","ISI","","html-keyboard-response","272","347986","0.0-1.0-372.0","0","0","88517","","null","","","null","41","NaN","","","","","","","","","","","","","","",""
"","S2","","html-keyboard-response","273","348150","0.0-1.0-373.0","0","0","88517","","null","","","null","41","","NaN","","","","","","","","","","","","","",""
"","response","","html-keyboard-response","274","348298","0.0-1.0-374.0-0.0","0","0","88517","","145","","","68","41","","","1","41","training","adjacent","FE","6","5","Q.jpg","N.jpg","0","0","1","",""
"","feedback","","html-keyboard-response","275","349311","0.0-1.0-375.0-0.0","0","0","88517","","null","","","null","41","","","","","","","","","","","","","","","",""
"","ITI","","html-keyboard-response","276","350324","0.0-1.0-378.0","0","0","88517","","null","","","null","41","","","","","","","","","","","","","","","NaN",""
"","S1","","html-keyboard-response","277","350484","0.0-1.0-380.0","0","0","88517","","null","","","null","42","","","","","","","","","","","","","","","",""
"","ISI","","html-keyboard-response","278","352497","0.0-1.0-381.0","0","0","88517","","null","","","null","42","NaN","","","","","","","","","","","","","","",""
"","S2","","html-keyboard-response","279","352667","0.0-1.0-382.0","0","0","88517","","null","","","null","42","","NaN","","","","","","","","","","","","","",""
"","response","","html-keyboard-response","280","352908","0.0-1.0-383.0-0.0","0","0","88517","","239","","","75","42","","","1","42","training","adjacent","DC","4","3","L.jpg","O.jpg","1","0","0","",""
"","feedback","","html-keyboard-response","281","353923","0.0-1.0-384.0-0.0","0","0","88517","","null","","","null","42","","","","","","","","","","","","","","","",""
"","time_out","","html-keyboard-response","282","355933","0.0-1.0-386.0-0.0","0","0","88517","","null","","","null","42","","","","","","","","","","","","","","","",""
"","ITI","","html-keyboard-response","283","356951","0.0-1.0-387.0","0","0","88517","","null","","","null","42","","","","","","","","","","","","","","","NaN",""
"","S1","","html-keyboard-response","284","357103","0.0-1.0-389.0","0","0","88517","","null","","","null","43","","","","","","","","","","","","","","","",""
"","ISI","","html-keyboard-response","285","359111","0.0-1.0-390.0","0","0","88517","","null","","","null","43","NaN","","","","","","","","","","","","","","",""
"","S2","","html-keyboard-response","286","359272","0.0-1.0-391.0","0","0","88517","","null","","","null","43","","NaN","","","","","","","","","","","","","",""
"","response","","html-keyboard-response","287","359573","0.0-1.0-392.0-0.0","0","0","88517","","299","","","68","43","","","1","43","training","adjacent","DC","4","3","L.jpg","O.jpg","0","0","1","",""
"","feedback","","html-keyboard-response","288","360586","0.0-1.0-393.0-0.0","0","0","88517","","null","","","null","43","","","","","","","","","","","","","","","",""
"","ITI","","html-keyboard-response","289","361591","0.0-1.0-396.0","0","0","88517","","null","","","null","43","","","","","","","","","","","","","","","NaN",""
"","S1","","html-keyboard-response","290","361748","0.0-1.0-398.0","0","0","88517","","null","","","null","44","","","","","","","","","","","","","","","",""
"","ISI","","html-keyboard-response","291","363756","0.0-1.0-399.0","0","0","88517","","null","","","null","44","NaN","","","","","","","","","","","","","","",""
"","S2","","html-keyboard-response","292","363916","0.0-1.0-400.0","0","0","88517","","null","","","null","44","","NaN","","","","","","","","","","","","","",""
"","response","","html-keyboard-response","293","364339","0.0-1.0-401.0-0.0","0","0","88517","","419","","","75","44","","","1","44","training","adjacent","BA","2","1","R.jpg","M.jpg","1","0","0","",""
"","feedback","","html-keyboard-response","294","365359","0.0-1.0-402.0-0.0","0","0","88517","","null","","","null","44","","","","","","","","","","","","","","","",""
"","time_out","","html-keyboard-response","295","367368","0.0-1.0-404.0-0.0","0","0","88517","","null","","","null","44","","","","","","","","","","","","","","","",""
"","ITI","","html-keyboard-response","296","368375","0.0-1.0-405.0","0","0","88517","","null","","","null","44","","","","","","","","","","","","","","","NaN",""
"","S1","","html-keyboard-response","297","368537","0.0-1.0-407.0","0","0","88517","","null","","","null","45","","","","","","","","","","","","","","","",""
"","ISI","","html-keyboard-response","298","370547","0.0-1.0-408.0","0","0","88517","","null","","","null","45","NaN","","","","","","","","","","","","","","",""
"","S2","","html-keyboard-response","299","370718","0.0-1.0-409.0","0","0","88517","","null","","","null","45","","NaN","","","","","","","","","","","","","",""
"","response","","html-keyboard-response","300","371015","0.0-1.0-410.0-0.0","0","0","88517","","293","","","75","45","","","1","45","training","adjacent","FE","6","5","Q.jpg","N.jpg","1","0","0","",""
"","feedback","","html-keyboard-response","301","372023","0.0-1.0-411.0-0.0","0","0","88517","","null","","","null","45","","","","","","","","","","","","","","","",""
"","time_out","","html-keyboard-response","302","374034","0.0-1.0-413.0-0.0","0","0","88517","","null","","","null","45","","","","","","","","","","","","","","","",""
"","ITI","","html-keyboard-response","303","375052","0.0-1.0-414.0","0","0","88517","","null","","","null","45","","","","","","","","","","","","","","","NaN",""
"","S1","","html-keyboard-response","304","375210","0.0-1.0-416.0","0","0","88517","","null","","","null","46","","","","","","","","","","","","","","","",""
"","ISI","","html-keyboard-response","305","377214","0.0-1.0-417.0","0","0","88517","","null","","","null","46","NaN","","","","","","","","","","","","","","",""
"","S2","","html-keyboard-response","306","377378","0.0-1.0-418.0","0","0","88517","","null","","","null","46","","NaN","","","","","","","","","","","","","",""
"","response","","html-keyboard-response","307","377908","0.0-1.0-419.0-0.0","0","0","88517","","528","","","75","46","","","1","46","training","adjacent","DE","4","5","L.jpg","N.jpg","1","1","1","",""
"","feedback","","html-keyboard-response","308","378919","0.0-1.0-420.0-0.0","0","0","88517","","null","","","null","46","","","","","","","","","","","","","","","",""
"","ITI","","html-keyboard-response","309","379928","0.0-1.0-423.0","0","0","88517","","null","","","null","46","","","","","","","","","","","","","","","NaN",""
"","S1","","html-keyboard-response","310","380084","0.0-1.0-425.0","0","0","88517","","null","","","null","47","","","","","","","","","","","","","","","",""
"","ISI","","html-keyboard-response","311","382097","0.0-1.0-426.0","0","0","88517","","null","","","null","47","NaN","","","","","","","","","","","","","","",""
"","S2","","html-keyboard-response","312","382256","0.0-1.0-427.0","0","0","88517","","null","","","null","47","","NaN","","","","","","","","","","","","","",""
"","response","","html-keyboard-response","313","382659","0.0-1.0-428.0-0.0","0","0","88517","","400","","","75","47","","","1","47","training","adjacent","EF","5","6","N.jpg","Q.jpg","1","1","1","",""
"","feedback","","html-keyboard-response","314","383670","0.0-1.0-429.0-0.0","0","0","88517","","null","","","null","47","","","","","","","","","","","","","","","",""
"","ITI","","html-keyboard-response","315","384676","0.0-1.0-432.0","0","0","88517","","null","","","null","47","","","","","","","","","","","","","","","NaN",""
"","block_over","","html-keyboard-response","316","414448","0.0-1.0-433.0-0.0","0","0","88517","","29767","","","32","47","","","","","","","","","","","","","","","",""
"","S1","","html-keyboard-response","317","414606","0.0-1.0-434.0","0","0","88517","","null","","","null","48","","","","","","","","","","","","","","","",""
"","ISI","","html-keyboard-response","318","416616","0.0-1.0-435.0","0","0","88517","","null","","","null","48","NaN","","","","","","","","","","","","","","",""
"","S2","","html-keyboard-response","319","416777","0.0-1.0-436.0","0","0","88517","","null","","","null","48","","NaN","","","","","","","","","","","","","",""
"","response","","html-keyboard-response","320","417801","0.0-1.0-437.0-0.0","0","0","88517","","1021","","","68","48","","","2","48","training","adjacent","CB","3","2","O.jpg","R.jpg","0","0","1","",""
"","feedback","","html-keyboard-response","321","418815","0.0-1.0-438.0-0.0","0","0","88517","","null","","","null","48","","","","","","","","","","","","","","","",""
"","ITI","","html-keyboard-response","322","419835","0.0-1.0-441.0","0","0","88517","","null","","","null","48","","","","","","","","","","","","","","","NaN",""
"","S1","","html-keyboard-response","323","420003","0.0-1.0-443.0","0","0","88517","","null","","","null","49","","","","","","","","","","","","","","","",""
"","ISI","","html-keyboard-response","324","422013","0.0-1.0-444.0","0","0","88517","","null","","","null","49","NaN","","","","","","","","","","","","","","",""
"","S2","","html-keyboard-response","325","422169","0.0-1.0-445.0","0","0","88517","","null","","","null","49","","NaN","","","","","","","","","","","","","",""
"","response","","html-keyboard-response","326","422498","0.0-1.0-446.0-0.0","0","0","88517","","326","","","68","49","","","2","49","training","adjacent","FG","6","7","Q.jpg","P.jpg","0","1","0","",""
"","feedback","","html-keyboard-response","327","423509","0.0-1.0-447.0-0.0","0","0","88517","","null","","","null","49","","","","","","","","","","","","","","","",""
"","time_out","","html-keyboard-response","328","425515","0.0-1.0-449.0-0.0","0","0","88517","","null","","","null","49","","","","","","","","","","","","","","","",""
"","ITI","","html-keyboard-response","329","426524","0.0-1.0-450.0","0","0","88517","","null","","","null","49","","","","","","","","","","","","","","","NaN",""
"","S1","","html-keyboard-response","330","426681","0.0-1.0-452.0","0","0","88517","","null","","","null","50","","","","","","","","","","","","","","","",""
"","ISI","","html-keyboard-response","331","428691","0.0-1.0-453.0","0","0","88517","","853","","","75","50","k","","","","","","","","","","","","","","",""
"","S2","","html-keyboard-response","332","428854","0.0-1.0-454.0","0","0","88517","","null","","","null","50","","NaN","","","","","","","","","","","","","",""
"","response","","html-keyboard-response","333","429121","0.0-1.0-455.0-0.0","0","0","88517","","264","","","75","50","","","2","50","training","adjacent","DC","4","3","L.jpg","O.jpg","1","0","0","",""
"","feedback","","html-keyboard-response","334","430125","0.0-1.0-456.0-0.0","0","0","88517","","null","","","null","50","","","","","","","","","","","","","","","",""
"","time_out","","html-keyboard-response","335","432138","0.0-1.0-458.0-0.0","0","0","88517","","null","","","null","50","","","","","","","","","","","","","","","",""
"","ITI","","html-keyboard-response","336","433144","0.0-1.0-459.0","0","0","88517","","null","","","null","50","","","","","","","","","","","","","","","NaN",""
"","S1","","html-keyboard-response","337","433302","0.0-1.0-461.0","0","0","88517","","null","","","null","51","","","","","","","","","","","","","","","",""
"","ISI","","html-keyboard-response","338","435312","0.0-1.0-462.0","0","0","88517","","462","","","75","51","k","","","","","","","","","","","","","","",""
"","S2","","html-keyboard-response","339","435468","0.0-1.0-463.0","0","0","88517","","null","","","null","51","","NaN","","","","","","","","","","","","","",""
"","response","","html-keyboard-response","340","437324","0.0-1.0-464.0-0.0","0","0","88517","","null","","","null","51","","","2","51","training","adjacent","DC","4","3","L.jpg","O.jpg","NaN","0","0","",""
"","too_slow_prompt","","html-keyboard-response","341","438345","0.0-1.0-466.0-0.0","1","0","88517","","null","","","null","","","","","","","","","","","","","","","","",""
"","time_out","","html-keyboard-response","342","440354","0.0-1.0-467.0-0.0","0","0","88517","","null","","","null","51","","","","","","","","","","","","","","","",""
"","ITI","","html-keyboard-response","343","441372","0.0-1.0-468.0","0","0","88517","","null","","","null","51","","","","","","","","","","","","","","","NaN",""
"","S1","","html-keyboard-response","344","441542","0.0-1.0-470.0","0","0","88517","","null","","","null","52","","","","","","","","","","","","","","","",""
"","ISI","","html-keyboard-response","345","443550","0.0-1.0-471.0","0","0","88517","","null","","","null","52","NaN","","","","","","","","","","","","","","",""
"","S2","","html-keyboard-response","346","443715","0.0-1.0-472.0","0","0","88517","","null","","","null","52","","NaN","","","","","","","","","","","","","",""
"","response","","html-keyboard-response","347","444365","0.0-1.0-473.0-0.0","0","0","88517","","647","","","68","52","","","2","52","training","adjacent","CB","3","2","O.jpg","R.jpg","0","0","1","",""
"","feedback","","html-keyboard-response","348","445385","0.0-1.0-474.0-0.0","0","0","88517","","null","","","null","52","","","","","","","","","","","","","","","",""
"","ITI","","html-keyboard-response","349","446401","0.0-1.0-477.0","0","0","88517","","null","","","null","52","","","","","","","","","","","","","","","NaN",""
"","S1","","html-keyboard-response","350","446570","0.0-1.0-479.0","0","0","88517","","null","","","null","53","","","","","","","","","","","","","","","",""
"","ISI","","html-keyboard-response","351","448588","0.0-1.0-480.0","0","0","88517","","null","","","null","53","NaN","","","","","","","","","","","","","","",""
"","S2","","html-keyboard-response","352","448756","0.0-1.0-481.0","0","0","88517","","null","","","null","53","","NaN","","","","","","","","","","","","","",""
"","response","","html-keyboard-response","353","449205","0.0-1.0-482.0-0.0","0","0","88517","","446","","","75","53","","","2","53","training","adjacent","DE","4","5","L.jpg","N.jpg","1","1","1","",""
"","feedback","","html-keyboard-response","354","450211","0.0-1.0-483.0-0.0","0","0","88517","","null","","","null","53","","","","","","","","","","","","","","","",""
"","ITI","","html-keyboard-response","355","451215","0.0-1.0-486.0","0","0","88517","","null","","","null","53","","","","","","","","","","","","","","","NaN",""
"","S1","","html-keyboard-response","356","451383","0.0-1.0-488.0","0","0","88517","","null","","","null","54","","","","","","","","","","","","","","","",""
"","ISI","","html-keyboard-response","357","453397","0.0-1.0-489.0","0","0","88517","","null","","","null","54","NaN","","","","","","","","","","","","","","",""
"","S2","","html-keyboard-response","358","453555","0.0-1.0-490.0","0","0","88517","","null","","","null","54","","NaN","","","","","","","","","","","","","",""
"","response","","html-keyboard-response","359","453884","0.0-1.0-491.0-0.0","0","0","88517","","325","","","75","54","","","2","54","training","adjacent","BC","2","3","R.jpg","O.jpg","1","1","1","",""
"","feedback","","html-keyboard-response","360","454891","0.0-1.0-492.0-0.0","0","0","88517","","null","","","null","54","","","","","","","","","","","","","","","",""
"","ITI","","html-keyboard-response","361","455910","0.0-1.0-495.0","0","0","88517","","null","","","null","54","","","","","","","","","","","","","","","NaN",""
"","S1","","html-keyboard-response","362","456066","0.0-1.0-497.0","0","0","88517","","null","","","null","55","","","","","","","","","","","","","","","",""
"","ISI","","html-keyboard-response","363","458076","0.0-1.0-498.0","0","0","88517","","null","","","null","55","NaN","","","","","","","","","","","","","","",""
"","S2","","html-keyboard-response","364","458234","0.0-1.0-499.0","0","0","88517","","null","","","null","55","","NaN","","","","","","","","","","","","","",""
"","response","","html-keyboard-response","365","458747","0.0-1.0-500.0-0.0","0","0","88517","","509","","","68","55","","","2","55","training","adjacent","GF","7","6","P.jpg","Q.jpg","0","0","1","",""
"","feedback","","html-keyboard-response","366","459762","0.0-1.0-501.0-0.0","0","0","88517","","null","","","null","55","","","","","","","","","","","","","","","",""
"","ITI","","html-keyboard-response","367","460773","0.0-1.0-504.0","0","0","88517","","null","","","null","55","","","","","","","","","","","","","","","NaN",""
"","S1","","html-keyboard-response","368","460939","0.0-1.0-506.0","0","0","88517","","null","","","null","56","","","","","","","","","","","","","","","",""
"","ISI","","html-keyboard-response","369","462945","0.0-1.0-507.0","0","0","88517","","null","","","null","56","NaN","","","","","","","","","","","","","","",""
"","S2","","html-keyboard-response","370","463103","0.0-1.0-508.0","0","0","88517","","null","","","null","56","","NaN","","","","","","","","","","","","","",""
"","response","","html-keyboard-response","371","463506","0.0-1.0-509.0-0.0","0","0","88517","","399","","","75","56","","","2","56","training","adjacent","DE","4","5","L.jpg","N.jpg","1","1","1","",""
"","feedback","","html-keyboard-response","372","464510","0.0-1.0-510.0-0.0","0","0","88517","","null","","","null","56","","","","","","","","","","","","","","","",""
"","ITI","","html-keyboard-response","373","465525","0.0-1.0-513.0","0","0","88517","","null","","","null","56","","","","","","","","","","","","","","","NaN",""
"","S1","","html-keyboard-response","374","465682","0.0-1.0-515.0","0","0","88517","","null","","","null","57","","","","","","","","","","","","","","","",""
"","ISI","","html-keyboard-response","375","467690","0.0-1.0-516.0","0","0","88517","","null","","","null","57","NaN","","","","","","","","","","","","","","",""
"","S2","","html-keyboard-response","376","467854","0.0-1.0-517.0","0","0","88517","","null","","","null","57","","NaN","","","","","","","","","","","","","",""
"","response","","html-keyboard-response","377","468170","0.0-1.0-518.0-0.0","0","0","88517","","312","","","68","57","","","2","57","training","adjacent","FE","6","5","Q.jpg","N.jpg","0","0","1","",""
"","feedback","","html-keyboard-response","378","469190","0.0-1.0-519.0-0.0","0","0","88517","","null","","","null","57","","","","","","","","","","","","","","","",""
"","ITI","","html-keyboard-response","379","470209","0.0-1.0-522.0","0","0","88517","","null","","","null","57","","","","","","","","","","","","","","","NaN",""
"","S1","","html-keyboard-response","380","470370","0.0-1.0-524.0","0","0","88517","","null","","","null","58","","","","","","","","","","","","","","","",""
"","ISI","","html-keyboard-response","381","472375","0.0-1.0-525.0","0","0","88517","","null","","","null","58","NaN","","","","","","","","","","","","","","",""
"","S2","","html-keyboard-response","382","472531","0.0-1.0-526.0","0","0","88517","","null","","","null","58","","NaN","","","","","","","","","","","","","",""
"","response","","html-keyboard-response","383","472958","0.0-1.0-527.0-0.0","0","0","88517","","424","","","68","58","","","2","58","training","adjacent","CD","3","4","O.jpg","L.jpg","0","1","0","",""
"","feedback","","html-keyboard-response","384","473967","0.0-1.0-528.0-0.0","0","0","88517","","null","","","null","58","","","","","","","","","","","","","","","",""
"","time_out","","html-keyboard-response","385","475978","0.0-1.0-530.0-0.0","0","0","88517","","null","","","null","58","","","","","","","","","","","","","","","",""
"","ITI","","html-keyboard-response","386","476985","0.0-1.0-531.0","0","0","88517","","null","","","null","58","","","","","","","","","","","","","","","NaN",""
"","S1","","html-keyboard-response","387","477145","0.0-1.0-533.0","0","0","88517","","null","","","null","59","","","","","","","","","","","","","","","",""
"","ISI","","html-keyboard-response","388","479161","0.0-1.0-534.0","0","0","88517","","null","","","null","59","NaN","","","","","","","","","","","","","","",""
"","S2","","html-keyboard-response","389","479321","0.0-1.0-535.0","0","0","88517","","null","","","null","59","","NaN","","","","","","","","","","","","","",""
"","response","","html-keyboard-response","390","479976","0.0-1.0-536.0-0.0","0","0","88517","","651","","","68","59","","","2","59","training","adjacent","FE","6","5","Q.jpg","N.jpg","0","0","1","",""
"","feedback","","html-keyboard-response","391","480988","0.0-1.0-537.0-0.0","0","0","88517","","null","","","null","59","","","","","","","","","","","","","","","",""
"","ITI","","html-keyboard-response","392","481993","0.0-1.0-540.0","0","0","88517","","null","","","null","59","","","","","","","","","","","","","","","NaN",""
"","S1","","html-keyboard-response","393","482155","0.0-1.0-542.0","0","0","88517","","null","","","null","60","","","","","","","","","","","","","","","",""
"","ISI","","html-keyboard-response","394","484170","0.0-1.0-543.0","0","0","88517","","null","","","null","60","NaN","","","","","","","","","","","","","","",""
"","S2","","html-keyboard-response","395","484339","0.0-1.0-544.0","0","0","88517","","null","","","null","60","","NaN","","","","","","","","","","","","","",""
"","response","","html-keyboard-response","396","484894","0.0-1.0-545.0-0.0","0","0","88517","","552","","","75","60","","","2","60","training","adjacent","CD","3","4","O.jpg","L.jpg","1","1","1","",""
"","feedback","","html-keyboard-response","397","485901","0.0-1.0-546.0-0.0","0","0","88517","","null","","","null","60","","","","","","","","","","","","","","","",""
"","ITI","","html-keyboard-response","398","486906","0.0-1.0-549.0","0","0","88517","","null","","","null","60","","","","","","","","","","","","","","","NaN",""
"","S1","","html-keyboard-response","399","487075","0.0-1.0-551.0","0","0","88517","","null","","","null","61","","","","","","","","","","","","","","","",""
"","ISI","","html-keyboard-response","400","489092","0.0-1.0-552.0","0","0","88517","","null","","","null","61","NaN","","","","","","","","","","","","","","",""
"","S2","","html-keyboard-response","401","489253","0.0-1.0-553.0","0","0","88517","","null","","","null","61","","NaN","","","","","","","","","","","","","",""
"","response","","html-keyboard-response","402","489624","0.0-1.0-554.0-0.0","0","0","88517","","369","","","75","61","","","2","61","training","adjacent","DE","4","5","L.jpg","N.jpg","1","1","1","",""
"","feedback","","html-keyboard-response","403","490645","0.0-1.0-555.0-0.0","0","0","88517","","null","","","null","61","","","","","","","","","","","","","","","",""
"","ITI","","html-keyboard-response","404","491654","0.0-1.0-558.0","0","0","88517","","null","","","null","61","","","","","","","","","","","","","","","NaN",""
"","S1","","html-keyboard-response","405","491818","0.0-1.0-560.0","0","0","88517","","null","","","null","62","","","","","","","","","","","","","","","",""
"","ISI","","html-keyboard-response","406","493825","0.0-1.0-561.0","0","0","88517","","null","","","null","62","NaN","","","","","","","","","","","","","","",""
"","S2","","html-keyboard-response","407","493993","0.0-1.0-562.0","0","0","88517","","null","","","null","62","","NaN","","","","","","","","","","","","","",""
"","response","","html-keyboard-response","408","494374","0.0-1.0-563.0-0.0","0","0","88517","","378","","","68","62","","","2","62","training","adjacent","DE","4","5","L.jpg","N.jpg","0","1","0","",""
"","feedback","","html-keyboard-response","409","495380","0.0-1.0-564.0-0.0","0","0","88517","","null","","","null","62","","","","","","","","","","","","","","","",""
"","time_out","","html-keyboard-response","410","497390","0.0-1.0-566.0-0.0","0","0","88517","","null","","","null","62","","","","","","","","","","","","","","","",""
"","ITI","","html-keyboard-response","411","498400","0.0-1.0-567.0","0","0","88517","","null","","","null","62","","","","","","","","","","","","","","","NaN",""
"","S1","","html-keyboard-response","412","498570","0.0-1.0-569.0","0","0","88517","","null","","","null","63","","","","","","","","","","","","","","","",""
"","ISI","","html-keyboard-response","413","500575","0.0-1.0-570.0","0","0","88517","","null","","","null","63","NaN","","","","","","","","","","","","","","",""
"","S2","","html-keyboard-response","414","500729","0.0-1.0-571.0","0","0","88517","","null","","","null","63","","NaN","","","","","","","","","","","","","",""
"","response","","html-keyboard-response","415","500982","0.0-1.0-572.0-0.0","0","0","88517","","249","","","68","63","","","2","63","training","adjacent","EF","5","6","N.jpg","Q.jpg","0","1","0","",""
"","feedback","","html-keyboard-response","416","501996","0.0-1.0-573.0-0.0","0","0","88517","","null","","","null","63","","","","","","","","","","","","","","","",""
"","time_out","","html-keyboard-response","417","504004","0.0-1.0-575.0-0.0","0","0","88517","","null","","","null","63","","","","","","","","","","","","","","","",""
"","ITI","","html-keyboard-response","418","505018","0.0-1.0-576.0","0","0","88517","","null","","","null","63","","","","","","","","","","","","","","","NaN",""
"","S1","","html-keyboard-response","419","505174","0.0-1.0-578.0","0","0","88517","","null","","","null","64","","","","","","","","","","","","","","","",""
"","ISI","","html-keyboard-response","420","507189","0.0-1.0-579.0","0","0","88517","","488","","","75","64","k","","","","","","","","","","","","","","",""
"","S2","","html-keyboard-response","421","507356","0.0-1.0-580.0","0","0","88517","","null","","","null","64","","NaN","","","","","","","","","","","","","",""
"","response","","html-keyboard-response","422","507824","0.0-1.0-581.0-0.0","0","0","88517","","465","","","75","64","","","2","64","training","adjacent","BC","2","3","R.jpg","O.jpg","1","1","1","",""
"","feedback","","html-keyboard-response","423","508830","0.0-1.0-582.0-0.0","0","0","88517","","null","","","null","64","","","","","","","","","","","","","","","",""
"","ITI","","html-keyboard-response","424","509847","0.0-1.0-585.0","0","0","88517","","null","","","null","64","","","","","","","","","","","","","","","NaN",""
"","S1","","html-keyboard-response","425","510017","0.0-1.0-587.0","0","0","88517","","null","","","null","65","","","","","","","","","","","","","","","",""
"","ISI","","html-keyboard-response","426","512039","0.0-1.0-588.0","0","0","88517","","null","","","null","65","NaN","","","","","","","","","","","","","","",""
"","S2","","html-keyboard-response","427","512193","0.0-1.0-589.0","0","0","88517","","null","","","null","65","","NaN","","","","","","","","","","","","","",""
"","response","","html-keyboard-response","428","512660","0.0-1.0-590.0-0.0","0","0","88517","","464","","","75","65","","","2","65","training","adjacent","CD","3","4","O.jpg","L.jpg","1","1","1","",""
"","feedback","","html-keyboard-response","429","513672","0.0-1.0-591.0-0.0","0","0","88517","","null","","","null","65","","","","","","","","","","","","","","","",""
"","ITI","","html-keyboard-response","430","514680","0.0-1.0-594.0","0","0","88517","","null","","","null","65","","","","","","","","","","","","","","","NaN",""
"","S1","","html-keyboard-response","431","514837","0.0-1.0-596.0","0","0","88517","","null","","","null","66","","","","","","","","","","","","","","","",""
"","ISI","","html-keyboard-response","432","516847","0.0-1.0-597.0","0","0","88517","","null","","","null","66","NaN","","","","","","","","","","","","","","",""
"","S2","","html-keyboard-response","433","517017","0.0-1.0-598.0","0","0","88517","","null","","","null","66","","NaN","","","","","","","","","","","","","",""
"","response","","html-keyboard-response","434","517414","0.0-1.0-599.0-0.0","0","0","88517","","394","","","68","66","","","2","66","training","adjacent","DC","4","3","L.jpg","O.jpg","0","0","1","",""
"","feedback","","html-keyboard-response","435","518425","0.0-1.0-600.0-0.0","0","0","88517","","null","","","null","66","","","","","","","","","","","","","","","",""
"","ITI","","html-keyboard-response","436","519430","0.0-1.0-603.0","0","0","88517","","null","","","null","66","","","","","","","","","","","","","","","NaN",""
"","S1","","html-keyboard-response","437","519594","0.0-1.0-605.0","0","0","88517","","null","","","null","67","","","","","","","","","","","","","","","",""
"","ISI","","html-keyboard-response","438","521610","0.0-1.0-606.0","0","0","88517","","null","","","null","67","NaN","","","","","","","","","","","","","","",""
"","S2","","html-keyboard-response","439","521774","0.0-1.0-607.0","0","0","88517","","null","","","null","67","","NaN","","","","","","","","","","","","","",""
"","response","","html-keyboard-response","440","522080","0.0-1.0-608.0-0.0","0","0","88517","","302","","","68","67","","","2","67","training","adjacent","FG","6","7","Q.jpg","P.jpg","0","1","0","",""
"","feedback","","html-keyboard-response","441","523090","0.0-1.0-609.0-0.0","0","0","88517","","null","","","null","67","","","","","","","","","","","","","","","",""
"","time_out","","html-keyboard-response","442","525102","0.0-1.0-611.0-0.0","0","0","88517","","null","","","null","67","","","","","","","","","","","","","","","",""
"","ITI","","html-keyboard-response","443","526113","0.0-1.0-612.0","0","0","88517","","null","","","null","67","","","","","","","","","","","","","","","NaN",""
"","S1","","html-keyboard-response","444","526270","0.0-1.0-614.0","0","0","88517","","null","","","null","68","","","","","","","","","","","","","","","",""
"","ISI","","html-keyboard-response","445","528274","0.0-1.0-615.0","0","0","88517","","null","","","null","68","NaN","","","","","","","","","","","","","","",""
"","S2","","html-keyboard-response","446","528434","0.0-1.0-616.0","0","0","88517","","null","","","null","68","","NaN","","","","","","","","","","","","","",""
"","response","","html-keyboard-response","447","529004","0.0-1.0-617.0-0.0","0","0","88517","","567","","","68","68","","","2","68","training","adjacent","BA","2","1","R.jpg","M.jpg","0","0","1","",""
"","feedback","","html-keyboard-response","448","530021","0.0-1.0-618.0-0.0","0","0","88517","","null","","","null","68","","","","","","","","","","","","","","","",""
"","ITI","","html-keyboard-response","449","531034","0.0-1.0-621.0","0","0","88517","","null","","","null","68","","","","","","","","","","","","","","","NaN",""
"","S1","","html-keyboard-response","450","531198","0.0-1.0-623.0","0","0","88517","","null","","","null","69","","","","","","","","","","","","","","","",""
"","ISI","","html-keyboard-response","451","533202","0.0-1.0-624.0","0","0","88517","","null","","","null","69","NaN","","","","","","","","","","","","","","",""
"","S2","","html-keyboard-response","452","533357","0.0-1.0-625.0","0","0","88517","","null","","","null","69","","NaN","","","","","","","","","","","","","",""
"","response","","html-keyboard-response","453","533855","0.0-1.0-626.0-0.0","0","0","88517","","495","","","68","69","","","2","69","training","adjacent","DC","4","3","L.jpg","O.jpg","0","0","1","",""
"","feedback","","html-keyboard-response","454","534867","0.0-1.0-627.0-0.0","0","0","88517","","null","","","null","69","","","","","","","","","","","","","","","",""
"","ITI","","html-keyboard-response","455","535874","0.0-1.0-630.0","0","0","88517","","null","","","null","69","","","","","","","","","","","","","","","NaN",""
"","S1","","html-keyboard-response","456","536036","0.0-1.0-632.0","0","0","88517","","null","","","null","70","","","","","","","","","","","","","","","",""
"","ISI","","html-keyboard-response","457","538044","0.0-1.0-633.0","0","0","88517","","null","","","null","70","NaN","","","","","","","","","","","","","","",""
"","S2","","html-keyboard-response","458","538203","0.0-1.0-634.0","0","0","88517","","null","","","null","70","","NaN","","","","","","","","","","","","","",""
"","response","","html-keyboard-response","459","538670","0.0-1.0-635.0-0.0","0","0","88517","","464","","","75","70","","","2","70","training","adjacent","AB","1","2","M.jpg","R.jpg","1","1","1","",""
"","feedback","","html-keyboard-response","460","539680","0.0-1.0-636.0-0.0","0","0","88517","","null","","","null","70","","","","","","","","","","","","","","","",""
"","ITI","","html-keyboard-response","461","540694","0.0-1.0-639.0","0","0","88517","","null","","","null","70","","","","","","","","","","","","","","","NaN",""
"","S1","","html-keyboard-response","462","540863","0.0-1.0-641.0","0","0","88517","","null","","","null","71","","","","","","","","","","","","","","","",""
"","ISI","","html-keyboard-response","463","542883","0.0-1.0-642.0","0","0","88517","","null","","","null","71","NaN","","","","","","","","","","","","","","",""
"","S2","","html-keyboard-response","464","543042","0.0-1.0-643.0","0","0","88517","","null","","","null","71","","NaN","","","","","","","","","","","","","",""
"","response","","html-keyboard-response","465","543429","0.0-1.0-644.0-0.0","0","0","88517","","384","","","75","71","","","2","71","training","adjacent","CB","3","2","O.jpg","R.jpg","1","0","0","",""
"","feedback","","html-keyboard-response","466","544442","0.0-1.0-645.0-0.0","0","0","88517","","null","","","null","71","","","","","","","","","","","","","","","",""
"","time_out","","html-keyboard-response","467","546461","0.0-1.0-647.0-0.0","0","0","88517","","null","","","null","71","","","","","","","","","","","","","","","",""
"","ITI","","html-keyboard-response","468","547474","0.0-1.0-648.0","0","0","88517","","null","","","null","71","","","","","","","","","","","","","","","NaN",""
"","S1","","html-keyboard-response","469","547644","0.0-1.0-650.0","0","0","88517","","null","","","null","72","","","","","","","","","","","","","","","",""
"","ISI","","html-keyboard-response","470","549650","0.0-1.0-651.0","0","0","88517","","null","","","null","72","NaN","","","","","","","","","","","","","","",""
"","S2","","html-keyboard-response","471","549817","0.0-1.0-652.0","0","0","88517","","null","","","null","72","","NaN","","","","","","","","","","","","","",""
"","response","","html-keyboard-response","472","550027","0.0-1.0-653.0-0.0","0","0","88517","","207","","","75","72","","","2","72","training","adjacent","CD","3","4","O.jpg","L.jpg","1","1","1","",""
"","feedback","","html-keyboard-response","473","551044","0.0-1.0-654.0-0.0","0","0","88517","","null","","","null","72","","","","","","","","","","","","","","","",""
"","ITI","","html-keyboard-response","474","552062","0.0-1.0-657.0","0","0","88517","","null","","","null","72","","","","","","","","","","","","","","","NaN",""
"","S1","","html-keyboard-response","475","552227","0.0-1.0-659.0","0","0","88517","","null","","","null","73","","","","","","","","","","","","","","","",""
"","ISI","","html-keyboard-response","476","554236","0.0-1.0-660.0","0","0","88517","","null","","","null","73","NaN","","","","","","","","","","","","","","",""
"","S2","","html-keyboard-response","477","554394","0.0-1.0-661.0","0","0","88517","","null","","","null","73","","NaN","","","","","","","","","","","","","",""
"","response","","html-keyboard-response","478","554555","0.0-1.0-662.0-0.0","0","0","88517","","157","","","75","73","","","2","73","training","adjacent","AB","1","2","M.jpg","R.jpg","1","1","1","",""
"","feedback","","html-keyboard-response","479","555565","0.0-1.0-663.0-0.0","0","0","88517","","null","","","null","73","","","","","","","","","","","","","","","",""
"","ITI","","html-keyboard-response","480","556582","0.0-1.0-666.0","0","0","88517","","null","","","null","73","","","","","","","","","","","","","","","NaN",""
"","S1","","html-keyboard-response","481","556745","0.0-1.0-668.0","0","0","88517","","null","","","null","74","","","","","","","","","","","","","","","",""
"","ISI","","html-keyboard-response","482","558756","0.0-1.0-669.0","0","0","88517","","null","","","null","74","NaN","","","","","","","","","","","","","","",""
"","S2","","html-keyboard-response","483","558914","0.0-1.0-670.0","0","0","88517","","null","","","null","74","","NaN","","","","","","","","","","","","","",""
"","response","","html-keyboard-response","484","559457","0.0-1.0-671.0-0.0","0","0","88517","","540","","","68","74","","","2","74","training","adjacent","AB","1","2","M.jpg","R.jpg","0","1","0","",""
"","feedback","","html-keyboard-response","485","560465","0.0-1.0-672.0-0.0","0","0","88517","","null","","","null","74","","","","","","","","","","","","","","","",""
"","time_out","","html-keyboard-response","486","562477","0.0-1.0-674.0-0.0","0","0","88517","","null","","","null","74","","","","","","","","","","","","","","","",""
"","ITI","","html-keyboard-response","487","563496","0.0-1.0-675.0","0","0","88517","","null","","","null","74","","","","","","","","","","","","","","","NaN",""
"","S1","","html-keyboard-response","488","563655","0.0-1.0-677.0","0","0","88517","","null","","","null","75","","","","","","","","","","","","","","","",""
"","ISI","","html-keyboard-response","489","565663","0.0-1.0-678.0","0","0","88517","","364","","","75","75","k","","","","","","","","","","","","","","",""
"","S2","","html-keyboard-response","490","565832","0.0-1.0-679.0","0","0","88517","","null","","","null","75","","NaN","","","","","","","","","","","","","",""
"","response","","html-keyboard-response","491","565956","0.0-1.0-680.0-0.0","0","0","88517","","121","","","68","75","","","2","75","training","adjacent","ED","5","4","N.jpg","L.jpg","0","0","1","",""
"","feedback","","html-keyboard-response","492","566974","0.0-1.0-681.0-0.0","0","0","88517","","null","","","null","75","","","","","","","","","","","","","","","",""
"","ITI","","html-keyboard-response","493","567987","0.0-1.0-684.0","0","0","88517","","null","","","null","75","","","","","","","","","","","","","","","NaN",""
"","S1","","html-keyboard-response","494","568147","0.0-1.0-686.0","0","0","88517","","null","","","null","76","","","","","","","","","","","","","","","",""
"","ISI","","html-keyboard-response","495","570151","0.0-1.0-687.0","0","0","88517","","null","","","null","76","NaN","","","","","","","","","","","","","","",""
"","S2","","html-keyboard-response","496","570313","0.0-1.0-688.0","0","0","88517","","null","","","null","76","","NaN","","","","","","","","","","","","","",""
"","response","","html-keyboard-response","497","570776","0.0-1.0-689.0-0.0","0","0","88517","","460","","","75","76","","","2","76","training","adjacent","BA","2","1","R.jpg","M.jpg","1","0","0","",""
"","feedback","","html-keyboard-response","498","571781","0.0-1.0-690.0-0.0","0","0","88517","","null","","","null","76","","","","","","","","","","","","","","","",""
"","time_out","","html-keyboard-response","499","573789","0.0-1.0-692.0-0.0","0","0","88517","","null","","","null","76","","","","","","","","","","","","","","","",""
"","ITI","","html-keyboard-response","500","574800","0.0-1.0-693.0","0","0","88517","","null","","","null","76","","","","","","","","","","","","","","","NaN",""
"","S1","","html-keyboard-response","501","574963","0.0-1.0-695.0","0","0","88517","","null","","","null","77","","","","","","","","","","","","","","","",""
"","ISI","","html-keyboard-response","502","576975","0.0-1.0-696.0","0","0","88517","","null","","","null","77","NaN","","","","","","","","","","","","","","",""
"","S2","","html-keyboard-response","503","577142","0.0-1.0-697.0","0","0","88517","","null","","","null","77","","NaN","","","","","","","","","","","","","",""
"","response","","html-keyboard-response","504","577621","0.0-1.0-698.0-0.0","0","0","88517","","476","","","68","77","","","2","77","training","adjacent","ED","5","4","N.jpg","L.jpg","0","0","1","",""
"","feedback","","html-keyboard-response","505","578640","0.0-1.0-699.0-0.0","0","0","88517","","null","","","null","77","","","","","","","","","","","","","","","",""
"","ITI","","html-keyboard-response","506","579646","0.0-1.0-702.0","0","0","88517","","null","","","null","77","","","","","","","","","","","","","","","NaN",""
"","S1","","html-keyboard-response","507","579817","0.0-1.0-704.0","0","0","88517","","null","","","null","78","","","","","","","","","","","","","","","",""
"","ISI","","html-keyboard-response","508","581829","0.0-1.0-705.0","0","0","88517","","null","","","null","78","NaN","","","","","","","","","","","","","","",""
"","S2","","html-keyboard-response","509","581991","0.0-1.0-706.0","0","0","88517","","null","","","null","78","","NaN","","","","","","","","","","","","","",""
"","response","","html-keyboard-response","510","582469","0.0-1.0-707.0-0.0","0","0","88517","","474","","","68","78","","","2","78","training","adjacent","ED","5","4","N.jpg","L.jpg","0","0","1","",""
"","feedback","","html-keyboard-response","511","583481","0.0-1.0-708.0-0.0","0","0","88517","","null","","","null","78","","","","","","","","","","","","","","","",""
"","ITI","","html-keyboard-response","512","584496","0.0-1.0-711.0","0","0","88517","","null","","","null","78","","","","","","","","","","","","","","","NaN",""
"","S1","","html-keyboard-response","513","584653","0.0-1.0-713.0","0","0","88517","","null","","","null","79","","","","","","","","","","","","","","","",""
"","ISI","","html-keyboard-response","514","586666","0.0-1.0-714.0","0","0","88517","","null","","","null","79","NaN","","","","","","","","","","","","","","",""
"","S2","","html-keyboard-response","515","586836","0.0-1.0-715.0","0","0","88517","","null","","","null","79","","NaN","","","","","","","","","","","","","",""
"","response","","html-keyboard-response","516","587328","0.0-1.0-716.0-0.0","0","0","88517","","488","","","75","79","","","2","79","training","adjacent","EF","5","6","N.jpg","Q.jpg","1","1","1","",""
"","feedback","","html-keyboard-response","517","588336","0.0-1.0-717.0-0.0","0","0","88517","","null","","","null","79","","","","","","","","","","","","","","","",""
"","ITI","","html-keyboard-response","518","589345","0.0-1.0-720.0","0","0","88517","","null","","","null","79","","","","","","","","","","","","","","","NaN",""
"","S1","","html-keyboard-response","519","589512","0.0-1.0-722.0","0","0","88517","","null","","","null","80","","","","","","","","","","","","","","","",""
"","ISI","","html-keyboard-response","520","591524","0.0-1.0-723.0","0","0","88517","","null","","","null","80","NaN","","","","","","","","","","","","","","",""
"","S2","","html-keyboard-response","521","591687","0.0-1.0-724.0","0","0","88517","","null","","","null","80","","NaN","","","","","","","","","","","","","",""
"","response","","html-keyboard-response","522","592199","0.0-1.0-725.0-0.0","0","0","88517","","509","","","68","80","","","2","80","training","adjacent","BA","2","1","R.jpg","M.jpg","0","0","1","",""
"","feedback","","html-keyboard-response","523","593212","0.0-1.0-726.0-0.0","0","0","88517","","null","","","null","80","","","","","","","","","","","","","","","",""
"","ITI","","html-keyboard-response","524","594220","0.0-1.0-729.0","0","0","88517","","null","","","null","80","","","","","","","","","","","","","","","NaN",""
"","S1","","html-keyboard-response","525","594384","0.0-1.0-731.0","0","0","88517","","null","","","null","81","","","","","","","","","","","","","","","",""
"","ISI","","html-keyboard-response","526","596405","0.0-1.0-732.0","0","0","88517","","null","","","null","81","NaN","","","","","","","","","","","","","","",""
"","S2","","html-keyboard-response","527","596569","0.0-1.0-733.0","0","0","88517","","null","","","null","81","","NaN","","","","","","","","","","","","","",""
"","response","","html-keyboard-response","528","597063","0.0-1.0-734.0-0.0","0","0","88517","","490","","","75","81","","","2","81","training","adjacent","BC","2","3","R.jpg","O.jpg","1","1","1","",""
"","feedback","","html-keyboard-response","529","598078","0.0-1.0-735.0-0.0","0","0","88517","","null","","","null","81","","","","","","","","","","","","","","","",""
"","ITI","","html-keyboard-response","530","599091","0.0-1.0-738.0","0","0","88517","","null","","","null","81","","","","","","","","","","","","","","","NaN",""
"","S1","","html-keyboard-response","531","599250","0.0-1.0-740.0","0","0","88517","","null","","","null","82","","","","","","","","","","","","","","","",""
"","ISI","","html-keyboard-response","532","601263","0.0-1.0-741.0","0","0","88517","","null","","","null","82","NaN","","","","","","","","","","","","","","",""
"","S2","","html-keyboard-response","533","601422","0.0-1.0-742.0","0","0","88517","","null","","","null","82","","NaN","","","","","","","","","","","","","",""
"","response","","html-keyboard-response","534","601639","0.0-1.0-743.0-0.0","0","0","88517","","214","","","68","82","","","2","82","training","adjacent","GF","7","6","P.jpg","Q.jpg","0","0","1","",""
"","feedback","","html-keyboard-response","535","602645","0.0-1.0-744.0-0.0","0","0","88517","","null","","","null","82","","","","","","","","","","","","","","","",""
"","ITI","","html-keyboard-response","536","603653","0.0-1.0-747.0","0","0","88517","","null","","","null","82","","","","","","","","","","","","","","","NaN",""
"","S1","","html-keyboard-response","537","603811","0.0-1.0-749.0","0","0","88517","","null","","","null","83","","","","","","","","","","","","","","","",""
"","ISI","","html-keyboard-response","538","605822","0.0-1.0-750.0","0","0","88517","","null","","","null","83","NaN","","","","","","","","","","","","","","",""
"","S2","","html-keyboard-response","539","605986","0.0-1.0-751.0","0","0","88517","","null","","","null","83","","NaN","","","","","","","","","","","","","",""
"","response","","html-keyboard-response","540","606339","0.0-1.0-752.0-0.0","0","0","88517","","350","","","75","83","","","2","83","training","adjacent","GF","7","6","P.jpg","Q.jpg","1","0","0","",""
"","feedback","","html-keyboard-response","541","607350","0.0-1.0-753.0-0.0","0","0","88517","","null","","","null","83","","","","","","","","","","","","","","","",""
"","time_out","","html-keyboard-response","542","609362","0.0-1.0-755.0-0.0","0","0","88517","","null","","","null","83","","","","","","","","","","","","","","","",""
"","ITI","","html-keyboard-response","543","610373","0.0-1.0-756.0","0","0","88517","","null","","","null","83","","","","","","","","","","","","","","","NaN",""
"","S1","","html-keyboard-response","544","610537","0.0-1.0-758.0","0","0","88517","","null","","","null","84","","","","","","","","","","","","","","","",""
"","ISI","","html-keyboard-response","545","612546","0.0-1.0-759.0","0","0","88517","","null","","","null","84","NaN","","","","","","","","","","","","","","",""
"","S2","","html-keyboard-response","546","612704","0.0-1.0-760.0","0","0","88517","","null","","","null","84","","NaN","","","","","","","","","","","","","",""
"","response","","html-keyboard-response","547","613187","0.0-1.0-761.0-0.0","0","0","88517","","480","","","68","84","","","2","84","training","adjacent","ED","5","4","N.jpg","L.jpg","0","0","1","",""
"","feedback","","html-keyboard-response","548","614200","0.0-1.0-762.0-0.0","0","0","88517","","null","","","null","84","","","","","","","","","","","","","","","",""
"","ITI","","html-keyboard-response","549","615220","0.0-1.0-765.0","0","0","88517","","null","","","null","84","","","","","","","","","","","","","","","NaN",""
"","S1","","html-keyboard-response","550","615384","0.0-1.0-767.0","0","0","88517","","null","","","null","85","","","","","","","","","","","","","","","",""
"","ISI","","html-keyboard-response","551","617403","0.0-1.0-768.0","0","0","88517","","null","","","null","85","NaN","","","","","","","","","","","","","","",""
"","S2","","html-keyboard-response","552","617561","0.0-1.0-769.0","0","0","88517","","null","","","null","85","","NaN","","","","","","","","","","","","","",""
"","response","","html-keyboard-response","553","617822","0.0-1.0-770.0-0.0","0","0","88517","","258","","","75","85","","","2","85","training","adjacent","EF","5","6","N.jpg","Q.jpg","1","1","1","",""
"","feedback","","html-keyboard-response","554","618835","0.0-1.0-771.0-0.0","0","0","88517","","null","","","null","85","","","","","","","","","","","","","","","",""
"","ITI","","html-keyboard-response","555","619842","0.0-1.0-774.0","0","0","88517","","null","","","null","85","","","","","","","","","","","","","","","NaN",""
"","S1","","html-keyboard-response","556","620002","0.0-1.0-776.0","0","0","88517","","null","","","null","86","","","","","","","","","","","","","","","",""
"","ISI","","html-keyboard-response","557","622006","0.0-1.0-777.0","0","0","88517","","null","","","null","86","NaN","","","","","","","","","","","","","","",""
"","S2","","html-keyboard-response","558","622162","0.0-1.0-778.0","0","0","88517","","null","","","null","86","","NaN","","","","","","","","","","","","","",""
"","response","","html-keyboard-response","559","622602","0.0-1.0-779.0-0.0","0","0","88517","","437","","","68","86","","","2","86","training","adjacent","BA","2","1","R.jpg","M.jpg","0","0","1","",""
"","feedback","","html-keyboard-response","560","623622","0.0-1.0-780.0-0.0","0","0","88517","","null","","","null","86","","","","","","","","","","","","","","","",""
"","ITI","","html-keyboard-response","561","624631","0.0-1.0-783.0","0","0","88517","","null","","","null","86","","","","","","","","","","","","","","","NaN",""
"","S1","","html-keyboard-response","562","624791","0.0-1.0-785.0","0","0","88517","","null","","","null","87","","","","","","","","","","","","","","","",""
"","ISI","","html-keyboard-response","563","626798","0.0-1.0-786.0","0","0","88517","","null","","","null","87","NaN","","","","","","","","","","","","","","",""
"","S2","","html-keyboard-response","564","626963","0.0-1.0-787.0","0","0","88517","","null","","","null","87","","NaN","","","","","","","","","","","","","",""
"","response","","html-keyboard-response","565","627181","0.0-1.0-788.0-0.0","0","0","88517","","215","","","68","87","","","2","87","training","adjacent","FE","6","5","Q.jpg","N.jpg","0","0","1","",""
"","feedback","","html-keyboard-response","566","628197","0.0-1.0-789.0-0.0","0","0","88517","","null","","","null","87","","","","","","","","","","","","","","","",""
"","ITI","","html-keyboard-response","567","629206","0.0-1.0-792.0","0","0","88517","","null","","","null","87","","","","","","","","","","","","","","","NaN",""
"","S1","","html-keyboard-response","568","629372","0.0-1.0-794.0","0","0","88517","","null","","","null","88","","","","","","","","","","","","","","","",""
"","ISI","","html-keyboard-response","569","631385","0.0-1.0-795.0","0","0","88517","","null","","","null","88","NaN","","","","","","","","","","","","","","",""
"","S2","","html-keyboard-response","570","631549","0.0-1.0-796.0","0","0","88517","","null","","","null","88","","NaN","","","","","","","","","","","","","",""
"","response","","html-keyboard-response","571","631757","0.0-1.0-797.0-0.0","0","0","88517","","205","","","75","88","","","2","88","training","adjacent","AB","1","2","M.jpg","R.jpg","1","1","1","",""
"","feedback","","html-keyboard-response","572","632771","0.0-1.0-798.0-0.0","0","0","88517","","null","","","null","88","","","","","","","","","","","","","","","",""
"","ITI","","html-keyboard-response","573","633777","0.0-1.0-801.0","0","0","88517","","null","","","null","88","","","","","","","","","","","","","","","NaN",""
"","S1","","html-keyboard-response","574","633945","0.0-1.0-803.0","0","0","88517","","null","","","null","89","","","","","","","","","","","","","","","",""
"","ISI","","html-keyboard-response","575","635951","0.0-1.0-804.0","0","0","88517","","null","","","null","89","NaN","","","","","","","","","","","","","","",""
"","S2","","html-keyboard-response","576","636120","0.0-1.0-805.0","0","0","88517","","null","","","null","89","","NaN","","","","","","","","","","","","","",""
"","response","","html-keyboard-response","577","636371","0.0-1.0-806.0-0.0","0","0","88517","","247","","","68","89","","","2","89","training","adjacent","GF","7","6","P.jpg","Q.jpg","0","0","1","",""
"","feedback","","html-keyboard-response","578","637386","0.0-1.0-807.0-0.0","0","0","88517","","null","","","null","89","","","","","","","","","","","","","","","",""
"","ITI","","html-keyboard-response","579","638398","0.0-1.0-810.0","0","0","88517","","null","","","null","89","","","","","","","","","","","","","","","NaN",""
"","S1","","html-keyboard-response","580","638562","0.0-1.0-812.0","0","0","88517","","null","","","null","90","","","","","","","","","","","","","","","",""
"","ISI","","html-keyboard-response","581","640573","0.0-1.0-813.0","0","0","88517","","null","","","null","90","NaN","","","","","","","","","","","","","","",""
"","S2","","html-keyboard-response","582","640734","0.0-1.0-814.0","0","0","88517","","null","","","null","90","","NaN","","","","","","","","","","","","","",""
