"success","ttype","start_time","trial_type","trial_index","time_elapsed","internal_node_id","warning","missed_checkup","PID","view_history","rt","responses","repeat_instructions","key_press","index","keypress_isi","keypress_S2","block","trial_num","phase","group_type","pair_type","S1_stim","S2_stim","S1_img","S2_img","S1_chosen","S1_higher","accuracy","keypress_iti","total_bonus_tally"
"true","full_screen","d03042023hr1838","fullscreen","0","8680","0.0-0.0","0","0","87433","","","","","","","","","","","","","","","","","","","","","",""
"","instructions","","instructions","1","158694","0.0-1.0-0.0-0.0","0","0","87433","[{""page_index"":0,""viewing_time"":48373},{""page_index"":1,""viewing_time"":81540},{""page_index"":2,""viewing_time"":16024},{""page_index"":3,""viewing_time"":4074}]","150012","","","","","","","","","","","","","","","","","","","",""
"","comprehension_check","","survey-multi-choice","2","185826","0.0-1.0-0.0-1.0","0","0","87433","","27128","{""Q0"":""True"",""Q1"":""K"",""Q2"":""Once the second image appears and while the screen 'MAKE A CHOICE' is shown"",""Q3"":""Green mark"",""Q4"":""either D or K""}","0","","","","","","","","","","","","","","","","","",""
"","start_exp","","html-keyboard-response","3","187739","0.0-1.0-1.0","0","0","87433","","1907","","","32","","","","","","","","","","","","","","","","",""
"","S1","","html-keyboard-response","4","187992","0.0-1.0-2.0","0","0","87433","","null","","","null","0","","","","","","","","","","","","","","","",""
"","ISI","","html-keyboard-response","5","188494","0.0-1.0-3.0","0","0","87433","","null","","","null","0","NaN","","","","","","","","","","","","","","",""
"","S2","","html-keyboard-response","6","188747","0.0-1.0-4.0","0","0","87433","","null","","","null","0","","NaN","","","","","","","","","","","","","",""
"","response","","html-keyboard-response","7","189834","0.0-1.0-5.0-0.0","0","0","87433","","1085","","","68","0","","","1","0","training","adjacent","DE","4","5","O.jpg","R.jpg","0","1","0","",""
"","feedback","","html-keyboard-response","8","190837","0.0-1.0-6.0-0.0","0","0","87433","","null","","","null","0","","","","","","","","","","","","","","","",""
"","time_out","","html-keyboard-response","9","192839","0.0-1.0-8.0-0.0","0","0","87433","","null","","","null","0","","","","","","","","","","","","","","","",""
"","ITI","","html-keyboard-response","10","193842","0.0-1.0-9.0","0","0","87433","","null","","","null","0","","","","","","","","","","","","","","","NaN",""
"","S1","","html-keyboard-response","11","194095","0.0-1.0-11.0","0","0","87433","","null","","","null","1","","","","","","","","","","","","","","","",""
"","ISI","","html-keyboard-response","12","194596","0.0-1.0-12.0","0","0","87433","","null","","","null","1","NaN","","","","","","","","","","","","","","",""
"","S2","","html-keyboard-response","13","194850","0.0-1.0-13.0","0","0","87433","","null","","","null","1","","NaN","","","","","","","","","","","","","",""
"","response","","html-keyboard-response","14","195130","0.0-1.0-14.0-0.0","0","0","87433","","277","","","75","1","","","1","1","training","adjacent","EF","5","6","R.jpg","Q.jpg","1","1","1","",""
"","feedback","","html-keyboard-response","15","196133","0.0-1.0-15.0-0.0","0","0","87433","","null","","","null","1","","","","","","","","","","","","","","","",""
"","ITI","","html-keyboard-response","16","197136","0.0-1.0-18.0","0","0","87433","","null","","","null","1","","","","","","","","","","","","","","","NaN",""
"","S1","","html-keyboard-response","17","197388","0.0-1.0-20.0","0","0","87433","","null","","","null","2","","","","","","","","","","","","","","","",""
"","ISI","","html-keyboard-response","18","197890","0.0-1.0-21.0","0","0","87433","","null","","","null","2","NaN","","","","","","","","","","","","","","",""
"","S2","","html-keyboard-response","19","198144","0.0-1.0-22.0","0","0","87433","","null","","","null","2","","NaN","","","","","","","","","","","","","",""
"","response","","html-keyboard-response","20","198485","0.0-1.0-23.0-0.0","0","0","87433","","338","","","68","2","","","1","2","training","adjacent","BA","2","1","M.jpg","N.jpg","0","0","1","",""
"","feedback","","html-keyboard-response","21","199487","0.0-1.0-24.0-0.0","0","0","87433","","null","","","null","2","","","","","","","","","","","","","","","",""
"","ITI","","html-keyboard-response","22","200489","0.0-1.0-27.0","0","0","87433","","null","","","null","2","","","","","","","","","","","","","","","NaN",""
"","S1","","html-keyboard-response","23","200742","0.0-1.0-29.0","0","0","87433","","null","","","null","3","","","","","","","","","","","","","","","",""
"","ISI","","html-keyboard-response","24","201244","0.0-1.0-30.0","0","0","87433","","null","","","null","3","NaN","","","","","","","","","","","","","","",""
"","S2","","html-keyboard-response","25","201496","0.0-1.0-31.0","0","0","87433","","null","","","null","3","","NaN","","","","","","","","","","","","","",""
"","response","","html-keyboard-response","26","201892","0.0-1.0-32.0-0.0","0","0","87433","","393","","","68","3","","","1","3","training","adjacent","BC","2","3","M.jpg","L.jpg","0","1","0","",""
"","feedback","","html-keyboard-response","27","202902","0.0-1.0-33.0-0.0","0","0","87433","","null","","","null","3","","","","","","","","","","","","","","","",""
"","time_out","","html-keyboard-response","28","204904","0.0-1.0-35.0-0.0","0","0","87433","","null","","","null","3","","","","","","","","","","","","","","","",""
"","ITI","","html-keyboard-response","29","205906","0.0-1.0-36.0","0","0","87433","","null","","","null","3","","","","","","","","","","","","","","","NaN",""
"","S1","","html-keyboard-response","30","206158","0.0-1.0-38.0","0","0","87433","","null","","","null","4","","","","","","","","","","","","","","","",""
"","ISI","","html-keyboard-response","31","206661","0.0-1.0-39.0","0","0","87433","","null","","","null","4","NaN","","","","","","","","","","","","","","",""
"","S2","","html-keyboard-response","32","206663","0.0-1.0-40.0","0","0","87433","","0","","","75","4","","k","1","4","training","adjacent","AB","1","2","N.jpg","M.jpg","1","1","1","",""
"","feedback","","html-keyboard-response","33","207668","0.0-1.0-42.0-0.0","0","0","87433","","null","","","null","4","","","","","","","","","","","","","","","",""
"","ITI","","html-keyboard-response","34","208669","0.0-1.0-45.0","0","0","87433","","null","","","null","4","","","","","","","","","","","","","","","NaN",""
"","S1","","html-keyboard-response","35","208922","0.0-1.0-47.0","0","0","87433","","null","","","null","5","","","","","","","","","","","","","","","",""
"","ISI","","html-keyboard-response","36","209424","0.0-1.0-48.0","0","0","87433","","332","","","75","5","k","","","","","","","","","","","","","","",""
"","S2","","html-keyboard-response","37","209595","0.0-1.0-49.0","0","0","87433","","170","","","75","5","","k","1","5","training","adjacent","CB","3","2","L.jpg","M.jpg","1","0","0","",""
"","feedback","","html-keyboard-response","38","210598","0.0-1.0-51.0-0.0","0","0","87433","","null","","","null","5","","","","","","","","","","","","","","","",""
"","time_out","","html-keyboard-response","39","212601","0.0-1.0-53.0-0.0","0","0","87433","","null","","","null","5","","","","","","","","","","","","","","","",""
"","ITI","","html-keyboard-response","40","213603","0.0-1.0-54.0","0","0","87433","","null","","","null","5","","","","","","","","","","","","","","","NaN",""
"","S1","","html-keyboard-response","41","213855","0.0-1.0-56.0","0","0","87433","","null","","","null","6","","","","","","","","","","","","","","","",""
"","ISI","","html-keyboard-response","42","214358","0.0-1.0-57.0","0","0","87433","","null","","","null","6","NaN","","","","","","","","","","","","","","",""
"","S2","","html-keyboard-response","43","214547","0.0-1.0-58.0","0","0","87433","","187","","","68","6","","d","1","6","training","adjacent","DC","4","3","O.jpg","L.jpg","0","0","1","",""
"","feedback","","html-keyboard-response","44","215549","0.0-1.0-60.0-0.0","0","0","87433","","null","","","null","6","","","","","","","","","","","","","","","",""
"","ITI","","html-keyboard-response","45","216553","0.0-1.0-63.0","0","0","87433","","null","","","null","6","","","","","","","","","","","","","","","NaN",""
"","S1","","html-keyboard-response","46","216804","0.0-1.0-65.0","0","0","87433","","null","","","null","7","","","","","","","","","","","","","","","",""
"","ISI","","html-keyboard-response","47","217306","0.0-1.0-66.0","0","0","87433","","464","","","75","7","k","","","","","","","","","","","","","","",""
"","S2","","html-keyboard-response","48","217558","0.0-1.0-67.0","0","0","87433","","null","","","null","7","","NaN","","","","","","","","","","","","","",""
"","response","","html-keyboard-response","49","217570","0.0-1.0-68.0-0.0","0","0","87433","","9","","","75","7","","","1","7","training","adjacent","CD","3","4","L.jpg","O.jpg","1","1","1","",""
"","feedback","","html-keyboard-response","50","218572","0.0-1.0-69.0-0.0","0","0","87433","","null","","","null","7","","","","","","","","","","","","","","","",""
"","ITI","","html-keyboard-response","51","219574","0.0-1.0-72.0","0","0","87433","","null","","","null","7","","","","","","","","","","","","","","","NaN",""
"","S1","","html-keyboard-response","52","219827","0.0-1.0-74.0","0","0","87433","","null","","","null","8","","","","","","","","","","","","","","","",""
"","ISI","","html-keyboard-response","53","220328","0.0-1.0-75.0","0","0","87433","","null","","","null","8","NaN","","","","","","","","","","","","","","",""
"","S2","","html-keyboard-response","54","220499","0.0-1.0-76.0","0","0","87433","","168","","","68","8","","d","1","8","training","adjacent","BC","2","3","M.jpg","L.jpg","0","1","0","",""
"","feedback","","html-keyboard-response","55","221501","0.0-1.0-78.0-0.0","0","0","87433","","null","","","null","8","","","","","","","","","","","","","","","",""
"","time_out","","html-keyboard-response","56","223503","0.0-1.0-80.0-0.0","0","0","87433","","null","","","null","8","","","","","","","","","","","","","","","",""
"","ITI","","html-keyboard-response","57","224505","0.0-1.0-81.0","0","0","87433","","null","","","null","8","","","","","","","","","","","","","","","NaN",""
"","S1","","html-keyboard-response","58","224758","0.0-1.0-83.0","0","0","87433","","null","","","null","9","","","","","","","","","","","","","","","",""
"","ISI","","html-keyboard-response","59","225261","0.0-1.0-84.0","0","0","87433","","null","","","null","9","NaN","","","","","","","","","","","","","","",""
"","S2","","html-keyboard-response","60","225301","0.0-1.0-85.0","0","0","87433","","38","","","68","9","","d","1","9","training","adjacent","BA","2","1","M.jpg","N.jpg","0","0","1","",""
"","feedback","","html-keyboard-response","61","226303","0.0-1.0-87.0-0.0","0","0","87433","","null","","","null","9","","","","","","","","","","","","","","","",""
"","ITI","","html-keyboard-response","62","227305","0.0-1.0-90.0","0","0","87433","","null","","","null","9","","","","","","","","","","","","","","","NaN",""
"","S1","","html-keyboard-response","63","227558","0.0-1.0-92.0","0","0","87433","","null","","","null","10","","","","","","","","","","","","","","","",""
"","ISI","","html-keyboard-response","64","228060","0.0-1.0-93.0","0","0","87433","","null","","","null","10","NaN","","","","","","","","","","","","","","",""
"","S2","","html-keyboard-response","65","228313","0.0-1.0-94.0","0","0","87433","","null","","","null","10","","NaN","","","","","","","","","","","","","",""
"","response","","html-keyboard-response","66","228335","0.0-1.0-95.0-0.0","0","0","87433","","21","","","68","10","","","1","10","training","adjacent","ED","5","4","R.jpg","O.jpg","0","0","1","",""
"","feedback","","html-keyboard-response","67","229338","0.0-1.0-96.0-0.0","0","0","87433","","null","","","null","10","","","","","","","","","","","","","","","",""
"","ITI","","html-keyboard-response","68","230340","0.0-1.0-99.0","0","0","87433","","null","","","null","10","","","","","","","","","","","","","","","NaN",""
"","S1","","html-keyboard-response","69","230592","0.0-1.0-101.0","0","0","87433","","null","","","null","11","","","","","","","","","","","","","","","",""
"","ISI","","html-keyboard-response","70","231094","0.0-1.0-102.0","0","0","87433","","null","","","null","11","NaN","","","","","","","","","","","","","","",""
"","S2","","html-keyboard-response","71","231257","0.0-1.0-103.0","0","0","87433","","161","","","75","11","","k","1","11","training","adjacent","CD","3","4","L.jpg","O.jpg","1","1","1","",""
"","feedback","","html-keyboard-response","72","232259","0.0-1.0-105.0-0.0","0","0","87433","","null","","","null","11","","","","","","","","","","","","","","","",""
"","ITI","","html-keyboard-response","73","233262","0.0-1.0-108.0","0","0","87433","","null","","","null","11","","","","","","","","","","","","","","","NaN",""
"","S1","","html-keyboard-response","74","233515","0.0-1.0-110.0","0","0","87433","","null","","","null","12","","","","","","","","","","","","","","","",""
"","ISI","","html-keyboard-response","75","234018","0.0-1.0-111.0","0","0","87433","","null","","","null","12","NaN","","","","","","","","","","","","","","",""
"","S2","","html-keyboard-response","76","234152","0.0-1.0-112.0","0","0","87433","","131","","","68","12","","d","1","12","training","adjacent","GF","7","6","P.jpg","Q.jpg","0","0","1","",""
"","feedback","","html-keyboard-response","77","235154","0.0-1.0-114.0-0.0","0","0","87433","","null","","","null","12","","","","","","","","","","","","","","","",""
"","ITI","","html-keyboard-response","78","236157","0.0-1.0-117.0","0","0","87433","","null","","","null","12","","","","","","","","","","","","","","","NaN",""
"","S1","","html-keyboard-response","79","236409","0.0-1.0-119.0","0","0","87433","","null","","","null","13","","","","","","","","","","","","","","","",""
"","ISI","","html-keyboard-response","80","236911","0.0-1.0-120.0","0","0","87433","","null","","","null","13","NaN","","","","","","","","","","","","","","",""
"","S2","","html-keyboard-response","81","237164","0.0-1.0-121.0","0","0","87433","","null","","","null","13","","NaN","","","","","","","","","","","","","",""
"","response","","html-keyboard-response","82","237308","0.0-1.0-122.0-0.0","0","0","87433","","142","","","68","13","","","1","13","training","adjacent","DC","4","3","O.jpg","L.jpg","0","0","1","",""
"","feedback","","html-keyboard-response","83","238311","0.0-1.0-123.0-0.0","0","0","87433","","null","","","null","13","","","","","","","","","","","","","","","",""
"","ITI","","html-keyboard-response","84","239314","0.0-1.0-126.0","0","0","87433","","null","","","null","13","","","","","","","","","","","","","","","NaN",""
"","S1","","html-keyboard-response","85","239566","0.0-1.0-128.0","0","0","87433","","null","","","null","14","","","","","","","","","","","","","","","",""
"","ISI","","html-keyboard-response","86","240069","0.0-1.0-129.0","0","0","87433","","null","","","null","14","NaN","","","","","","","","","","","","","","",""
"","S2","","html-keyboard-response","87","240179","0.0-1.0-130.0","0","0","87433","","109","","","68","14","","d","1","14","training","adjacent","BC","2","3","M.jpg","L.jpg","0","1","0","",""
"","feedback","","html-keyboard-response","88","241182","0.0-1.0-132.0-0.0","0","0","87433","","null","","","null","14","","","","","","","","","","","","","","","",""
"","time_out","","html-keyboard-response","89","243183","0.0-1.0-134.0-0.0","0","0","87433","","null","","","null","14","","","","","","","","","","","","","","","",""
"","ITI","","html-keyboard-response","90","244185","0.0-1.0-135.0","0","0","87433","","null","","","null","14","","","","","","","","","","","","","","","NaN",""
"","S1","","html-keyboard-response","91","244437","0.0-1.0-137.0","0","0","87433","","null","","","null","15","","","","","","","","","","","","","","","",""
"","ISI","","html-keyboard-response","92","244938","0.0-1.0-138.0","0","0","87433","","null","","","null","15","NaN","","","","","","","","","","","","","","",""
"","S2","","html-keyboard-response","93","245191","0.0-1.0-139.0","0","0","87433","","null","","","null","15","","NaN","","","","","","","","","","","","","",""
"","response","","html-keyboard-response","94","245290","0.0-1.0-140.0-0.0","0","0","87433","","97","","","68","15","","","1","15","training","adjacent","AB","1","2","N.jpg","M.jpg","0","1","0","",""
"","feedback","","html-keyboard-response","95","246293","0.0-1.0-141.0-0.0","0","0","87433","","null","","","null","15","","","","","","","","","","","","","","","",""
"","time_out","","html-keyboard-response","96","248297","0.0-1.0-143.0-0.0","0","0","87433","","null","","","null","15","","","","","","","","","","","","","","","",""
"","ITI","","html-keyboard-response","97","249298","0.0-1.0-144.0","0","0","87433","","null","","","null","15","","","","","","","","","","","","","","","NaN",""
"","S1","","html-keyboard-response","98","249561","0.0-1.0-146.0","0","0","87433","","null","","","null","16","","","","","","","","","","","","","","","",""
"","ISI","","html-keyboard-response","99","250062","0.0-1.0-147.0","0","0","87433","","null","","","null","16","NaN","","","","","","","","","","","","","","",""
"","S2","","html-keyboard-response","100","250315","0.0-1.0-148.0","0","0","87433","","null","","","null","16","","NaN","","","","","","","","","","","","","",""
"","response","","html-keyboard-response","101","250390","0.0-1.0-149.0-0.0","0","0","87433","","72","","","75","16","","","1","16","training","adjacent","DC","4","3","O.jpg","L.jpg","1","0","0","",""
"","feedback","","html-keyboard-response","102","251392","0.0-1.0-150.0-0.0","0","0","87433","","null","","","null","16","","","","","","","","","","","","","","","",""
"","time_out","","html-keyboard-response","103","253394","0.0-1.0-152.0-0.0","0","0","87433","","null","","","null","16","","","","","","","","","","","","","","","",""
"","ITI","","html-keyboard-response","104","254396","0.0-1.0-153.0","0","0","87433","","null","","","null","16","","","","","","","","","","","","","","","NaN",""
"","S1","","html-keyboard-response","105","254648","0.0-1.0-155.0","0","0","87433","","null","","","null","17","","","","","","","","","","","","","","","",""
"","ISI","","html-keyboard-response","106","255151","0.0-1.0-156.0","0","0","87433","","null","","","null","17","NaN","","","","","","","","","","","","","","",""
"","S2","","html-keyboard-response","107","255403","0.0-1.0-157.0","0","0","87433","","null","","","null","17","","NaN","","","","","","","","","","","","","",""
"","response","","html-keyboard-response","108","255448","0.0-1.0-158.0-0.0","0","0","87433","","43","","","75","17","","","1","17","training","adjacent","CD","3","4","L.jpg","O.jpg","1","1","1","",""
"","feedback","","html-keyboard-response","109","256451","0.0-1.0-159.0-0.0","0","0","87433","","null","","","null","17","","","","","","","","","","","","","","","",""
"","ITI","","html-keyboard-response","110","257453","0.0-1.0-162.0","0","0","87433","","null","","","null","17","","","","","","","","","","","","","","","NaN",""
"","S1","","html-keyboard-response","111","257705","0.0-1.0-164.0","0","0","87433","","null","","","null","18","","","","","","","","","","","","","","","",""
"","ISI","","html-keyboard-response","112","258208","0.0-1.0-165.0","0","0","87433","","null","","","null","18","NaN","","","","","","","","","","","","","","",""
"","S2","","html-keyboard-response","113","258460","0.0-1.0-166.0","0","0","87433","","null","","","null","18","","NaN","","","","","","","","","","","","","",""
"","response","","html-keyboard-response","114","258551","0.0-1.0-167.0-0.0","0","0","87433","","88","","","75","18","","","1","18","training","adjacent","DE","4","5","O.jpg","R.jpg","1","1","1","",""
"","feedback","","html-keyboard-response","115","259562","0.0-1.0-168.0-0.0","0","0","87433","","null","","","null","18","","","","","","","","","","","","","","","",""
"","ITI","","html-keyboard-response","116","260565","0.0-1.0-171.0","0","0","87433","","null","","","null","18","","","","","","","","","","","","","","","NaN",""
"","S1","","html-keyboard-response","117","260818","0.0-1.0-173.0","0","0","87433","","null","","","null","19","","","","","","","","","","","","","","","",""
"","ISI","","html-keyboard-response","118","261321","0.0-1.0-174.0","0","0","87433","","485","","","75","19","k","","","","","","","","","","","","","","",""
"","S2","","html-keyboard-response","119","261573","0.0-1.0-175.0","0","0","87433","","null","","","null","19","","NaN","","","","","","","","","","","","","",""
"","response","","html-keyboard-response","120","261704","0.0-1.0-176.0-0.0","0","0","87433","","129","","","75","19","","","1","19","training","adjacent","DE","4","5","O.jpg","R.jpg","1","1","1","",""
"","feedback","","html-keyboard-response","121","262706","0.0-1.0-177.0-0.0","0","0","87433","","null","","","null","19","","","","","","","","","","","","","","","",""
"","ITI","","html-keyboard-response","122","263708","0.0-1.0-180.0","0","0","87433","","null","","","null","19","","","","","","","","","","","","","","","NaN",""
"","S1","","html-keyboard-response","123","263960","0.0-1.0-182.0","0","0","87433","","null","","","null","20","","","","","","","","","","","","","","","",""
"","ISI","","html-keyboard-response","124","264462","0.0-1.0-183.0","0","0","87433","","null","","","null","20","NaN","","","","","","","","","","","","","","",""
"","S2","","html-keyboard-response","125","264480","0.0-1.0-184.0","0","0","87433","","15","","","75","20","","k","1","20","training","adjacent","EF","5","6","R.jpg","Q.jpg","1","1","1","",""
"","feedback","","html-keyboard-response","126","265482","0.0-1.0-186.0-0.0","0","0","87433","","null","","","null","20","","","","","","","","","","","","","","","",""
"","ITI","","html-keyboard-response","127","266484","0.0-1.0-189.0","0","0","87433","","null","","","null","20","","","","","","","","","","","","","","","NaN",""
"","S1","","html-keyboard-response","128","266737","0.0-1.0-191.0","0","0","87433","","null","","","null","21","","","","","","","","","","","","","","","",""
"","ISI","","html-keyboard-response","129","267239","0.0-1.0-192.0","0","0","87433","","23","","","75","21","k","","","","","","","","","","","","","","",""
"","S2","","html-keyboard-response","130","267492","0.0-1.0-193.0","0","0","87433","","null","","","null","21","","NaN","","","","","","","","","","","","","",""
"","response","","html-keyboard-response","131","267673","0.0-1.0-194.0-0.0","0","0","87433","","180","","","68","21","","","1","21","training","adjacent","FE","6","5","Q.jpg","R.jpg","0","0","1","",""
"","feedback","","html-keyboard-response","132","268675","0.0-1.0-195.0-0.0","0","0","87433","","null","","","null","21","","","","","","","","","","","","","","","",""
"","ITI","","html-keyboard-response","133","269677","0.0-1.0-198.0","0","0","87433","","null","","","null","21","","","","","","","","","","","","","","","NaN",""
"","S1","","html-keyboard-response","134","269930","0.0-1.0-200.0","0","0","87433","","null","","","null","22","","","","","","","","","","","","","","","",""
"","ISI","","html-keyboard-response","135","270443","0.0-1.0-201.0","0","0","87433","","null","","","null","22","NaN","","","","","","","","","","","","","","",""
"","S2","","html-keyboard-response","136","270506","0.0-1.0-202.0","0","0","87433","","60","","","75","22","","k","1","22","training","adjacent","ED","5","4","R.jpg","O.jpg","1","0","0","",""
"","feedback","","html-keyboard-response","137","271508","0.0-1.0-204.0-0.0","0","0","87433","","null","","","null","22","","","","","","","","","","","","","","","",""
"","time_out","","html-keyboard-response","138","273510","0.0-1.0-206.0-0.0","0","0","87433","","null","","","null","22","","","","","","","","","","","","","","","",""
"","ITI","","html-keyboard-response","139","274512","0.0-1.0-207.0","0","0","87433","","null","","","null","22","","","","","","","","","","","","","","","NaN",""
"","S1","","html-keyboard-response","140","274764","0.0-1.0-209.0","0","0","87433","","null","","","null","23","","","","","","","","","","","","","","","",""
"","ISI","","html-keyboard-response","141","275268","0.0-1.0-210.0","0","0","87433","","null","","","null","23","NaN","","","","","","","","","","","","","","",""
"","S2","","html-keyboard-response","142","275383","0.0-1.0-211.0","0","0","87433","","113","","","75","23","","k","1","23","training","adjacent","EF","5","6","R.jpg","Q.jpg","1","1","1","",""
"","feedback","","html-keyboard-response","143","276385","0.0-1.0-213.0-0.0","0","0","87433","","null","","","null","23","","","","","","","","","","","","","","","",""
"","ITI","","html-keyboard-response","144","277388","0.0-1.0-216.0","0","0","87433","","null","","","null","23","","","","","","","","","","","","","","","NaN",""
"","S1","","html-keyboard-response","145","277639","0.0-1.0-218.0","0","0","87433","","null","","","null","24","","","","","","","","","","","","","","","",""
"","ISI","","html-keyboard-response","146","278142","0.0-1.0-219.0","0","0","87433","","475","","","75","24","k","","","","","","","","","","","","","","",""
"","S2","","html-keyboard-response","147","278395","0.0-1.0-220.0","0","0","87433","","null","","","null","24","","NaN","","","","","","","","","","","","","",""
"","response","","html-keyboard-response","148","278474","0.0-1.0-221.0-0.0","0","0","87433","","78","","","75","24","","","1","24","training","adjacent","DC","4","3","O.jpg","L.jpg","1","0","0","",""
"","feedback","","html-keyboard-response","149","279476","0.0-1.0-222.0-0.0","0","0","87433","","null","","","null","24","","","","","","","","","","","","","","","",""
"","time_out","","html-keyboard-response","150","281479","0.0-1.0-224.0-0.0","0","0","87433","","null","","","null","24","","","","","","","","","","","","","","","",""
"","ITI","","html-keyboard-response","151","282481","0.0-1.0-225.0","0","0","87433","","null","","","null","24","","","","","","","","","","","","","","","NaN",""
"","S1","","html-keyboard-response","152","282733","0.0-1.0-227.0","0","0","87433","","null","","","null","25","","","","","","","","","","","","","","","",""
"","ISI","","html-keyboard-response","153","283234","0.0-1.0-228.0","0","0","87433","","null","","","null","25","NaN","","","","","","","","","","","","","","",""
"","S2","","html-keyboard-response","154","283253","0.0-1.0-229.0","0","0","87433","","16","","","75","25","","k","1","25","training","adjacent","ED","5","4","R.jpg","O.jpg","1","0","0","",""
"","feedback","","html-keyboard-response","155","284254","0.0-1.0-231.0-0.0","0","0","87433","","null","","","null","25","","","","","","","","","","","","","","","",""
"","time_out","","html-keyboard-response","156","286258","0.0-1.0-233.0-0.0","0","0","87433","","null","","","null","25","","","","","","","","","","","","","","","",""
"","ITI","","html-keyboard-response","157","287259","0.0-1.0-234.0","0","0","87433","","null","","","null","25","","","","","","","","","","","","","","","NaN",""
"","S1","","html-keyboard-response","158","287511","0.0-1.0-236.0","0","0","87433","","null","","","null","26","","","","","","","","","","","","","","","",""
"","ISI","","html-keyboard-response","159","288013","0.0-1.0-237.0","0","0","87433","","305","","","68","26","d","","","","","","","","","","","","","","",""
"","S2","","html-keyboard-response","160","288116","0.0-1.0-238.0","0","0","87433","","100","","","68","26","","d","1","26","training","adjacent","FE","6","5","Q.jpg","R.jpg","0","0","1","",""
"","feedback","","html-keyboard-response","161","289118","0.0-1.0-240.0-0.0","0","0","87433","","null","","","null","26","","","","","","","","","","","","","","","",""
"","ITI","","html-keyboard-response","162","290120","0.0-1.0-243.0","0","0","87433","","null","","","null","26","","","","","","","","","","","","","","","NaN",""
"","S1","","html-keyboard-response","163","290372","0.0-1.0-245.0","0","0","87433","","null","","","null","27","","","","","","","","","","","","","","","",""
"","ISI","","html-keyboard-response","164","290875","0.0-1.0-246.0","0","0","87433","","null","","","null","27","NaN","","","","","","","","","","","","","","",""
"","S2","","html-keyboard-response","165","290944","0.0-1.0-247.0","0","0","87433","","67","","","75","27","","k","1","27","training","adjacent","AB","1","2","N.jpg","M.jpg","1","1","1","",""
"","feedback","","html-keyboard-response","166","291946","0.0-1.0-249.0-0.0","0","0","87433","","null","","","null","27","","","","","","","","","","","","","","","",""
"","ITI","","html-keyboard-response","167","292949","0.0-1.0-252.0","0","0","87433","","null","","","null","27","","","","","","","","","","","","","","","NaN",""
"","S1","","html-keyboard-response","168","293202","0.0-1.0-254.0","0","0","87433","","null","","","null","28","","","","","","","","","","","","","","","",""
"","ISI","","html-keyboard-response","169","293703","0.0-1.0-255.0","0","0","87433","","431","","","75","28","k","","","","","","","","","","","","","","",""
"","S2","","html-keyboard-response","170","293956","0.0-1.0-256.0","0","0","87433","","null","","","null","28","","NaN","","","","","","","","","","","","","",""
"","response","","html-keyboard-response","171","294016","0.0-1.0-257.0-0.0","0","0","87433","","57","","","75","28","","","1","28","training","adjacent","BA","2","1","M.jpg","N.jpg","1","0","0","",""
"","feedback","","html-keyboard-response","172","295018","0.0-1.0-258.0-0.0","0","0","87433","","null","","","null","28","","","","","","","","","","","","","","","",""
"","time_out","","html-keyboard-response","173","297020","0.0-1.0-260.0-0.0","0","0","87433","","null","","","null","28","","","","","","","","","","","","","","","",""
"","ITI","","html-keyboard-response","174","298022","0.0-1.0-261.0","0","0","87433","","null","","","null","28","","","","","","","","","","","","","","","NaN",""
"","S1","","html-keyboard-response","175","298286","0.0-1.0-263.0","0","0","87433","","null","","","null","29","","","","","","","","","","","","","","","",""
"","ISI","","html-keyboard-response","176","298788","0.0-1.0-264.0","0","0","87433","","null","","","null","29","NaN","","","","","","","","","","","","","","",""
"","S2","","html-keyboard-response","177","298938","0.0-1.0-265.0","0","0","87433","","148","","","75","29","","k","1","29","training","adjacent","FG","6","7","Q.jpg","P.jpg","1","1","1","",""
"","feedback","","html-keyboard-response","178","299941","0.0-1.0-267.0-0.0","0","0","87433","","null","","","null","29","","","","","","","","","","","","","","","",""
"","ITI","","html-keyboard-response","179","300943","0.0-1.0-270.0","0","0","87433","","null","","","null","29","","","","","","","","","","","","","","","NaN",""
"","S1","","html-keyboard-response","180","301196","0.0-1.0-272.0","0","0","87433","","null","","","null","30","","","","","","","","","","","","","","","",""
"","ISI","","html-keyboard-response","181","301699","0.0-1.0-273.0","0","0","87433","","null","","","null","30","NaN","","","","","","","","","","","","","","",""
"","S2","","html-keyboard-response","182","301952","0.0-1.0-274.0","0","0","87433","","null","","","null","30","","NaN","","","","","","","","","","","","","",""
"","response","","html-keyboard-response","183","301962","0.0-1.0-275.0-0.0","0","0","87433","","8","","","75","30","","","1","30","training","adjacent","AB","1","2","N.jpg","M.jpg","1","1","1","",""
"","feedback","","html-keyboard-response","184","302964","0.0-1.0-276.0-0.0","0","0","87433","","null","","","null","30","","","","","","","","","","","","","","","",""
"","ITI","","html-keyboard-response","185","303966","0.0-1.0-279.0","0","0","87433","","null","","","null","30","","","","","","","","","","","","","","","NaN",""
"","S1","","html-keyboard-response","186","304218","0.0-1.0-281.0","0","0","87433","","null","","","null","31","","","","","","","","","","","","","","","",""
"","ISI","","html-keyboard-response","187","304720","0.0-1.0-282.0","0","0","87433","","452","","","75","31","k","","","","","","","","","","","","","","",""
"","S2","","html-keyboard-response","188","304972","0.0-1.0-283.0","0","0","87433","","null","","","null","31","","NaN","","","","","","","","","","","","","",""
"","response","","html-keyboard-response","189","305052","0.0-1.0-284.0-0.0","0","0","87433","","77","","","75","31","","","1","31","training","adjacent","GF","7","6","P.jpg","Q.jpg","1","0","0","",""
"","feedback","","html-keyboard-response","190","306054","0.0-1.0-285.0-0.0","0","0","87433","","null","","","null","31","","","","","","","","","","","","","","","",""
"","time_out","","html-keyboard-response","191","308056","0.0-1.0-287.0-0.0","0","0","87433","","null","","","null","31","","","","","","","","","","","","","","","",""
"","ITI","","html-keyboard-response","192","309058","0.0-1.0-288.0","0","0","87433","","null","","","null","31","","","","","","","","","","","","","","","NaN",""
"","S1","","html-keyboard-response","193","309311","0.0-1.0-290.0","0","0","87433","","null","","","null","32","","","","","","","","","","","","","","","",""
"","ISI","","html-keyboard-response","194","309813","0.0-1.0-291.0","0","0","87433","","326","","","75","32","k","","","","","","","","","","","","","","",""
"","S2","","html-keyboard-response","195","309903","0.0-1.0-292.0","0","0","87433","","88","","","75","32","","k","1","32","training","adjacent","BC","2","3","M.jpg","L.jpg","1","1","1","",""
"","feedback","","html-keyboard-response","196","310905","0.0-1.0-294.0-0.0","0","0","87433","","null","","","null","32","","","","","","","","","","","","","","","",""
"","ITI","","html-keyboard-response","197","311908","0.0-1.0-297.0","0","0","87433","","null","","","null","32","","","","","","","","","","","","","","","NaN",""
"","S1","","html-keyboard-response","198","312160","0.0-1.0-299.0","0","0","87433","","null","","","null","33","","","","","","","","","","","","","","","",""
"","ISI","","html-keyboard-response","199","312662","0.0-1.0-300.0","0","0","87433","","null","","","null","33","NaN","","","","","","","","","","","","","","",""
"","S2","","html-keyboard-response","200","312915","0.0-1.0-301.0","0","0","87433","","null","","","null","33","","NaN","","","","","","","","","","","","","",""
"","response","","html-keyboard-response","201","313247","0.0-1.0-302.0-0.0","0","0","87433","","330","","","68","33","","","1","33","training","adjacent","EF","5","6","R.jpg","Q.jpg","0","1","0","",""
"","feedback","","html-keyboard-response","202","314250","0.0-1.0-303.0-0.0","0","0","87433","","null","","","null","33","","","","","","","","","","","","","","","",""
"","time_out","","html-keyboard-response","203","316253","0.0-1.0-305.0-0.0","0","0","87433","","null","","","null","33","","","","","","","","","","","","","","","",""
"","ITI","","html-keyboard-response","204","317254","0.0-1.0-306.0","0","0","87433","","null","","","null","33","","","","","","","","","","","","","","","NaN",""
"","S1","","html-keyboard-response","205","317506","0.0-1.0-308.0","0","0","87433","","null","","","null","34","","","","","","","","","","","","","","","",""
"","ISI","","html-keyboard-response","206","318009","0.0-1.0-309.0","0","0","87433","","null","","","null","34","NaN","","","","","","","","","","","","","","",""
"","S2","","html-keyboard-response","207","318042","0.0-1.0-310.0","0","0","87433","","31","","","75","34","","k","1","34","training","adjacent","DE","4","5","O.jpg","R.jpg","1","1","1","",""
"","feedback","","html-keyboard-response","208","319045","0.0-1.0-312.0-0.0","0","0","87433","","null","","","null","34","","","","","","","","","","","","","","","",""
"","ITI","","html-keyboard-response","209","320063","0.0-1.0-315.0","0","0","87433","","null","","","null","34","","","","","","","","","","","","","","","NaN",""
"","S1","","html-keyboard-response","210","320315","0.0-1.0-317.0","0","0","87433","","null","","","null","35","","","","","","","","","","","","","","","",""
"","ISI","","html-keyboard-response","211","320818","0.0-1.0-318.0","0","0","87433","","null","","","null","35","NaN","","","","","","","","","","","","","","",""
"","S2","","html-keyboard-response","212","320922","0.0-1.0-319.0","0","0","87433","","101","","","68","35","","d","1","35","training","adjacent","FE","6","5","Q.jpg","R.jpg","0","0","1","",""
"","feedback","","html-keyboard-response","213","321924","0.0-1.0-321.0-0.0","0","0","87433","","null","","","null","35","","","","","","","","","","","","","","","",""
"","ITI","","html-keyboard-response","214","322927","0.0-1.0-324.0","0","0","87433","","null","","","null","35","","","","","","","","","","","","","","","NaN",""
"","S1","","html-keyboard-response","215","323179","0.0-1.0-326.0","0","0","87433","","null","","","null","36","","","","","","","","","","","","","","","",""
"","ISI","","html-keyboard-response","216","323682","0.0-1.0-327.0","0","0","87433","","null","","","null","36","NaN","","","","","","","","","","","","","","",""
"","S2","","html-keyboard-response","217","323932","0.0-1.0-328.0","0","0","87433","","248","","","75","36","","k","1","36","training","adjacent","CB","3","2","L.jpg","M.jpg","1","0","0","",""
"","feedback","","html-keyboard-response","218","324935","0.0-1.0-330.0-0.0","0","0","87433","","null","","","null","36","","","","","","","","","","","","","","","",""
"","time_out","","html-keyboard-response","219","326936","0.0-1.0-332.0-0.0","0","0","87433","","null","","","null","36","","","","","","","","","","","","","","","",""
"","ITI","","html-keyboard-response","220","327939","0.0-1.0-333.0","0","0","87433","","null","","","null","36","","","","","","","","","","","","","","","NaN",""
"","S1","","html-keyboard-response","221","328191","0.0-1.0-335.0","0","0","87433","","null","","","null","37","","","","","","","","","","","","","","","",""
"","ISI","","html-keyboard-response","222","328694","0.0-1.0-336.0","0","0","87433","","null","","","null","37","NaN","","","","","","","","","","","","","","",""
"","S2","","html-keyboard-response","223","328792","0.0-1.0-337.0","0","0","87433","","96","","","75","37","","k","1","37","training","adjacent","GF","7","6","P.jpg","Q.jpg","1","0","0","",""
"","feedback","","html-keyboard-response","224","329795","0.0-1.0-339.0-0.0","0","0","87433","","null","","","null","37","","","","","","","","","","","","","","","",""
"","time_out","","html-keyboard-response","225","331796","0.0-1.0-341.0-0.0","0","0","87433","","null","","","null","37","","","","","","","","","","","","","","","",""
"","ITI","","html-keyboard-response","226","332799","0.0-1.0-342.0","0","0","87433","","null","","","null","37","","","","","","","","","","","","","","","NaN",""
"","S1","","html-keyboard-response","227","333050","0.0-1.0-344.0","0","0","87433","","null","","","null","38","","","","","","","","","","","","","","","",""
"","ISI","","html-keyboard-response","228","333552","0.0-1.0-345.0","0","0","87433","","439","","","68","38","d","","","","","","","","","","","","","","",""
"","S2","","html-keyboard-response","229","333805","0.0-1.0-346.0","0","0","87433","","null","","","null","38","","NaN","","","","","","","","","","","","","",""
"","response","","html-keyboard-response","230","333962","0.0-1.0-347.0-0.0","0","0","87433","","155","","","68","38","","","1","38","training","adjacent","FG","6","7","Q.jpg","P.jpg","0","1","0","",""
"","feedback","","html-keyboard-response","231","334965","0.0-1.0-348.0-0.0","0","0","87433","","null","","","null","38","","","","","","","","","","","","","","","",""
"","time_out","","html-keyboard-response","232","336967","0.0-1.0-350.0-0.0","0","0","87433","","null","","","null","38","","","","","","","","","","","","","","","",""
"","ITI","","html-keyboard-response","233","337969","0.0-1.0-351.0","0","0","87433","","207","","","75","38","","","","","","","","","","","","","","","k",""
"","S1","","html-keyboard-response","234","338222","0.0-1.0-353.0","0","0","87433","","null","","","null","39","","","","","","","","","","","","","","","",""
"","ISI","","html-keyboard-response","235","338724","0.0-1.0-354.0","0","0","87433","","21","","","75","39","k","","","","","","","","","","","","","","",""
"","S2","","html-keyboard-response","236","338962","0.0-1.0-355.0","0","0","87433","","236","","","68","39","","d","1","39","training","adjacent","CB","3","2","L.jpg","M.jpg","0","0","1","",""
"","feedback","","html-keyboard-response","237","339965","0.0-1.0-357.0-0.0","0","0","87433","","null","","","null","39","","","","","","","","","","","","","","","",""
"","ITI","","html-keyboard-response","238","340968","0.0-1.0-360.0","0","0","87433","","431","","","75","39","","","","","","","","","","","","","","","k",""
"","S1","","html-keyboard-response","239","341221","0.0-1.0-362.0","0","0","87433","","null","","","null","40","","","","","","","","","","","","","","","",""
"","ISI","","html-keyboard-response","240","341723","0.0-1.0-363.0","0","0","87433","","47","","","75","40","k","","","","","","","","","","","","","","",""
"","S2","","html-keyboard-response","241","341833","0.0-1.0-364.0","0","0","87433","","108","","","75","40","","k","1","40","training","adjacent","FG","6","7","Q.jpg","P.jpg","1","1","1","",""
"","feedback","","html-keyboard-response","242","342836","0.0-1.0-366.0-0.0","0","0","87433","","null","","","null","40","","","","","","","","","","","","","","","",""
"","ITI","","html-keyboard-response","243","343838","0.0-1.0-369.0","0","0","87433","","96","","","75","40","","","","","","","","","","","","","","","k",""
"","S1","","html-keyboard-response","244","344090","0.0-1.0-371.0","0","0","87433","","null","","","null","41","","","","","","","","","","","","","","","",""
"","ISI","","html-keyboard-response","245","344593","0.0-1.0-372.0","0","0","87433","","138","","","75","41","k","","","","","","","","","","","","","","",""
"","S2","","html-keyboard-response","246","344604","0.0-1.0-373.0","0","0","87433","","9","","","75","41","","k","1","41","training","adjacent","BA","2","1","M.jpg","N.jpg","1","0","0","",""
"","feedback","","html-keyboard-response","247","345606","0.0-1.0-375.0-0.0","0","0","87433","","null","","","null","41","","","","","","","","","","","","","","","",""
"","time_out","","html-keyboard-response","248","347608","0.0-1.0-377.0-0.0","0","0","87433","","null","","","null","41","","","","","","","","","","","","","","","",""
"","ITI","","html-keyboard-response","249","348610","0.0-1.0-378.0","0","0","87433","","16","","","75","41","","","","","","","","","","","","","","","k",""
"","S1","","html-keyboard-response","250","348862","0.0-1.0-380.0","0","0","87433","","null","","","null","42","","","","","","","","","","","","","","","",""
"","ISI","","html-keyboard-response","251","349364","0.0-1.0-381.0","0","0","87433","","164","","","68","42","d","","","","","","","","","","","","","","",""
"","S2","","html-keyboard-response","252","349464","0.0-1.0-382.0","0","0","87433","","98","","","75","42","","k","1","42","training","adjacent","CB","3","2","L.jpg","M.jpg","1","0","0","",""
"","feedback","","html-keyboard-response","253","350466","0.0-1.0-384.0-0.0","0","0","87433","","null","","","null","42","","","","","","","","","","","","","","","",""
"","time_out","","html-keyboard-response","254","352468","0.0-1.0-386.0-0.0","0","0","87433","","null","","","null","42","","","","","","","","","","","","","","","",""
"","ITI","","html-keyboard-response","255","353470","0.0-1.0-387.0","0","0","87433","","192","","","68","42","","","","","","","","","","","","","","","d",""
"","S1","","html-keyboard-response","256","353722","0.0-1.0-389.0","0","0","87433","","null","","","null","43","","","","","","","","","","","","","","","",""
"","ISI","","html-keyboard-response","257","354224","0.0-1.0-390.0","0","0","87433","","42","","","68","43","d","","","","","","","","","","","","","","",""
"","S2","","html-keyboard-response","258","354303","0.0-1.0-391.0","0","0","87433","","77","","","68","43","","d","1","43","training","adjacent","FE","6","5","Q.jpg","R.jpg","0","0","1","",""
"","feedback","","html-keyboard-response","259","355306","0.0-1.0-393.0-0.0","0","0","87433","","null","","","null","43","","","","","","","","","","","","","","","",""
"","ITI","","html-keyboard-response","260","356308","0.0-1.0-396.0","0","0","87433","","211","","","75","43","","","","","","","","","","","","","","","k",""
"","S1","","html-keyboard-response","261","356560","0.0-1.0-398.0","0","0","87433","","null","","","null","44","","","","","","","","","","","","","","","",""
"","ISI","","html-keyboard-response","262","357062","0.0-1.0-399.0","0","0","87433","","152","","","75","44","k","","","","","","","","","","","","","","",""
"","S2","","html-keyboard-response","263","357155","0.0-1.0-400.0","0","0","87433","","91","","","75","44","","k","1","44","training","adjacent","ED","5","4","R.jpg","O.jpg","1","0","0","",""
"","feedback","","html-keyboard-response","264","358158","0.0-1.0-402.0-0.0","0","0","87433","","null","","","null","44","","","","","","","","","","","","","","","",""
"","time_out","","html-keyboard-response","265","360161","0.0-1.0-404.0-0.0","0","0","87433","","null","","","null","44","","","","","","","","","","","","","","","",""
"","ITI","","html-keyboard-response","266","361164","0.0-1.0-405.0","0","0","87433","","762","","","68","44","","","","","","","","","","","","","","","d",""
"","S1","","html-keyboard-response","267","361416","0.0-1.0-407.0","0","0","87433","","null","","","null","45","","","","","","","","","","","","","","","",""
"","ISI","","html-keyboard-response","268","361918","0.0-1.0-408.0","0","0","87433","","408","","","68","45","d","","","","","","","","","","","","","","",""
"","S2","","html-keyboard-response","269","362088","0.0-1.0-409.0","0","0","87433","","169","","","68","45","","d","1","45","training","adjacent","FG","6","7","Q.jpg","P.jpg","0","1","0","",""
"","feedback","","html-keyboard-response","270","363090","0.0-1.0-411.0-0.0","0","0","87433","","null","","","null","45","","","","","","","","","","","","","","","",""
"","time_out","","html-keyboard-response","271","365093","0.0-1.0-413.0-0.0","0","0","87433","","null","","","null","45","","","","","","","","","","","","","","","",""
"","ITI","","html-keyboard-response","272","366095","0.0-1.0-414.0","0","0","87433","","115","","","75","45","","","","","","","","","","","","","","","k",""
"","S1","","html-keyboard-response","273","366348","0.0-1.0-416.0","0","0","87433","","null","","","null","46","","","","","","","","","","","","","","","",""
"","ISI","","html-keyboard-response","274","366850","0.0-1.0-417.0","0","0","87433","","226","","","75","46","k","","","","","","","","","","","","","","",""
"","S2","","html-keyboard-response","275","366972","0.0-1.0-418.0","0","0","87433","","121","","","75","46","","k","1","46","training","adjacent","GF","7","6","P.jpg","Q.jpg","1","0","0","",""
"","feedback","","html-keyboard-response","276","367974","0.0-1.0-420.0-0.0","0","0","87433","","null","","","null","46","","","","","","","","","","","","","","","",""
"","time_out","","html-keyboard-response","277","369976","0.0-1.0-422.0-0.0","0","0","87433","","null","","","null","46","","","","","","","","","","","","","","","",""
"","ITI","","html-keyboard-response","278","370978","0.0-1.0-423.0","0","0","87433","","136","","","68","46","","","","","","","","","","","","","","","d",""
"","S1","","html-keyboard-response","279","371231","0.0-1.0-425.0","0","0","87433","","null","","","null","47","","","","","","","","","","","","","","","",""
"","ISI","","html-keyboard-response","280","371733","0.0-1.0-426.0","0","0","87433","","259","","","68","47","d","","","","","","","","","","","","","","",""
"","S2","","html-keyboard-response","281","371781","0.0-1.0-427.0","0","0","87433","","46","","","75","47","","k","1","47","training","adjacent","CD","3","4","L.jpg","O.jpg","1","1","1","",""
"","feedback","","html-keyboard-response","282","372784","0.0-1.0-429.0-0.0","0","0","87433","","null","","","null","47","","","","","","","","","","","","","","","",""
"","ITI","","html-keyboard-response","283","373788","0.0-1.0-432.0","0","0","87433","","null","","","null","47","","","","","","","","","","","","","","","NaN",""
"","block_over","","html-keyboard-response","284","380717","0.0-1.0-433.0-0.0","0","0","87433","","6924","","","32","47","","","","","","","","","","","","","","","",""
"","S1","","html-keyboard-response","285","380972","0.0-1.0-434.0","0","0","87433","","null","","","null","48","","","","","","","","","","","","","","","",""
"","ISI","","html-keyboard-response","286","381475","0.0-1.0-435.0","0","0","87433","","null","","","null","48","NaN","","","","","","","","","","","","","","",""
"","S2","","html-keyboard-response","287","381729","0.0-1.0-436.0","0","0","87433","","null","","","null","48","","NaN","","","","","","","","","","","","","",""
"","response","","html-keyboard-response","288","383005","0.0-1.0-437.0-0.0","0","0","87433","","1274","","","75","48","","","2","48","training","adjacent","DE","4","5","O.jpg","R.jpg","1","1","1","",""
"","feedback","","html-keyboard-response","289","384009","0.0-1.0-438.0-0.0","0","0","87433","","null","","","null","48","","","","","","","","","","","","","","","",""
"","ITI","","html-keyboard-response","290","385011","0.0-1.0-441.0","0","0","87433","","null","","","null","48","","","","","","","","","","","","","","","NaN",""
"","S1","","html-keyboard-response","291","385263","0.0-1.0-443.0","0","0","87433","","null","","","null","49","","","","","","","","","","","","","","","",""
"","ISI","","html-keyboard-response","292","385769","0.0-1.0-444.0","0","0","87433","","null","","","null","49","NaN","","","","","","","","","","","","","","",""
"","S2","","html-keyboard-response","293","385918","0.0-1.0-445.0","0","0","87433","","147","","","75","49","","k","2","49","training","adjacent","DC","4","3","O.jpg","L.jpg","1","0","0","",""
"","feedback","","html-keyboard-response","294","386921","0.0-1.0-447.0-0.0","0","0","87433","","null","","","null","49","","","","","","","","","","","","","","","",""
"","time_out","","html-keyboard-response","295","388924","0.0-1.0-449.0-0.0","0","0","87433","","null","","","null","49","","","","","","","","","","","","","","","",""
"","ITI","","html-keyboard-response","296","389928","0.0-1.0-450.0","0","0","87433","","null","","","null","49","","","","","","","","","","","","","","","NaN",""
"","S1","","html-keyboard-response","297","390180","0.0-1.0-452.0","0","0","87433","","null","","","null","50","","","","","","","","","","","","","","","",""
"","ISI","","html-keyboard-response","298","390682","0.0-1.0-453.0","0","0","87433","","null","","","null","50","NaN","","","","","","","","","","","","","","",""
"","S2","","html-keyboard-response","299","390934","0.0-1.0-454.0","0","0","87433","","null","","","null","50","","NaN","","","","","","","","","","","","","",""
"","response","","html-keyboard-response","300","391033","0.0-1.0-455.0-0.0","0","0","87433","","97","","","68","50","","","2","50","training","adjacent","BC","2","3","M.jpg","L.jpg","0","1","0","",""
"","feedback","","html-keyboard-response","301","392035","0.0-1.0-456.0-0.0","0","0","87433","","null","","","null","50","","","","","","","","","","","","","","","",""
"","time_out","","html-keyboard-response","302","394037","0.0-1.0-458.0-0.0","0","0","87433","","null","","","null","50","","","","","","","","","","","","","","","",""
"","ITI","","html-keyboard-response","303","395039","0.0-1.0-459.0","0","0","87433","","null","","","null","50","","","","","","","","","","","","","","","NaN",""
"","S1","","html-keyboard-response","304","395292","0.0-1.0-461.0","0","0","87433","","null","","","null","51","","","","","","","","","","","","","","","",""
"","ISI","","html-keyboard-response","305","395793","0.0-1.0-462.0","0","0","87433","","457","","","75","51","k","","","","","","","","","","","","","","",""
"","S2","","html-keyboard-response","306","395944","0.0-1.0-463.0","0","0","87433","","149","","","75","51","","k","2","51","training","adjacent","AB","1","2","N.jpg","M.jpg","1","1","1","",""
"","feedback","","html-keyboard-response","307","396948","0.0-1.0-465.0-0.0","0","0","87433","","null","","","null","51","","","","","","","","","","","","","","","",""
"","ITI","","html-keyboard-response","308","397950","0.0-1.0-468.0","0","0","87433","","null","","","null","51","","","","","","","","","","","","","","","NaN",""
"","S1","","html-keyboard-response","309","398202","0.0-1.0-470.0","0","0","87433","","null","","","null","52","","","","","","","","","","","","","","","",""
"","ISI","","html-keyboard-response","310","398704","0.0-1.0-471.0","0","0","87433","","null","","","null","52","NaN","","","","","","","","","","","","","","",""
"","S2","","html-keyboard-response","311","398841","0.0-1.0-472.0","0","0","87433","","135","","","75","52","","k","2","52","training","adjacent","FG","6","7","Q.jpg","P.jpg","1","1","1","",""
"","feedback","","html-keyboard-response","312","399843","0.0-1.0-474.0-0.0","0","0","87433","","null","","","null","52","","","","","","","","","","","","","","","",""
"","ITI","","html-keyboard-response","313","400845","0.0-1.0-477.0","0","0","87433","","859","","","75","52","","","","","","","","","","","","","","","k",""
"","S1","","html-keyboard-response","314","401098","0.0-1.0-479.0","0","0","87433","","null","","","null","53","","","","","","","","","","","","","","","",""
"","ISI","","html-keyboard-response","315","401599","0.0-1.0-480.0","0","0","87433","","50","","","75","53","k","","","","","","","","","","","","","","",""
"","S2","","html-keyboard-response","316","401786","0.0-1.0-481.0","0","0","87433","","185","","","75","53","","k","2","53","training","adjacent","BA","2","1","M.jpg","N.jpg","1","0","0","",""
"","feedback","","html-keyboard-response","317","402789","0.0-1.0-483.0-0.0","0","0","87433","","null","","","null","53","","","","","","","","","","","","","","","",""
"","time_out","","html-keyboard-response","318","404791","0.0-1.0-485.0-0.0","0","0","87433","","null","","","null","53","","","","","","","","","","","","","","","",""
"","ITI","","html-keyboard-response","319","405793","0.0-1.0-486.0","0","0","87433","","null","","","null","53","","","","","","","","","","","","","","","NaN",""
"","S1","","html-keyboard-response","320","406046","0.0-1.0-488.0","0","0","87433","","null","","","null","54","","","","","","","","","","","","","","","",""
"","ISI","","html-keyboard-response","321","406547","0.0-1.0-489.0","0","0","87433","","195","","","75","54","k","","","","","","","","","","","","","","",""
"","S2","","html-keyboard-response","322","406683","0.0-1.0-490.0","0","0","87433","","134","","","75","54","","k","2","54","training","adjacent","AB","1","2","N.jpg","M.jpg","1","1","1","",""
"","feedback","","html-keyboard-response","323","407685","0.0-1.0-492.0-0.0","0","0","87433","","null","","","null","54","","","","","","","","","","","","","","","",""
"","ITI","","html-keyboard-response","324","408688","0.0-1.0-495.0","0","0","87433","","193","","","75","54","","","","","","","","","","","","","","","k",""
"","S1","","html-keyboard-response","325","408941","0.0-1.0-497.0","0","0","87433","","null","","","null","55","","","","","","","","","","","","","","","",""
"","ISI","","html-keyboard-response","326","409442","0.0-1.0-498.0","0","0","87433","","168","","","75","55","k","","","","","","","","","","","","","","",""
"","S2","","html-keyboard-response","327","409545","0.0-1.0-499.0","0","0","87433","","101","","","75","55","","k","2","55","training","adjacent","EF","5","6","R.jpg","Q.jpg","1","1","1","",""
"","feedback","","html-keyboard-response","328","410548","0.0-1.0-501.0-0.0","0","0","87433","","null","","","null","55","","","","","","","","","","","","","","","",""
"","ITI","","html-keyboard-response","329","411550","0.0-1.0-504.0","0","0","87433","","59","","","75","55","","","","","","","","","","","","","","","k",""
"","S1","","html-keyboard-response","330","411803","0.0-1.0-506.0","0","0","87433","","null","","","null","56","","","","","","","","","","","","","","","",""
"","ISI","","html-keyboard-response","331","412304","0.0-1.0-507.0","0","0","87433","","21","","","75","56","k","","","","","","","","","","","","","","",""
"","S2","","html-keyboard-response","332","412479","0.0-1.0-508.0","0","0","87433","","173","","","75","56","","k","2","56","training","adjacent","CB","3","2","L.jpg","M.jpg","1","0","0","",""
"","feedback","","html-keyboard-response","333","413482","0.0-1.0-510.0-0.0","0","0","87433","","null","","","null","56","","","","","","","","","","","","","","","",""
"","time_out","","html-keyboard-response","334","415484","0.0-1.0-512.0-0.0","0","0","87433","","null","","","null","56","","","","","","","","","","","","","","","",""
"","ITI","","html-keyboard-response","335","416486","0.0-1.0-513.0","0","0","87433","","null","","","null","56","","","","","","","","","","","","","","","NaN",""
"","S1","","html-keyboard-response","336","416738","0.0-1.0-515.0","0","0","87433","","null","","","null","57","","","","","","","","","","","","","","","",""
"","ISI","","html-keyboard-response","337","417241","0.0-1.0-516.0","0","0","87433","","null","","","null","57","NaN","","","","","","","","","","","","","","",""
"","S2","","html-keyboard-response","338","417485","0.0-1.0-517.0","0","0","87433","","241","","","68","57","","d","2","57","training","adjacent","FG","6","7","Q.jpg","P.jpg","0","1","0","",""
"","feedback","","html-keyboard-response","339","418487","0.0-1.0-519.0-0.0","0","0","87433","","null","","","null","57","","","","","","","","","","","","","","","",""
"","time_out","","html-keyboard-response","340","420490","0.0-1.0-521.0-0.0","0","0","87433","","null","","","null","57","","","","","","","","","","","","","","","",""
"","ITI","","html-keyboard-response","341","421492","0.0-1.0-522.0","0","0","87433","","202","","","75","57","","","","","","","","","","","","","","","k",""
"","S1","","html-keyboard-response","342","421745","0.0-1.0-524.0","0","0","87433","","null","","","null","58","","","","","","","","","","","","","","","",""
"","ISI","","html-keyboard-response","343","422248","0.0-1.0-525.0","0","0","87433","","100","","","75","58","k","","","","","","","","","","","","","","",""
"","S2","","html-keyboard-response","344","422296","0.0-1.0-526.0","0","0","87433","","46","","","75","58","","k","2","58","training","adjacent","BA","2","1","M.jpg","N.jpg","1","0","0","",""
"","feedback","","html-keyboard-response","345","423298","0.0-1.0-528.0-0.0","0","0","87433","","null","","","null","58","","","","","","","","","","","","","","","",""
"","time_out","","html-keyboard-response","346","425300","0.0-1.0-530.0-0.0","0","0","87433","","null","","","null","58","","","","","","","","","","","","","","","",""
"","ITI","","html-keyboard-response","347","426303","0.0-1.0-531.0","0","0","87433","","252","","","68","58","","","","","","","","","","","","","","","d",""
"","S1","","html-keyboard-response","348","426556","0.0-1.0-533.0","0","0","87433","","null","","","null","59","","","","","","","","","","","","","","","",""
"","ISI","","html-keyboard-response","349","427059","0.0-1.0-534.0","0","0","87433","","226","","","68","59","d","","","","","","","","","","","","","","",""
"","S2","","html-keyboard-response","350","427106","0.0-1.0-535.0","0","0","87433","","45","","","68","59","","d","2","59","training","adjacent","GF","7","6","P.jpg","Q.jpg","0","0","1","",""
"","feedback","","html-keyboard-response","351","428108","0.0-1.0-537.0-0.0","0","0","87433","","null","","","null","59","","","","","","","","","","","","","","","",""
"","ITI","","html-keyboard-response","352","429111","0.0-1.0-540.0","0","0","87433","","155","","","75","59","","","","","","","","","","","","","","","k",""
"","S1","","html-keyboard-response","353","429363","0.0-1.0-542.0","0","0","87433","","null","","","null","60","","","","","","","","","","","","","","","",""
"","ISI","","html-keyboard-response","354","429865","0.0-1.0-543.0","0","0","87433","","161","","","75","60","k","","","","","","","","","","","","","","",""
"","S2","","html-keyboard-response","355","429907","0.0-1.0-544.0","0","0","87433","","39","","","75","60","","k","2","60","training","adjacent","BC","2","3","M.jpg","L.jpg","1","1","1","",""
"","feedback","","html-keyboard-response","356","430909","0.0-1.0-546.0-0.0","0","0","87433","","null","","","null","60","","","","","","","","","","","","","","","",""
"","ITI","","html-keyboard-response","357","431912","0.0-1.0-549.0","0","0","87433","","189","","","75","60","","","","","","","","","","","","","","","k",""
"","S1","","html-keyboard-response","358","432164","0.0-1.0-551.0","0","0","87433","","null","","","null","61","","","","","","","","","","","","","","","",""
"","ISI","","html-keyboard-response","359","432666","0.0-1.0-552.0","0","0","87433","","62","","","75","61","k","","","","","","","","","","","","","","",""
"","S2","","html-keyboard-response","360","432917","0.0-1.0-553.0","0","0","87433","","249","","","75","61","","k","2","61","training","adjacent","FG","6","7","Q.jpg","P.jpg","1","1","1","",""
"","feedback","","html-keyboard-response","361","433920","0.0-1.0-555.0-0.0","0","0","87433","","null","","","null","61","","","","","","","","","","","","","","","",""
"","ITI","","html-keyboard-response","362","434922","0.0-1.0-558.0","0","0","87433","","46","","","75","61","","","","","","","","","","","","","","","k",""
"","S1","","html-keyboard-response","363","435175","0.0-1.0-560.0","0","0","87433","","null","","","null","62","","","","","","","","","","","","","","","",""
"","ISI","","html-keyboard-response","364","435678","0.0-1.0-561.0","0","0","87433","","53","","","75","62","k","","","","","","","","","","","","","","",""
"","S2","","html-keyboard-response","365","435816","0.0-1.0-562.0","0","0","87433","","135","","","75","62","","k","2","62","training","adjacent","ED","5","4","R.jpg","O.jpg","1","0","0","",""
"","feedback","","html-keyboard-response","366","436818","0.0-1.0-564.0-0.0","0","0","87433","","null","","","null","62","","","","","","","","","","","","","","","",""
"","time_out","","html-keyboard-response","367","438820","0.0-1.0-566.0-0.0","0","0","87433","","null","","","null","62","","","","","","","","","","","","","","","",""
"","ITI","","html-keyboard-response","368","439823","0.0-1.0-567.0","0","0","87433","","null","","","null","62","","","","","","","","","","","","","","","NaN",""
"","S1","","html-keyboard-response","369","440075","0.0-1.0-569.0","0","0","87433","","null","","","null","63","","","","","","","","","","","","","","","",""
"","ISI","","html-keyboard-response","370","440578","0.0-1.0-570.0","0","0","87433","","null","","","null","63","NaN","","","","","","","","","","","","","","",""
"","S2","","html-keyboard-response","371","440829","0.0-1.0-571.0","0","0","87433","","249","","","75","63","","k","2","63","training","adjacent","BC","2","3","M.jpg","L.jpg","1","1","1","",""
"","feedback","","html-keyboard-response","372","441832","0.0-1.0-573.0-0.0","0","0","87433","","null","","","null","63","","","","","","","","","","","","","","","",""
"","ITI","","html-keyboard-response","373","442836","0.0-1.0-576.0","0","0","87433","","153","","","75","63","","","","","","","","","","","","","","","k",""
"","S1","","html-keyboard-response","374","443090","0.0-1.0-578.0","0","0","87433","","null","","","null","64","","","","","","","","","","","","","","","",""
"","ISI","","html-keyboard-response","375","443592","0.0-1.0-579.0","0","0","87433","","485","","","68","64","d","","","","","","","","","","","","","","",""
"","S2","","html-keyboard-response","376","443845","0.0-1.0-580.0","0","0","87433","","null","","","null","64","","NaN","","","","","","","","","","","","","",""
"","response","","html-keyboard-response","377","443922","0.0-1.0-581.0-0.0","0","0","87433","","75","","","68","64","","","2","64","training","adjacent","FE","6","5","Q.jpg","R.jpg","0","0","1","",""
"","feedback","","html-keyboard-response","378","444924","0.0-1.0-582.0-0.0","0","0","87433","","null","","","null","64","","","","","","","","","","","","","","","",""
"","ITI","","html-keyboard-response","379","445927","0.0-1.0-585.0","0","0","87433","","166","","","75","64","","","","","","","","","","","","","","","k",""
"","S1","","html-keyboard-response","380","446179","0.0-1.0-587.0","0","0","87433","","null","","","null","65","","","","","","","","","","","","","","","",""
"","ISI","","html-keyboard-response","381","446681","0.0-1.0-588.0","0","0","87433","","4","","","75","65","k","","","","","","","","","","","","","","",""
"","S2","","html-keyboard-response","382","446934","0.0-1.0-589.0","0","0","87433","","null","","","null","65","","NaN","","","","","","","","","","","","","",""
"","response","","html-keyboard-response","383","447252","0.0-1.0-590.0-0.0","0","0","87433","","316","","","75","65","","","2","65","training","adjacent","CD","3","4","L.jpg","O.jpg","1","1","1","",""
"","feedback","","html-keyboard-response","384","448255","0.0-1.0-591.0-0.0","0","0","87433","","null","","","null","65","","","","","","","","","","","","","","","",""
"","ITI","","html-keyboard-response","385","449258","0.0-1.0-594.0","0","0","87433","","85","","","75","65","","","","","","","","","","","","","","","k",""
"","S1","","html-keyboard-response","386","449509","0.0-1.0-596.0","0","0","87433","","null","","","null","66","","","","","","","","","","","","","","","",""
"","ISI","","html-keyboard-response","387","450011","0.0-1.0-597.0","0","0","87433","","107","","","75","66","k","","","","","","","","","","","","","","",""
"","S2","","html-keyboard-response","388","450030","0.0-1.0-598.0","0","0","87433","","17","","","68","66","","d","2","66","training","adjacent","AB","1","2","N.jpg","M.jpg","0","1","0","",""
"","feedback","","html-keyboard-response","389","451033","0.0-1.0-600.0-0.0","0","0","87433","","null","","","null","66","","","","","","","","","","","","","","","",""
"","time_out","","html-keyboard-response","390","453035","0.0-1.0-602.0-0.0","0","0","87433","","null","","","null","66","","","","","","","","","","","","","","","",""
"","ITI","","html-keyboard-response","391","454037","0.0-1.0-603.0","0","0","87433","","56","","","75","66","","","","","","","","","","","","","","","k",""
"","S1","","html-keyboard-response","392","454290","0.0-1.0-605.0","0","0","87433","","null","","","null","67","","","","","","","","","","","","","","","",""
"","ISI","","html-keyboard-response","393","454792","0.0-1.0-606.0","0","0","87433","","138","","","75","67","k","","","","","","","","","","","","","","",""
"","S2","","html-keyboard-response","394","454845","0.0-1.0-607.0","0","0","87433","","51","","","75","67","","k","2","67","training","adjacent","ED","5","4","R.jpg","O.jpg","1","0","0","",""
"","feedback","","html-keyboard-response","395","455848","0.0-1.0-609.0-0.0","0","0","87433","","null","","","null","67","","","","","","","","","","","","","","","",""
"","time_out","","html-keyboard-response","396","457850","0.0-1.0-611.0-0.0","0","0","87433","","null","","","null","67","","","","","","","","","","","","","","","",""
"","ITI","","html-keyboard-response","397","458852","0.0-1.0-612.0","0","0","87433","","109","","","75","67","","","","","","","","","","","","","","","k",""
"","S1","","html-keyboard-response","398","459105","0.0-1.0-614.0","0","0","87433","","null","","","null","68","","","","","","","","","","","","","","","",""
"","ISI","","html-keyboard-response","399","459607","0.0-1.0-615.0","0","0","87433","","138","","","75","68","k","","","","","","","","","","","","","","",""
"","S2","","html-keyboard-response","400","459748","0.0-1.0-616.0","0","0","87433","","140","","","68","68","","d","2","68","training","adjacent","ED","5","4","R.jpg","O.jpg","0","0","1","",""
"","feedback","","html-keyboard-response","401","460751","0.0-1.0-618.0-0.0","0","0","87433","","null","","","null","68","","","","","","","","","","","","","","","",""
"","ITI","","html-keyboard-response","402","461754","0.0-1.0-621.0","0","0","87433","","152","","","68","68","","","","","","","","","","","","","","","d",""
"","S1","","html-keyboard-response","403","462007","0.0-1.0-623.0","0","0","87433","","null","","","null","69","","","","","","","","","","","","","","","",""
"","ISI","","html-keyboard-response","404","462510","0.0-1.0-624.0","0","0","87433","","223","","","75","69","k","","","","","","","","","","","","","","",""
"","S2","","html-keyboard-response","405","462566","0.0-1.0-625.0","0","0","87433","","54","","","68","69","","d","2","69","training","adjacent","AB","1","2","N.jpg","M.jpg","0","1","0","",""
"","feedback","","html-keyboard-response","406","463570","0.0-1.0-627.0-0.0","0","0","87433","","null","","","null","69","","","","","","","","","","","","","","","",""
"","time_out","","html-keyboard-response","407","465572","0.0-1.0-629.0-0.0","0","0","87433","","null","","","null","69","","","","","","","","","","","","","","","",""
"","ITI","","html-keyboard-response","408","466574","0.0-1.0-630.0","0","0","87433","","2","","","75","69","","","","","","","","","","","","","","","k",""
"","S1","","html-keyboard-response","409","466826","0.0-1.0-632.0","0","0","87433","","null","","","null","70","","","","","","","","","","","","","","","",""
"","ISI","","html-keyboard-response","410","467329","0.0-1.0-633.0","0","0","87433","","231","","","75","70","k","","","","","","","","","","","","","","",""
"","S2","","html-keyboard-response","411","467332","0.0-1.0-634.0","0","0","87433","","1","","","75","70","","k","2","70","training","adjacent","BC","2","3","M.jpg","L.jpg","1","1","1","",""
"","feedback","","html-keyboard-response","412","468334","0.0-1.0-636.0-0.0","0","0","87433","","null","","","null","70","","","","","","","","","","","","","","","",""
"","ITI","","html-keyboard-response","413","469337","0.0-1.0-639.0","0","0","87433","","169","","","68","70","","","","","","","","","","","","","","","d",""
"","S1","","html-keyboard-response","414","469590","0.0-1.0-641.0","0","0","87433","","null","","","null","71","","","","","","","","","","","","","","","",""
"","ISI","","html-keyboard-response","415","470092","0.0-1.0-642.0","0","0","87433","","114","","","75","71","k","","","","","","","","","","","","","","",""
"","S2","","html-keyboard-response","416","470186","0.0-1.0-643.0","0","0","87433","","92","","","75","71","","k","2","71","training","adjacent","CD","3","4","L.jpg","O.jpg","1","1","1","",""
"","feedback","","html-keyboard-response","417","471188","0.0-1.0-645.0-0.0","0","0","87433","","null","","","null","71","","","","","","","","","","","","","","","",""
"","ITI","","html-keyboard-response","418","472190","0.0-1.0-648.0","0","0","87433","","22","","","75","71","","","","","","","","","","","","","","","k",""
"","S1","","html-keyboard-response","419","472442","0.0-1.0-650.0","0","0","87433","","null","","","null","72","","","","","","","","","","","","","","","",""
"","ISI","","html-keyboard-response","420","472944","0.0-1.0-651.0","0","0","87433","","206","","","75","72","k","","","","","","","","","","","","","","",""
"","S2","","html-keyboard-response","421","473073","0.0-1.0-652.0","0","0","87433","","128","","","75","72","","k","2","72","training","adjacent","EF","5","6","R.jpg","Q.jpg","1","1","1","",""
"","feedback","","html-keyboard-response","422","474075","0.0-1.0-654.0-0.0","0","0","87433","","null","","","null","72","","","","","","","","","","","","","","","",""
"","ITI","","html-keyboard-response","423","475078","0.0-1.0-657.0","0","0","87433","","230","","","68","72","","","","","","","","","","","","","","","d",""
"","S1","","html-keyboard-response","424","475330","0.0-1.0-659.0","0","0","87433","","null","","","null","73","","","","","","","","","","","","","","","",""
"","ISI","","html-keyboard-response","425","475832","0.0-1.0-660.0","0","0","87433","","138","","","75","73","k","","","","","","","","","","","","","","",""
"","S2","","html-keyboard-response","426","475905","0.0-1.0-661.0","0","0","87433","","70","","","75","73","","k","2","73","training","adjacent","GF","7","6","P.jpg","Q.jpg","1","0","0","",""
"","feedback","","html-keyboard-response","427","476908","0.0-1.0-663.0-0.0","0","0","87433","","null","","","null","73","","","","","","","","","","","","","","","",""
"","time_out","","html-keyboard-response","428","478909","0.0-1.0-665.0-0.0","0","0","87433","","null","","","null","73","","","","","","","","","","","","","","","",""
"","ITI","","html-keyboard-response","429","479911","0.0-1.0-666.0","0","0","87433","","98","","","68","73","","","","","","","","","","","","","","","d",""
"","S1","","html-keyboard-response","430","480164","0.0-1.0-668.0","0","0","87433","","null","","","null","74","","","","","","","","","","","","","","","",""
"","ISI","","html-keyboard-response","431","480666","0.0-1.0-669.0","0","0","87433","","79","","","75","74","k","","","","","","","","","","","","","","",""
"","S2","","html-keyboard-response","432","480676","0.0-1.0-670.0","0","0","87433","","8","","","75","74","","k","2","74","training","adjacent","DE","4","5","O.jpg","R.jpg","1","1","1","",""
"","feedback","","html-keyboard-response","433","481690","0.0-1.0-672.0-0.0","0","0","87433","","null","","","null","74","","","","","","","","","","","","","","","",""
"","ITI","","html-keyboard-response","434","482692","0.0-1.0-675.0","0","0","87433","","22","","","75","74","","","","","","","","","","","","","","","k",""
"","S1","","html-keyboard-response","435","482944","0.0-1.0-677.0","0","0","87433","","null","","","null","75","","","","","","","","","","","","","","","",""
"","ISI","","html-keyboard-response","436","483446","0.0-1.0-678.0","0","0","87433","","37","","","68","75","d","","","","","","","","","","","","","","",""
"","S2","","html-keyboard-response","437","483550","0.0-1.0-679.0","0","0","87433","","102","","","75","75","","k","2","75","training","adjacent","EF","5","6","R.jpg","Q.jpg","1","1","1","",""
"","feedback","","html-keyboard-response","438","484553","0.0-1.0-681.0-0.0","0","0","87433","","null","","","null","75","","","","","","","","","","","","","","","",""
"","ITI","","html-keyboard-response","439","485555","0.0-1.0-684.0","0","0","87433","","16","","","68","75","","","","","","","","","","","","","","","d",""
"","S1","","html-keyboard-response","440","485807","0.0-1.0-686.0","0","0","87433","","null","","","null","76","","","","","","","","","","","","","","","",""
"","ISI","","html-keyboard-response","441","486309","0.0-1.0-687.0","0","0","87433","","102","","","75","76","k","","","","","","","","","","","","","","",""
"","S2","","html-keyboard-response","442","486381","0.0-1.0-688.0","0","0","87433","","70","","","75","76","","k","2","76","training","adjacent","FG","6","7","Q.jpg","P.jpg","1","1","1","",""
"","feedback","","html-keyboard-response","443","487383","0.0-1.0-690.0-0.0","0","0","87433","","null","","","null","76","","","","","","","","","","","","","","","",""
"","ITI","","html-keyboard-response","444","488386","0.0-1.0-693.0","0","0","87433","","138","","","68","76","","","","","","","","","","","","","","","d",""
"","S1","","html-keyboard-response","445","488639","0.0-1.0-695.0","0","0","87433","","null","","","null","77","","","","","","","","","","","","","","","",""
"","ISI","","html-keyboard-response","446","489140","0.0-1.0-696.0","0","0","87433","","83","","","75","77","k","","","","","","","","","","","","","","",""
"","S2","","html-keyboard-response","447","489175","0.0-1.0-697.0","0","0","87433","","33","","","75","77","","k","2","77","training","adjacent","BA","2","1","M.jpg","N.jpg","1","0","0","",""
"","feedback","","html-keyboard-response","448","490177","0.0-1.0-699.0-0.0","0","0","87433","","null","","","null","77","","","","","","","","","","","","","","","",""
"","time_out","","html-keyboard-response","449","492180","0.0-1.0-701.0-0.0","0","0","87433","","null","","","null","77","","","","","","","","","","","","","","","",""
"","ITI","","html-keyboard-response","450","493182","0.0-1.0-702.0","0","0","87433","","13","","","68","77","","","","","","","","","","","","","","","d",""
"","S1","","html-keyboard-response","451","493435","0.0-1.0-704.0","0","0","87433","","null","","","null","78","","","","","","","","","","","","","","","",""
"","ISI","","html-keyboard-response","452","493937","0.0-1.0-705.0","0","0","87433","","135","","","68","78","d","","","","","","","","","","","","","","",""
"","S2","","html-keyboard-response","453","494030","0.0-1.0-706.0","0","0","87433","","91","","","68","78","","d","2","78","training","adjacent","FE","6","5","Q.jpg","R.jpg","0","0","1","",""
"","feedback","","html-keyboard-response","454","495033","0.0-1.0-708.0-0.0","0","0","87433","","null","","","null","78","","","","","","","","","","","","","","","",""
"","ITI","","html-keyboard-response","455","496036","0.0-1.0-711.0","0","0","87433","","31","","","75","78","","","","","","","","","","","","","","","k",""
"","S1","","html-keyboard-response","456","496290","0.0-1.0-713.0","0","0","87433","","null","","","null","79","","","","","","","","","","","","","","","",""
"","ISI","","html-keyboard-response","457","496792","0.0-1.0-714.0","0","0","87433","","19","","","75","79","k","","","","","","","","","","","","","","",""
"","S2","","html-keyboard-response","458","496904","0.0-1.0-715.0","0","0","87433","","110","","","68","79","","d","2","79","training","adjacent","DC","4","3","O.jpg","L.jpg","0","0","1","",""
"","feedback","","html-keyboard-response","459","497907","0.0-1.0-717.0-0.0","0","0","87433","","null","","","null","79","","","","","","","","","","","","","","","",""
"","ITI","","html-keyboard-response","460","498908","0.0-1.0-720.0","0","0","87433","","202","","","68","79","","","","","","","","","","","","","","","d",""
"","S1","","html-keyboard-response","461","499161","0.0-1.0-722.0","0","0","87433","","null","","","null","80","","","","","","","","","","","","","","","",""
"","ISI","","html-keyboard-response","462","499664","0.0-1.0-723.0","0","0","87433","","40","","","75","80","k","","","","","","","","","","","","","","",""
"","S2","","html-keyboard-response","463","499687","0.0-1.0-724.0","0","0","87433","","21","","","68","80","","d","2","80","training","adjacent","FE","6","5","Q.jpg","R.jpg","0","0","1","",""
"","feedback","","html-keyboard-response","464","500689","0.0-1.0-726.0-0.0","0","0","87433","","null","","","null","80","","","","","","","","","","","","","","","",""
"","ITI","","html-keyboard-response","465","501692","0.0-1.0-729.0","0","0","87433","","129","","","75","80","","","","","","","","","","","","","","","k",""
"","S1","","html-keyboard-response","466","501943","0.0-1.0-731.0","0","0","87433","","null","","","null","81","","","","","","","","","","","","","","","",""
"","ISI","","html-keyboard-response","467","502445","0.0-1.0-732.0","0","0","87433","","35","","","75","81","k","","","","","","","","","","","","","","",""
"","S2","","html-keyboard-response","468","502606","0.0-1.0-733.0","0","0","87433","","158","","","68","81","","d","2","81","training","adjacent","ED","5","4","R.jpg","O.jpg","0","0","1","",""
"","feedback","","html-keyboard-response","469","503608","0.0-1.0-735.0-0.0","0","0","87433","","null","","","null","81","","","","","","","","","","","","","","","",""
"","ITI","","html-keyboard-response","470","504612","0.0-1.0-738.0","0","0","87433","","12","","","75","81","","","","","","","","","","","","","","","k",""
"","S1","","html-keyboard-response","471","504864","0.0-1.0-740.0","0","0","87433","","null","","","null","82","","","","","","","","","","","","","","","",""
"","ISI","","html-keyboard-response","472","505366","0.0-1.0-741.0","0","0","87433","","88","","","68","82","d","","","","","","","","","","","","","","",""
"","S2","","html-keyboard-response","473","505385","0.0-1.0-742.0","0","0","87433","","17","","","75","82","","k","2","82","training","adjacent","DE","4","5","O.jpg","R.jpg","1","1","1","",""
"","feedback","","html-keyboard-response","474","506388","0.0-1.0-744.0-0.0","0","0","87433","","null","","","null","82","","","","","","","","","","","","","","","",""
"","ITI","","html-keyboard-response","475","507390","0.0-1.0-747.0","0","0","87433","","130","","","68","82","","","","","","","","","","","","","","","d",""
"","S1","","html-keyboard-response","476","507641","0.0-1.0-749.0","0","0","87433","","null","","","null","83","","","","","","","","","","","","","","","",""
"","ISI","","html-keyboard-response","477","508145","0.0-1.0-750.0","0","0","87433","","186","","","75","83","k","","","","","","","","","","","","","","",""
"","S2","","html-keyboard-response","478","508258","0.0-1.0-751.0","0","0","87433","","111","","","75","83","","k","2","83","training","adjacent","EF","5","6","R.jpg","Q.jpg","1","1","1","",""
"","feedback","","html-keyboard-response","479","509261","0.0-1.0-753.0-0.0","0","0","87433","","null","","","null","83","","","","","","","","","","","","","","","",""
"","ITI","","html-keyboard-response","480","510264","0.0-1.0-756.0","0","0","87433","","204","","","75","83","","","","","","","","","","","","","","","k",""
"","S1","","html-keyboard-response","481","510518","0.0-1.0-758.0","0","0","87433","","null","","","null","84","","","","","","","","","","","","","","","",""
"","ISI","","html-keyboard-response","482","511022","0.0-1.0-759.0","0","0","87433","","78","","","68","84","d","","","","","","","","","","","","","","",""
"","S2","","html-keyboard-response","483","511083","0.0-1.0-760.0","0","0","87433","","58","","","75","84","","k","2","84","training","adjacent","GF","7","6","P.jpg","Q.jpg","1","0","0","",""
"","feedback","","html-keyboard-response","484","512087","0.0-1.0-762.0-0.0","0","0","87433","","null","","","null","84","","","","","","","","","","","","","","","",""
"","time_out","","html-keyboard-response","485","514091","0.0-1.0-764.0-0.0","0","0","87433","","null","","","null","84","","","","","","","","","","","","","","","",""
"","ITI","","html-keyboard-response","486","515094","0.0-1.0-765.0","0","0","87433","","0","","","68","84","","","","","","","","","","","","","","","d",""
"","S1","","html-keyboard-response","487","515346","0.0-1.0-767.0","0","0","87433","","null","","","null","85","","","","","","","","","","","","","","","",""
"","ISI","","html-keyboard-response","488","515848","0.0-1.0-768.0","0","0","87433","","140","","","68","85","d","","","","","","","","","","","","","","",""
"","S2","","html-keyboard-response","489","515894","0.0-1.0-769.0","0","0","87433","","44","","","75","85","","k","2","85","training","adjacent","CB","3","2","L.jpg","M.jpg","1","0","0","",""
"","feedback","","html-keyboard-response","490","516897","0.0-1.0-771.0-0.0","0","0","87433","","null","","","null","85","","","","","","","","","","","","","","","",""
"","time_out","","html-keyboard-response","491","518899","0.0-1.0-773.0-0.0","0","0","87433","","null","","","null","85","","","","","","","","","","","","","","","",""
"","ITI","","html-keyboard-response","492","519901","0.0-1.0-774.0","0","0","87433","","174","","","75","85","","","","","","","","","","","","","","","k",""
"","S1","","html-keyboard-response","493","520155","0.0-1.0-776.0","0","0","87433","","null","","","null","86","","","","","","","","","","","","","","","",""
"","ISI","","html-keyboard-response","494","520657","0.0-1.0-777.0","0","0","87433","","82","","","75","86","k","","","","","","","","","","","","","","",""
"","S2","","html-keyboard-response","495","520910","0.0-1.0-778.0","0","0","87433","","null","","","null","86","","NaN","","","","","","","","","","","","","",""
"","response","","html-keyboard-response","496","520981","0.0-1.0-779.0-0.0","0","0","87433","","70","","","68","86","","","2","86","training","adjacent","CB","3","2","L.jpg","M.jpg","0","0","1","",""
"","feedback","","html-keyboard-response","497","521984","0.0-1.0-780.0-0.0","0","0","87433","","null","","","null","86","","","","","","","","","","","","","","","",""
"","ITI","","html-keyboard-response","498","522986","0.0-1.0-783.0","0","0","87433","","26","","","75","86","","","","","","","","","","","","","","","k",""
"","S1","","html-keyboard-response","499","523238","0.0-1.0-785.0","0","0","87433","","null","","","null","87","","","","","","","","","","","","","","","",""
"","ISI","","html-keyboard-response","500","523740","0.0-1.0-786.0","0","0","87433","","18","","","75","87","k","","","","","","","","","","","","","","",""
"","S2","","html-keyboard-response","501","523767","0.0-1.0-787.0","0","0","87433","","25","","","68","87","","d","2","87","training","adjacent","BA","2","1","M.jpg","N.jpg","0","0","1","",""
"","feedback","","html-keyboard-response","502","524769","0.0-1.0-789.0-0.0","0","0","87433","","null","","","null","87","","","","","","","","","","","","","","","",""
"","ITI","","html-keyboard-response","503","525771","0.0-1.0-792.0","0","0","87433","","14","","","75","87","","","","","","","","","","","","","","","k",""
"","S1","","html-keyboard-response","504","526024","0.0-1.0-794.0","0","0","87433","","null","","","null","88","","","","","","","","","","","","","","","",""
"","ISI","","html-keyboard-response","505","526526","0.0-1.0-795.0","0","0","87433","","null","","","null","88","NaN","","","","","","","","","","","","","","",""
"","S2","","html-keyboard-response","506","526542","0.0-1.0-796.0","0","0","87433","","13","","","75","88","","k","2","88","training","adjacent","CB","3","2","L.jpg","M.jpg","1","0","0","",""
"","feedback","","html-keyboard-response","507","527545","0.0-1.0-798.0-0.0","0","0","87433","","null","","","null","88","","","","","","","","","","","","","","","",""
"","time_out","","html-keyboard-response","508","529547","0.0-1.0-800.0-0.0","0","0","87433","","null","","","null","88","","","","","","","","","","","","","","","",""
"","ITI","","html-keyboard-response","509","530549","0.0-1.0-801.0","0","0","87433","","59","","","68","88","","","","","","","","","","","","","","","d",""
"","S1","","html-keyboard-response","510","530802","0.0-1.0-803.0","0","0","87433","","null","","","null","89","","","","","","","","","","","","","","","",""
"","ISI","","html-keyboard-response","511","531305","0.0-1.0-804.0","0","0","87433","","null","","","null","89","NaN","","","","","","","","","","","","","","",""
"","S2","","html-keyboard-response","512","531512","0.0-1.0-805.0","0","0","87433","","206","","","68","89","","d","2","89","training","adjacent","CD","3","4","L.jpg","O.jpg","0","1","0","",""
"","feedback","","html-keyboard-response","513","532518","0.0-1.0-807.0-0.0","0","0","87433","","null","","","null","89","","","","","","","","","","","","","","","",""
"","time_out","","html-keyboard-response","514","534520","0.0-1.0-809.0-0.0","0","0","87433","","null","","","null","89","","","","","","","","","","","","","","","",""
"","ITI","","html-keyboard-response","515","535523","0.0-1.0-810.0","0","0","87433","","164","","","75","89","","","","","","","","","","","","","","","k",""
"","S1","","html-keyboard-response","516","535787","0.0-1.0-812.0","0","0","87433","","null","","","null","90","","","","","","","","","","","","","","","",""
"","ISI","","html-keyboard-response","517","536289","0.0-1.0-813.0","0","0","87433","","449","","","75","90","k","","","","","","","","","","","","","","",""
"","S2","","html-keyboard-response","518","536421","0.0-1.0-814.0","0","0","87433","","130","","","68","90","","d","2","90","training","adjacent","DC","4","3","O.jpg","L.jpg","0","0","1","",""
"","feedback","","html-keyboard-response","519","537424","0.0-1.0-816.0-0.0","0","0","87433","","null","","","null","90","","","","","","","","","","","","","","","",""
"","ITI","","html-keyboard-response","520","538426","0.0-1.0-819.0","0","0","87433","","16","","","68","90","","","","","","","","","","","","","","","d",""
"","S1","","html-keyboard-response","521","538678","0.0-1.0-821.0","0","0","87433","","null","","","null","91","","","","","","","","","","","","","","","",""
"","ISI","","html-keyboard-response","522","539180","0.0-1.0-822.0","0","0","87433","","192","","","75","91","k","","","","","","","","","","","","","","",""
"","S2","","html-keyboard-response","523","539314","0.0-1.0-823.0","0","0","87433","","132","","","68","91","","d","2","91","training","adjacent","FE","6","5","Q.jpg","R.jpg","0","0","1","",""
"","feedback","","html-keyboard-response","524","540318","0.0-1.0-825.0-0.0","0","0","87433","","null","","","null","91","","","","","","","","","","","","","","","",""
"","ITI","","html-keyboard-response","525","541321","0.0-1.0-828.0","0","0","87433","","0","","","75","91","","","","","","","","","","","","","","","k",""
"","S1","","html-keyboard-response","526","541573","0.0-1.0-830.0","0","0","87433","","null","","","null","92","","","","","","","","","","","","","","","",""
"","ISI","","html-keyboard-response","527","542076","0.0-1.0-831.0","0","0","87433","","397","","","75","92","k","","","","","","","","","","","","","","",""
"","S2","","html-keyboard-response","528","542146","0.0-1.0-832.0","0","0","87433","","69","","","68","92","","d","2","92","training","adjacent","CD","3","4","L.jpg","O.jpg","0","1","0","",""
"","feedback","","html-keyboard-response","529","543150","0.0-1.0-834.0-0.0","0","0","87433","","null","","","null","92","","","","","","","","","","","","","","","",""
"","time_out","","html-keyboard-response","530","545153","0.0-1.0-836.0-0.0","0","0","87433","","null","","","null","92","","","","","","","","","","","","","","","",""
"","ITI","","html-keyboard-response","531","546155","0.0-1.0-837.0","0","0","87433","","55","","","75","92","","","","","","","","","","","","","","","k",""
"","S1","","html-keyboard-response","532","546408","0.0-1.0-839.0","0","0","87433","","null","","","null","93","","","","","","","","","","","","","","","",""
"","ISI","","html-keyboard-response","533","546911","0.0-1.0-840.0","0","0","87433","","51","","","68","93","d","","","","","","","","","","","","","","",""
"","S2","","html-keyboard-response","534","547081","0.0-1.0-841.0","0","0","87433","","167","","","68","93","","d","2","93","training","adjacent","DE","4","5","O.jpg","R.jpg","0","1","0","",""
"","feedback","","html-keyboard-response","535","548084","0.0-1.0-843.0-0.0","0","0","87433","","null","","","null","93","","","","","","","","","","","","","","","",""
"","time_out","","html-keyboard-response","536","550086","0.0-1.0-845.0-0.0","0","0","87433","","null","","","null","93","","","","","","","","","","","","","","","",""
"","ITI","","html-keyboard-response","537","551088","0.0-1.0-846.0","0","0","87433","","169","","","75","93","","","","","","","","","","","","","","","k",""
"","S1","","html-keyboard-response","538","551341","0.0-1.0-848.0","0","0","87433","","null","","","null","94","","","","","","","","","","","","","","","",""
"","ISI","","html-keyboard-response","539","551843","0.0-1.0-849.0","0","0","87433","","104","","","68","94","d","","","","","","","","","","","","","","",""
"","S2","","html-keyboard-response","540","551889","0.0-1.0-850.0","0","0","87433","","44","","","68","94","","d","2","94","training","adjacent","DC","4","3","O.jpg","L.jpg","0","0","1","",""
"","feedback","","html-keyboard-response","541","552892","0.0-1.0-852.0-0.0","0","0","87433","","null","","","null","94","","","","","","","","","","","","","","","",""
"","ITI","","html-keyboard-response","542","553893","0.0-1.0-855.0","0","0","87433","","126","","","68","94","","","","","","","","","","","","","","","d",""
"","S1","","html-keyboard-response","543","554146","0.0-1.0-857.0","0","0","87433","","null","","","null","95","","","","","","","","","","","","","","","",""
"","ISI","","html-keyboard-response","544","554648","0.0-1.0-858.0","0","0","87433","","39","","","75","95","k","","","","","","","","","","","","","","",""
"","S2","","html-keyboard-response","545","554689","0.0-1.0-859.0","0","0","87433","","38","","","75","95","","k","2","95","training","adjacent","GF","7","6","P.jpg","Q.jpg","1","0","0","",""
"","feedback","","html-keyboard-response","546","555692","0.0-1.0-861.0-0.0","0","0","87433","","null","","","null","95","","","","","","","","","","","","","","","",""
"","time_out","","html-keyboard-response","547","557693","0.0-1.0-863.0-0.0","0","0","87433","","null","","","null","95","","","","","","","","","","","","","","","",""
"","ITI","","html-keyboard-response","548","558705","0.0-1.0-864.0","0","0","87433","","146","","","68","95","","","","","","","","","","","","","","","d",""
"","block_over","","html-keyboard-response","549","565070","0.0-1.0-865.0-0.0","0","0","87433","","6362","","","32","95","","","","","","","","","","","","","","","",""
"","S1","","html-keyboard-response","550","565323","0.0-1.0-866.0","0","0","87433","","null","","","null","96","","","","","","","","","","","","","","","",""
"","ISI","","html-keyboard-response","551","565825","0.0-1.0-867.0","0","0","87433","","null","","","null","96","NaN","","","","","","","","","","","","","","",""
"","S2","","html-keyboard-response","552","566034","0.0-1.0-868.0","0","0","87433","","207","","","75","96","","k","3","96","training","adjacent","FE","6","5","Q.jpg","R.jpg","1","0","0","",""
"","feedback","","html-keyboard-response","553","567037","0.0-1.0-870.0-0.0","0","0","87433","","null","","","null","96","","","","","","","","","","","","","","","",""
"","time_out","","html-keyboard-response","554","569039","0.0-1.0-872.0-0.0","0","0","87433","","null","","","null","96","","","","","","","","","","","","","","","",""
"","ITI","","html-keyboard-response","555","570042","0.0-1.0-873.0","0","0","87433","","29","","","68","96","","","","","","","","","","","","","","","d",""
"","S1","","html-keyboard-response","556","570309","0.0-1.0-875.0","0","0","87433","","null","","","null","97","","","","","","","","","","","","","","","",""
"","ISI","","html-keyboard-response","557","570812","0.0-1.0-876.0","0","0","87433","","56","","","68","97","d","","","","","","","","","","","","","","",""
"","S2","","html-keyboard-response","558","570842","0.0-1.0-877.0","0","0","87433","","29","","","68","97","","d","3","97","training","adjacent","FG","6","7","Q.jpg","P.jpg","0","1","0","",""
"","feedback","","html-keyboard-response","559","571844","0.0-1.0-879.0-0.0","0","0","87433","","null","","","null","97","","","","","","","","","","","","","","","",""
"","time_out","","html-keyboard-response","560","573847","0.0-1.0-881.0-0.0","0","0","87433","","null","","","null","97","","","","","","","","","","","","","","","",""
"","ITI","","html-keyboard-response","561","574849","0.0-1.0-882.0","0","0","87433","","12","","","68","97","","","","","","","","","","","","","","","d",""
"","S1","","html-keyboard-response","562","575103","0.0-1.0-884.0","0","0","87433","","null","","","null","98","","","","","","","","","","","","","","","",""
"","ISI","","html-keyboard-response","563","575605","0.0-1.0-885.0","0","0","87433","","21","","","68","98","d","","","","","","","","","","","","","","",""
"","S2","","html-keyboard-response","564","575846","0.0-1.0-886.0","0","0","87433","","239","","","68","98","","d","3","98","training","adjacent","BC","2","3","M.jpg","L.jpg","0","1","0","",""
"","feedback","","html-keyboard-response","565","576850","0.0-1.0-888.0-0.0","0","0","87433","","null","","","null","98","","","","","","","","","","","","","","","",""
"","time_out","","html-keyboard-response","566","578853","0.0-1.0-890.0-0.0","0","0","87433","","null","","","null","98","","","","","","","","","","","","","","","",""
"","ITI","","html-keyboard-response","567","579855","0.0-1.0-891.0","0","0","87433","","67","","","68","98","","","","","","","","","","","","","","","d",""
"","S1","","html-keyboard-response","568","580108","0.0-1.0-893.0","0","0","87433","","null","","","null","99","","","","","","","","","","","","","","","",""
"","ISI","","html-keyboard-response","569","580611","0.0-1.0-894.0","0","0","87433","","28","","","68","99","d","","","","","","","","","","","","","","",""
"","S2","","html-keyboard-response","570","580775","0.0-1.0-895.0","0","0","87433","","163","","","68","99","","d","3","99","training","adjacent","AB","1","2","N.jpg","M.jpg","0","1","0","",""
"","feedback","","html-keyboard-response","571","581777","0.0-1.0-897.0-0.0","0","0","87433","","null","","","null","99","","","","","","","","","","","","","","","",""
"","time_out","","html-keyboard-response","572","583780","0.0-1.0-899.0-0.0","0","0","87433","","null","","","null","99","","","","","","","","","","","","","","","",""
"","ITI","","html-keyboard-response","573","584783","0.0-1.0-900.0","0","0","87433","","166","","","75","99","","","","","","","","","","","","","","","k",""
"","S1","","html-keyboard-response","574","585036","0.0-1.0-902.0","0","0","87433","","null","","","null","100","","","","","","","","","","","","","","","",""
"","ISI","","html-keyboard-response","575","585539","0.0-1.0-903.0","0","0","87433","","83","","","75","100","k","","","","","","","","","","","","","","",""
"","S2","","html-keyboard-response","576","585761","0.0-1.0-904.0","0","0","87433","","220","","","68","100","","d","3","100","training","adjacent","DE","4","5","O.jpg","R.jpg","0","1","0","",""
"","feedback","","html-keyboard-response","577","586764","0.0-1.0-906.0-0.0","0","0","87433","","null","","","null","100","","","","","","","","","","","","","","","",""
"","time_out","","html-keyboard-response","578","588766","0.0-1.0-908.0-0.0","0","0","87433","","null","","","null","100","","","","","","","","","","","","","","","",""
"","ITI","","html-keyboard-response","579","589769","0.0-1.0-909.0","0","0","87433","","5","","","75","100","","","","","","","","","","","","","","","k",""
"","S1","","html-keyboard-response","580","590021","0.0-1.0-911.0","0","0","87433","","null","","","null","101","","","","","","","","","","","","","","","",""
"","ISI","","html-keyboard-response","581","590523","0.0-1.0-912.0","0","0","87433","","31","","","75","101","k","","","","","","","","","","","","","","",""
"","S2","","html-keyboard-response","582","590590","0.0-1.0-913.0","0","0","87433","","65","","","68","101","","d","3","101","training","adjacent","CB","3","2","L.jpg","M.jpg","0","0","1","",""
"","feedback","","html-keyboard-response","583","591594","0.0-1.0-915.0-0.0","0","0","87433","","null","","","null","101","","","","","","","","","","","","","","","",""
"","ITI","","html-keyboard-response","584","592596","0.0-1.0-918.0","0","0","87433","","197","","","68","101","","","","","","","","","","","","","","","d",""
"","S1","","html-keyboard-response","585","592848","0.0-1.0-920.0","0","0","87433","","null","","","null","102","","","","","","","","","","","","","","","",""
"","ISI","","html-keyboard-response","586","593350","0.0-1.0-921.0","0","0","87433","","15","","","68","102","d","","","","","","","","","","","","","","",""
"","S2","","html-keyboard-response","587","593409","0.0-1.0-922.0","0","0","87433","","56","","","75","102","","k","3","102","training","adjacent","BC","2","3","M.jpg","L.jpg","1","1","1","",""
