"success","ttype","start_time","trial_type","trial_index","time_elapsed","internal_node_id","warning","missed_checkup","PID","view_history","rt","responses","repeat_instructions","key_press","index","keypress_isi","keypress_S2","block","trial_num","phase","group_type","pair_type","S1_stim","S2_stim","S1_img","S2_img","S1_chosen","S1_higher","accuracy","keypress_iti","total_bonus_tally"
"true","full_screen","d03032023hr2125","fullscreen","0","13022","0.0-0.0","0","0","59427","","","","","","","","","","","","","","","","","","","","","",""
"","instructions","","instructions","1","16507","0.0-1.0-0.0-0.0","0","0","59427","[{""page_index"":0,""viewing_time"":2558},{""page_index"":1,""viewing_time"":220},{""page_index"":2,""viewing_time"":197},{""page_index"":3,""viewing_time"":504}]","3480","","","","","","","","","","","","","","","","","","","",""
"","comprehension_check","","survey-multi-choice","2","27496","0.0-1.0-0.0-1.0","0","0","59427","","10974","{""Q0"":""True"",""Q1"":""D"",""Q2"":""Once the second image appears and while the screen 'MAKE A CHOICE' is shown"",""Q3"":""Green mark"",""Q4"":""either D or K""}","1","","","","","","","","","","","","","","","","","",""
"","missed_instruction_checkup","","html-keyboard-response","3","29230","0.0-1.0-0.0-2.0-0.0","0","1","59427","","1727","","","32","","","","","","","","","","","","","","","","",""
"","instructions","","instructions","4","37617","0.0-1.0-0.1-0.1","0","0","59427","[{""page_index"":0,""viewing_time"":4596},{""page_index"":1,""viewing_time"":3107},{""page_index"":2,""viewing_time"":310},{""page_index"":3,""viewing_time"":369}]","8382","","","","","","","","","","","","","","","","","","","",""
"","comprehension_check","","survey-multi-choice","5","44256","0.0-1.0-0.1-1.1","0","0","59427","","6628","{""Q0"":""True"",""Q1"":""K"",""Q2"":""Once the second image appears and while the screen 'MAKE A CHOICE' is shown"",""Q3"":""Green mark"",""Q4"":""either D or K""}","0","","","","","","","","","","","","","","","","","",""
"","start_exp","","html-keyboard-response","6","45873","0.0-1.0-1.0","0","0","59427","","1613","","","32","","","","","","","","","","","","","","","","",""
"","S1","","html-keyboard-response","7","46128","0.0-1.0-2.0","0","0","59427","","null","","","null","0","","","","","","","","","","","","","","","",""
"","ISI","","html-keyboard-response","8","46656","0.0-1.0-3.0","0","0","59427","","225","","","32","0","space","","","","","","","","","","","","","","",""
"","S2","","html-keyboard-response","9","46948","0.0-1.0-4.0","0","0","59427","","null","","","null","0","","NaN","","","","","","","","","","","","","",""
"","response","","html-keyboard-response","10","47735","0.0-1.0-5.0-0.0","0","0","59427","","782","","","75","0","","","1","0","training","adjacent","BC","2","3","Q.jpg","L.jpg","1","1","1","",""
"","feedback","","html-keyboard-response","11","48744","0.0-1.0-6.0-0.0","0","0","59427","","null","","","null","0","","","","","","","","","","","","","","","",""
"","ITI","","html-keyboard-response","12","49750","0.0-1.0-9.0","0","0","59427","","212","","","68","0","","","","","","","","","","","","","","","d",""
"","S1","","html-keyboard-response","13","50014","0.0-1.0-11.0","0","0","59427","","null","","","null","1","","","","","","","","","","","","","","","",""
"","ISI","","html-keyboard-response","14","50542","0.0-1.0-12.0","0","0","59427","","null","","","null","1","NaN","","","","","","","","","","","","","","",""
"","S2","","html-keyboard-response","15","50805","0.0-1.0-13.0","0","0","59427","","null","","","null","1","","NaN","","","","","","","","","","","","","",""
"","response","","html-keyboard-response","16","52570","0.0-1.0-14.0-0.0","0","0","59427","","null","","","null","1","","","1","1","training","adjacent","CB","3","2","L.jpg","Q.jpg","NaN","0","0","",""
"","too_slow_prompt","","html-keyboard-response","17","53577","0.0-1.0-16.0-0.0","1","0","59427","","null","","","null","","","","","","","","","","","","","","","","",""
"","time_out","","html-keyboard-response","18","55584","0.0-1.0-17.0-0.0","0","0","59427","","null","","","null","1","","","","","","","","","","","","","","","",""
"","ITI","","html-keyboard-response","19","56589","0.0-1.0-18.0","0","0","59427","","null","","","null","1","","","","","","","","","","","","","","","NaN",""
"","S1","","html-keyboard-response","20","56929","0.0-1.0-20.0","0","0","59427","","null","","","null","2","","","","","","","","","","","","","","","",""
"","ISI","","html-keyboard-response","21","57444","0.0-1.0-21.0","0","0","59427","","null","","","null","2","NaN","","","","","","","","","","","","","","",""
"","S2","","html-keyboard-response","22","57701","0.0-1.0-22.0","0","0","59427","","null","","","null","2","","NaN","","","","","","","","","","","","","",""
"","response","","html-keyboard-response","23","59483","0.0-1.0-23.0-0.0","0","0","59427","","null","","","null","2","","","1","2","training","adjacent","DE","4","5","M.jpg","P.jpg","NaN","1","0","",""
"","too_slow_prompt","","html-keyboard-response","24","60531","0.0-1.0-25.0-0.0","1","0","59427","","null","","","null","","","","","","","","","","","","","","","","",""
"","time_out","","html-keyboard-response","25","69924","0.0-1.0-26.0-0.0","0","0","59427","","null","","","null","2","","","","","","","","","","","","","","","",""
"","ITI","","html-keyboard-response","26","71200","0.0-1.0-27.0","0","0","59427","","814","","","144","2","","","","","","","","","","","","","","","",""
"","S1","","html-keyboard-response","27","71510","0.0-1.0-29.0","0","0","59427","","null","","","null","3","","","","","","","","","","","","","","","",""
"","ISI","","html-keyboard-response","28","72031","0.0-1.0-30.0","0","0","59427","","null","","","null","3","NaN","","","","","","","","","","","","","","",""
"","S2","","html-keyboard-response","29","72454","0.0-1.0-31.0","0","0","59427","","null","","","null","3","","NaN","","","","","","","","","","","","","",""
"","response","","html-keyboard-response","30","74222","0.0-1.0-32.0-0.0","0","0","59427","","null","","","null","3","","","1","3","training","adjacent","BA","2","1","Q.jpg","R.jpg","NaN","0","0","",""
"","too_slow_prompt","","html-keyboard-response","31","75268","0.0-1.0-34.0-0.0","1","0","59427","","null","","","null","","","","","","","","","","","","","","","","",""
"","time_out","","html-keyboard-response","32","77303","0.0-1.0-35.0-0.0","0","0","59427","","null","","","null","3","","","","","","","","","","","","","","","",""
"","ITI","","html-keyboard-response","33","78312","0.0-1.0-36.0","0","0","59427","","103","","","68","3","","","","","","","","","","","","","","","d",""
"","S1","","html-keyboard-response","34","78692","0.0-1.0-38.0","0","0","59427","","null","","","null","4","","","","","","","","","","","","","","","",""
"","ISI","","html-keyboard-response","35","79223","0.0-1.0-39.0","0","0","59427","","null","","","null","4","NaN","","","","","","","","","","","","","","",""
"","S2","","html-keyboard-response","36","79482","0.0-1.0-40.0","0","0","59427","","null","","","null","4","","NaN","","","","","","","","","","","","","",""
"","response","","html-keyboard-response","37","79708","0.0-1.0-41.0-0.0","0","0","59427","","219","","","68","4","","","1","4","training","adjacent","DC","4","3","M.jpg","L.jpg","0","0","1","",""
"","feedback","","html-keyboard-response","38","80745","0.0-1.0-42.0-0.0","0","0","59427","","null","","","null","4","","","","","","","","","","","","","","","",""
"","ITI","","html-keyboard-response","39","81770","0.0-1.0-45.0","0","0","59427","","null","","","null","4","","","","","","","","","","","","","","","NaN",""
"","S1","","html-keyboard-response","40","82033","0.0-1.0-47.0","0","0","59427","","null","","","null","5","","","","","","","","","","","","","","","",""
"","ISI","","html-keyboard-response","41","82551","0.0-1.0-48.0","0","0","59427","","null","","","null","5","NaN","","","","","","","","","","","","","","",""
"","S2","","html-keyboard-response","42","82817","0.0-1.0-49.0","0","0","59427","","null","","","null","5","","NaN","","","","","","","","","","","","","",""
"","response","","html-keyboard-response","43","84624","0.0-1.0-50.0-0.0","0","0","59427","","null","","","null","5","","","1","5","training","adjacent","AB","1","2","R.jpg","Q.jpg","NaN","1","0","",""
"","too_slow_prompt","","html-keyboard-response","44","85736","0.0-1.0-52.0-0.0","1","0","59427","","null","","","null","","","","","","","","","","","","","","","","",""
"","time_out","","html-keyboard-response","45","87756","0.0-1.0-53.0-0.0","0","0","59427","","null","","","null","5","","","","","","","","","","","","","","","",""
"","ITI","","html-keyboard-response","46","88761","0.0-1.0-54.0","0","0","59427","","26","","","75","5","","","","","","","","","","","","","","","k",""
"","S1","","html-keyboard-response","47","89014","0.0-1.0-56.0","0","0","59427","","null","","","null","6","","","","","","","","","","","","","","","",""
"","ISI","","html-keyboard-response","48","89524","0.0-1.0-57.0","0","0","59427","","null","","","null","6","NaN","","","","","","","","","","","","","","",""
"","S2","","html-keyboard-response","49","89783","0.0-1.0-58.0","0","0","59427","","null","","","null","6","","NaN","","","","","","","","","","","","","",""
"","response","","html-keyboard-response","50","95517","0.0-1.0-59.0-0.0","0","0","59427","","null","","","null","6","","","1","6","training","adjacent","CB","3","2","L.jpg","Q.jpg","NaN","0","0","",""
"","too_slow_prompt","","html-keyboard-response","51","96522","0.0-1.0-61.0-0.0","1","0","59427","","null","","","null","","","","","","","","","","","","","","","","",""
"","time_out","","html-keyboard-response","52","98944","0.0-1.0-62.0-0.0","0","0","59427","","null","","","null","6","","","","","","","","","","","","","","","",""
"","ITI","","html-keyboard-response","53","100945","0.0-1.0-63.0","0","0","59427","","null","","","null","6","","","","","","","","","","","","","","","NaN",""
"","S1","","html-keyboard-response","54","101947","0.0-1.0-65.0","0","0","59427","","null","","","null","7","","","","","","","","","","","","","","","",""
"","ISI","","html-keyboard-response","55","102944","0.0-1.0-66.0","0","0","59427","","null","","","null","7","NaN","","","","","","","","","","","","","","",""
"","S2","","html-keyboard-response","56","104024","0.0-1.0-67.0","0","0","59427","","null","","","null","7","","NaN","","","","","","","","","","","","","",""
"","response","","html-keyboard-response","57","112146","0.0-1.0-68.0-0.0","0","0","59427","","null","","","null","7","","","1","7","training","adjacent","AB","1","2","R.jpg","Q.jpg","NaN","1","0","",""
"","too_slow_prompt","","html-keyboard-response","58","113945","0.0-1.0-70.0-0.0","1","0","59427","","null","","","null","","","","","","","","","","","","","","","","",""
"","time_out","","html-keyboard-response","59","116946","0.0-1.0-71.0-0.0","0","0","59427","","null","","","null","7","","","","","","","","","","","","","","","",""
"","ITI","","html-keyboard-response","60","118945","0.0-1.0-72.0","0","0","59427","","null","","","null","7","","","","","","","","","","","","","","","NaN",""
"","S1","","html-keyboard-response","61","119957","0.0-1.0-74.0","0","0","59427","","null","","","null","8","","","","","","","","","","","","","","","",""
"","ISI","","html-keyboard-response","62","123768","0.0-1.0-75.0","0","0","59427","","null","","","null","8","NaN","","","","","","","","","","","","","","",""
"","S2","","html-keyboard-response","63","125279","0.0-1.0-76.0","0","0","59427","","null","","","null","8","","NaN","","","","","","","","","","","","","",""
"","response","","html-keyboard-response","64","128291","0.0-1.0-77.0-0.0","0","0","59427","","null","","","null","8","","","1","8","training","adjacent","FE","6","5","O.jpg","P.jpg","NaN","0","0","",""
"","too_slow_prompt","","html-keyboard-response","65","133521","0.0-1.0-79.0-0.0","1","0","59427","","null","","","null","","","","","","","","","","","","","","","","",""
"","time_out","","html-keyboard-response","66","135946","0.0-1.0-80.0-0.0","0","0","59427","","null","","","null","8","","","","","","","","","","","","","","","",""
"","ITI","","html-keyboard-response","67","137945","0.0-1.0-81.0","0","0","59427","","null","","","null","8","","","","","","","","","","","","","","","NaN",""
"","S1","","html-keyboard-response","68","138947","0.0-1.0-83.0","0","0","59427","","null","","","null","9","","","","","","","","","","","","","","","",""
"","ISI","","html-keyboard-response","69","143675","0.0-1.0-84.0","0","0","59427","","null","","","null","9","NaN","","","","","","","","","","","","","","",""
"","S2","","html-keyboard-response","70","144831","0.0-1.0-85.0","0","0","59427","","null","","","null","9","","NaN","","","","","","","","","","","","","",""
"","response","","html-keyboard-response","71","147991","0.0-1.0-86.0-0.0","0","0","59427","","null","","","null","9","","","1","9","training","adjacent","BC","2","3","Q.jpg","L.jpg","NaN","1","0","",""
"","too_slow_prompt","","html-keyboard-response","72","149566","0.0-1.0-88.0-0.0","1","0","59427","","null","","","null","","","","","","","","","","","","","","","","",""
"","time_out","","html-keyboard-response","73","151734","0.0-1.0-89.0-0.0","0","0","59427","","null","","","null","9","","","","","","","","","","","","","","","",""
"","ITI","","html-keyboard-response","74","152738","0.0-1.0-90.0","0","0","59427","","null","","","null","9","","","","","","","","","","","","","","","NaN",""
"","S1","","html-keyboard-response","75","152995","0.0-1.0-92.0","0","0","59427","","null","","","null","10","","","","","","","","","","","","","","","",""
"","ISI","","html-keyboard-response","76","153504","0.0-1.0-93.0","0","0","59427","","418","","","83","10","s","","","","","","","","","","","","","","",""
"","S2","","html-keyboard-response","77","153769","0.0-1.0-94.0","0","0","59427","","null","","","null","10","","NaN","","","","","","","","","","","","","",""
"","response","","html-keyboard-response","78","153983","0.0-1.0-95.0-0.0","0","0","59427","","212","","","68","10","","","1","10","training","adjacent","EF","5","6","P.jpg","O.jpg","0","1","0","",""
"","feedback","","html-keyboard-response","79","154991","0.0-1.0-96.0-0.0","0","0","59427","","null","","","null","10","","","","","","","","","","","","","","","",""
"","time_out","","html-keyboard-response","80","157049","0.0-1.0-98.0-0.0","0","0","59427","","null","","","null","10","","","","","","","","","","","","","","","",""
"","ITI","","html-keyboard-response","81","158057","0.0-1.0-99.0","0","0","59427","","58","","","68","10","","","","","","","","","","","","","","","d",""
"","S1","","html-keyboard-response","82","158312","0.0-1.0-101.0","0","0","59427","","null","","","null","11","","","","","","","","","","","","","","","",""
"","ISI","","html-keyboard-response","83","158817","0.0-1.0-102.0","0","0","59427","","40","","","68","11","d","","","","","","","","","","","","","","",""
"","S2","","html-keyboard-response","84","158838","0.0-1.0-103.0","0","0","59427","","18","","","75","11","","k","1","11","training","adjacent","AB","1","2","R.jpg","Q.jpg","1","1","1","",""
"","feedback","","html-keyboard-response","85","159851","0.0-1.0-105.0-0.0","0","0","59427","","null","","","null","11","","","","","","","","","","","","","","","",""
"","ITI","","html-keyboard-response","86","160857","0.0-1.0-108.0","0","0","59427","","7","","","68","11","","","","","","","","","","","","","","","d",""
"","S1","","html-keyboard-response","87","161120","0.0-1.0-110.0","0","0","59427","","null","","","null","12","","","","","","","","","","","","","","","",""
"","ISI","","html-keyboard-response","88","161626","0.0-1.0-111.0","0","0","59427","","211","","","68","12","d","","","","","","","","","","","","","","",""
"","S2","","html-keyboard-response","89","161716","0.0-1.0-112.0","0","0","59427","","87","","","68","12","","d","1","12","training","adjacent","BA","2","1","Q.jpg","R.jpg","0","0","1","",""
"","feedback","","html-keyboard-response","90","162742","0.0-1.0-114.0-0.0","0","0","59427","","null","","","null","12","","","","","","","","","","","","","","","",""
"","ITI","","html-keyboard-response","91","163751","0.0-1.0-117.0","0","0","59427","","65","","","68","12","","","","","","","","","","","","","","","d",""
"","S1","","html-keyboard-response","92","164013","0.0-1.0-119.0","0","0","59427","","null","","","null","13","","","","","","","","","","","","","","","",""
"","ISI","","html-keyboard-response","93","164533","0.0-1.0-120.0","0","0","59427","","101","","","68","13","d","","","","","","","","","","","","","","",""
"","S2","","html-keyboard-response","94","164684","0.0-1.0-121.0","0","0","59427","","147","","","68","13","","d","1","13","training","adjacent","FE","6","5","O.jpg","P.jpg","0","0","1","",""
"","feedback","","html-keyboard-response","95","165690","0.0-1.0-123.0-0.0","0","0","59427","","null","","","null","13","","","","","","","","","","","","","","","",""
"","ITI","","html-keyboard-response","96","166741","0.0-1.0-126.0","0","0","59427","","205","","","68","13","","","","","","","","","","","","","","","d",""
"","S1","","html-keyboard-response","97","166996","0.0-1.0-128.0","0","0","59427","","null","","","null","14","","","","","","","","","","","","","","","",""
"","ISI","","html-keyboard-response","98","167503","0.0-1.0-129.0","0","0","59427","","110","","","68","14","d","","","","","","","","","","","","","","",""
"","S2","","html-keyboard-response","99","167549","0.0-1.0-130.0","0","0","59427","","41","","","68","14","","d","1","14","training","adjacent","FE","6","5","O.jpg","P.jpg","0","0","1","",""
"","feedback","","html-keyboard-response","100","168554","0.0-1.0-132.0-0.0","0","0","59427","","null","","","null","14","","","","","","","","","","","","","","","",""
"","ITI","","html-keyboard-response","101","169558","0.0-1.0-135.0","0","0","59427","","53","","","75","14","","","","","","","","","","","","","","","k",""
"","S1","","html-keyboard-response","102","169811","0.0-1.0-137.0","0","0","59427","","null","","","null","15","","","","","","","","","","","","","","","",""
"","ISI","","html-keyboard-response","103","170314","0.0-1.0-138.0","0","0","59427","","216","","","68","15","d","","","","","","","","","","","","","","",""
"","S2","","html-keyboard-response","104","170400","0.0-1.0-139.0","0","0","59427","","82","","","75","15","","k","1","15","training","adjacent","EF","5","6","P.jpg","O.jpg","1","1","1","",""
"","feedback","","html-keyboard-response","105","171408","0.0-1.0-141.0-0.0","0","0","59427","","null","","","null","15","","","","","","","","","","","","","","","",""
"","ITI","","html-keyboard-response","106","172417","0.0-1.0-144.0","0","0","59427","","84","","","68","15","","","","","","","","","","","","","","","d",""
"","S1","","html-keyboard-response","107","172671","0.0-1.0-146.0","0","0","59427","","null","","","null","16","","","","","","","","","","","","","","","",""
"","ISI","","html-keyboard-response","108","173183","0.0-1.0-147.0","0","0","59427","","11","","","68","16","d","","","","","","","","","","","","","","",""
"","S2","","html-keyboard-response","109","173223","0.0-1.0-148.0","0","0","59427","","33","","","75","16","","k","1","16","training","adjacent","GF","7","6","N.jpg","O.jpg","1","0","0","",""
"","feedback","","html-keyboard-response","110","174228","0.0-1.0-150.0-0.0","0","0","59427","","null","","","null","16","","","","","","","","","","","","","","","",""
"","time_out","","html-keyboard-response","111","176242","0.0-1.0-152.0-0.0","0","0","59427","","null","","","null","16","","","","","","","","","","","","","","","",""
"","ITI","","html-keyboard-response","112","177248","0.0-1.0-153.0","0","0","59427","","69","","","75","16","","","","","","","","","","","","","","","k",""
"","S1","","html-keyboard-response","113","177509","0.0-1.0-155.0","0","0","59427","","null","","","null","17","","","","","","","","","","","","","","","",""
"","ISI","","html-keyboard-response","114","178011","0.0-1.0-156.0","0","0","59427","","15","","","68","17","d","","","","","","","","","","","","","","",""
"","S2","","html-keyboard-response","115","178210","0.0-1.0-157.0","0","0","59427","","194","","","68","17","","d","1","17","training","adjacent","AB","1","2","R.jpg","Q.jpg","0","1","0","",""
"","feedback","","html-keyboard-response","116","179215","0.0-1.0-159.0-0.0","0","0","59427","","null","","","null","17","","","","","","","","","","","","","","","",""
"","time_out","","html-keyboard-response","117","181225","0.0-1.0-161.0-0.0","0","0","59427","","null","","","null","17","","","","","","","","","","","","","","","",""
"","ITI","","html-keyboard-response","118","182227","0.0-1.0-162.0","0","0","59427","","40","","","68","17","","","","","","","","","","","","","","","d",""
"","S1","","html-keyboard-response","119","182484","0.0-1.0-164.0","0","0","59427","","null","","","null","18","","","","","","","","","","","","","","","",""
"","ISI","","html-keyboard-response","120","182999","0.0-1.0-165.0","0","0","59427","","32","","","68","18","d","","","","","","","","","","","","","","",""
"","S2","","html-keyboard-response","121","183063","0.0-1.0-166.0","0","0","59427","","60","","","68","18","","d","1","18","training","adjacent","CB","3","2","L.jpg","Q.jpg","0","0","1","",""
"","feedback","","html-keyboard-response","122","184073","0.0-1.0-168.0-0.0","0","0","59427","","null","","","null","18","","","","","","","","","","","","","","","",""
"","ITI","","html-keyboard-response","123","185079","0.0-1.0-171.0","0","0","59427","","33","","","68","18","","","","","","","","","","","","","","","d",""
"","S1","","html-keyboard-response","124","185333","0.0-1.0-173.0","0","0","59427","","null","","","null","19","","","","","","","","","","","","","","","",""
"","ISI","","html-keyboard-response","125","185842","0.0-1.0-174.0","0","0","59427","","14","","","75","19","k","","","","","","","","","","","","","","",""
"","S2","","html-keyboard-response","126","185852","0.0-1.0-175.0","0","0","59427","","7","","","68","19","","d","1","19","training","adjacent","DE","4","5","M.jpg","P.jpg","0","1","0","",""
"","feedback","","html-keyboard-response","127","186920","0.0-1.0-177.0-0.0","0","0","59427","","null","","","null","19","","","","","","","","","","","","","","","",""
"","time_out","","html-keyboard-response","128","188932","0.0-1.0-179.0-0.0","0","0","59427","","null","","","null","19","","","","","","","","","","","","","","","",""
"","ITI","","html-keyboard-response","129","189936","0.0-1.0-180.0","0","0","59427","","16","","","75","19","","","","","","","","","","","","","","","k",""
"","S1","","html-keyboard-response","130","190192","0.0-1.0-182.0","0","0","59427","","null","","","null","20","","","","","","","","","","","","","","","",""
"","ISI","","html-keyboard-response","131","190697","0.0-1.0-183.0","0","0","59427","","64","","","75","20","k","","","","","","","","","","","","","","",""
"","S2","","html-keyboard-response","132","190772","0.0-1.0-184.0","0","0","59427","","65","","","68","20","","d","1","20","training","adjacent","GF","7","6","N.jpg","O.jpg","0","0","1","",""
"","feedback","","html-keyboard-response","133","191777","0.0-1.0-186.0-0.0","0","0","59427","","null","","","null","20","","","","","","","","","","","","","","","",""
"","ITI","","html-keyboard-response","134","192778","0.0-1.0-189.0","0","0","59427","","45","","","75","20","","","","","","","","","","","","","","","k",""
"","S1","","html-keyboard-response","135","193042","0.0-1.0-191.0","0","0","59427","","null","","","null","21","","","","","","","","","","","","","","","",""
"","ISI","","html-keyboard-response","136","193544","0.0-1.0-192.0","0","0","59427","","141","","","68","21","d","","","","","","","","","","","","","","",""
"","S2","","html-keyboard-response","137","193698","0.0-1.0-193.0","0","0","59427","","150","","","68","21","","d","1","21","training","adjacent","GF","7","6","N.jpg","O.jpg","0","0","1","",""
"","feedback","","html-keyboard-response","138","194717","0.0-1.0-195.0-0.0","0","0","59427","","null","","","null","21","","","","","","","","","","","","","","","",""
"","ITI","","html-keyboard-response","139","195725","0.0-1.0-198.0","0","0","59427","","209","","","68","21","","","","","","","","","","","","","","","d",""
"","S1","","html-keyboard-response","140","195978","0.0-1.0-200.0","0","0","59427","","null","","","null","22","","","","","","","","","","","","","","","",""
"","ISI","","html-keyboard-response","141","196484","0.0-1.0-201.0","0","0","59427","","108","","","68","22","d","","","","","","","","","","","","","","",""
"","S2","","html-keyboard-response","142","196704","0.0-1.0-202.0","0","0","59427","","213","","","68","22","","d","1","22","training","adjacent","ED","5","4","P.jpg","M.jpg","0","0","1","",""
"","feedback","","html-keyboard-response","143","197709","0.0-1.0-204.0-0.0","0","0","59427","","null","","","null","22","","","","","","","","","","","","","","","",""
"","ITI","","html-keyboard-response","144","198836","0.0-1.0-207.0","0","0","59427","","59","","","75","22","","","","","","","","","","","","","","","k",""
"","S1","","html-keyboard-response","145","199089","0.0-1.0-209.0","0","0","59427","","null","","","null","23","","","","","","","","","","","","","","","",""
"","ISI","","html-keyboard-response","146","199600","0.0-1.0-210.0","0","0","59427","","378","","","32","23","space","","","","","","","","","","","","","","",""
"","S2","","html-keyboard-response","147","199762","0.0-1.0-211.0","0","0","59427","","157","","","75","23","","k","1","23","training","adjacent","DC","4","3","M.jpg","L.jpg","1","0","0","",""
"","feedback","","html-keyboard-response","148","200775","0.0-1.0-213.0-0.0","0","0","59427","","null","","","null","23","","","","","","","","","","","","","","","",""
"","time_out","","html-keyboard-response","149","202780","0.0-1.0-215.0-0.0","0","0","59427","","null","","","null","23","","","","","","","","","","","","","","","",""
"","ITI","","html-keyboard-response","150","203784","0.0-1.0-216.0","0","0","59427","","null","","","null","23","","","","","","","","","","","","","","","NaN",""
"","S1","","html-keyboard-response","151","204036","0.0-1.0-218.0","0","0","59427","","null","","","null","24","","","","","","","","","","","","","","","",""
"","ISI","","html-keyboard-response","152","204555","0.0-1.0-219.0","0","0","59427","","null","","","null","24","NaN","","","","","","","","","","","","","","",""
"","S2","","html-keyboard-response","153","204841","0.0-1.0-220.0","0","0","59427","","null","","","null","24","","NaN","","","","","","","","","","","","","",""
"","response","","html-keyboard-response","154","206596","0.0-1.0-221.0-0.0","0","0","59427","","null","","","null","24","","","1","24","training","adjacent","ED","5","4","P.jpg","M.jpg","NaN","0","0","",""
"","too_slow_prompt","","html-keyboard-response","155","207601","0.0-1.0-223.0-0.0","1","0","59427","","null","","","null","","","","","","","","","","","","","","","","",""
"","time_out","","html-keyboard-response","156","209611","0.0-1.0-224.0-0.0","0","0","59427","","null","","","null","24","","","","","","","","","","","","","","","",""
"","ITI","","html-keyboard-response","157","210614","0.0-1.0-225.0","0","0","59427","","11","","","68","24","","","","","","","","","","","","","","","d",""
"","S1","","html-keyboard-response","158","210881","0.0-1.0-227.0","0","0","59427","","null","","","null","25","","","","","","","","","","","","","","","",""
"","ISI","","html-keyboard-response","159","211384","0.0-1.0-228.0","0","0","59427","","118","","","68","25","d","","","","","","","","","","","","","","",""
"","S2","","html-keyboard-response","160","211460","0.0-1.0-229.0","0","0","59427","","71","","","68","25","","d","1","25","training","adjacent","BA","2","1","Q.jpg","R.jpg","0","0","1","",""
"","feedback","","html-keyboard-response","161","212506","0.0-1.0-231.0-0.0","0","0","59427","","null","","","null","25","","","","","","","","","","","","","","","",""
"","ITI","","html-keyboard-response","162","213511","0.0-1.0-234.0","0","0","59427","","88","","","68","25","","","","","","","","","","","","","","","d",""
"","S1","","html-keyboard-response","163","213762","0.0-1.0-236.0","0","0","59427","","null","","","null","26","","","","","","","","","","","","","","","",""
"","ISI","","html-keyboard-response","164","214266","0.0-1.0-237.0","0","0","59427","","181","","","75","26","k","","","","","","","","","","","","","","",""
"","S2","","html-keyboard-response","165","214376","0.0-1.0-238.0","0","0","59427","","107","","","68","26","","d","1","26","training","adjacent","BA","2","1","Q.jpg","R.jpg","0","0","1","",""
"","feedback","","html-keyboard-response","166","215396","0.0-1.0-240.0-0.0","0","0","59427","","null","","","null","26","","","","","","","","","","","","","","","",""
"","ITI","","html-keyboard-response","167","216400","0.0-1.0-243.0","0","0","59427","","226","","","68","26","","","","","","","","","","","","","","","d",""
"","S1","","html-keyboard-response","168","216660","0.0-1.0-245.0","0","0","59427","","null","","","null","27","","","","","","","","","","","","","","","",""
"","ISI","","html-keyboard-response","169","217166","0.0-1.0-246.0","0","0","59427","","20","","","68","27","d","","","","","","","","","","","","","","",""
"","S2","","html-keyboard-response","170","217178","0.0-1.0-247.0","0","0","59427","","10","","","68","27","","d","1","27","training","adjacent","BC","2","3","Q.jpg","L.jpg","0","1","0","",""
"","feedback","","html-keyboard-response","171","218193","0.0-1.0-249.0-0.0","0","0","59427","","null","","","null","27","","","","","","","","","","","","","","","",""
"","time_out","","html-keyboard-response","172","220199","0.0-1.0-251.0-0.0","0","0","59427","","null","","","null","27","","","","","","","","","","","","","","","",""
"","ITI","","html-keyboard-response","173","221205","0.0-1.0-252.0","0","0","59427","","110","","","68","27","","","","","","","","","","","","","","","d",""
"","S1","","html-keyboard-response","174","221463","0.0-1.0-254.0","0","0","59427","","null","","","null","28","","","","","","","","","","","","","","","",""
"","ISI","","html-keyboard-response","175","221974","0.0-1.0-255.0","0","0","59427","","53","","","68","28","d","","","","","","","","","","","","","","",""
"","S2","","html-keyboard-response","176","222234","0.0-1.0-256.0","0","0","59427","","null","","","null","28","","NaN","","","","","","","","","","","","","",""
"","response","","html-keyboard-response","177","222264","0.0-1.0-257.0-0.0","0","0","59427","","25","","","68","28","","","1","28","training","adjacent","CD","3","4","L.jpg","M.jpg","0","1","0","",""
"","feedback","","html-keyboard-response","178","223271","0.0-1.0-258.0-0.0","0","0","59427","","null","","","null","28","","","","","","","","","","","","","","","",""
"","time_out","","html-keyboard-response","179","225276","0.0-1.0-260.0-0.0","0","0","59427","","null","","","null","28","","","","","","","","","","","","","","","",""
"","ITI","","html-keyboard-response","180","226290","0.0-1.0-261.0","0","0","59427","","67","","","75","28","","","","","","","","","","","","","","","k",""
"","S1","","html-keyboard-response","181","226553","0.0-1.0-263.0","0","0","59427","","null","","","null","29","","","","","","","","","","","","","","","",""
"","ISI","","html-keyboard-response","182","227064","0.0-1.0-264.0","0","0","59427","","147","","","68","29","d","","","","","","","","","","","","","","",""
"","S2","","html-keyboard-response","183","227099","0.0-1.0-265.0","0","0","59427","","31","","","68","29","","d","1","29","training","adjacent","DC","4","3","M.jpg","L.jpg","0","0","1","",""
"","feedback","","html-keyboard-response","184","228112","0.0-1.0-267.0-0.0","0","0","59427","","null","","","null","29","","","","","","","","","","","","","","","",""
"","ITI","","html-keyboard-response","185","229125","0.0-1.0-270.0","0","0","59427","","345","","","75","29","","","","","","","","","","","","","","","k",""
"","S1","","html-keyboard-response","186","229385","0.0-1.0-272.0","0","0","59427","","null","","","null","30","","","","","","","","","","","","","","","",""
"","ISI","","html-keyboard-response","187","229902","0.0-1.0-273.0","0","0","59427","","169","","","68","30","d","","","","","","","","","","","","","","",""
"","S2","","html-keyboard-response","188","230078","0.0-1.0-274.0","0","0","59427","","171","","","68","30","","d","1","30","training","adjacent","FG","6","7","O.jpg","N.jpg","0","1","0","",""
"","feedback","","html-keyboard-response","189","231084","0.0-1.0-276.0-0.0","0","0","59427","","null","","","null","30","","","","","","","","","","","","","","","",""
"","time_out","","html-keyboard-response","190","233100","0.0-1.0-278.0-0.0","0","0","59427","","null","","","null","30","","","","","","","","","","","","","","","",""
"","ITI","","html-keyboard-response","191","234105","0.0-1.0-279.0","0","0","59427","","0","","","75","30","","","","","","","","","","","","","","","k",""
"","S1","","html-keyboard-response","192","234359","0.0-1.0-281.0","0","0","59427","","null","","","null","31","","","","","","","","","","","","","","","",""
"","ISI","","html-keyboard-response","193","234864","0.0-1.0-282.0","0","0","59427","","242","","","68","31","d","","","","","","","","","","","","","","",""
"","S2","","html-keyboard-response","194","235011","0.0-1.0-283.0","0","0","59427","","142","","","75","31","","k","1","31","training","adjacent","CD","3","4","L.jpg","M.jpg","1","1","1","",""
"","feedback","","html-keyboard-response","195","236022","0.0-1.0-285.0-0.0","0","0","59427","","null","","","null","31","","","","","","","","","","","","","","","",""
"","ITI","","html-keyboard-response","196","237037","0.0-1.0-288.0","0","0","59427","","97","","","75","31","","","","","","","","","","","","","","","k",""
"","S1","","html-keyboard-response","197","237292","0.0-1.0-290.0","0","0","59427","","null","","","null","32","","","","","","","","","","","","","","","",""
"","ISI","","html-keyboard-response","198","237802","0.0-1.0-291.0","0","0","59427","","34","","","68","32","d","","","","","","","","","","","","","","",""
"","S2","","html-keyboard-response","199","237840","0.0-1.0-292.0","0","0","59427","","34","","","68","32","","d","1","32","training","adjacent","DE","4","5","M.jpg","P.jpg","0","1","0","",""
"","feedback","","html-keyboard-response","200","238850","0.0-1.0-294.0-0.0","0","0","59427","","null","","","null","32","","","","","","","","","","","","","","","",""
"","time_out","","html-keyboard-response","201","240861","0.0-1.0-296.0-0.0","0","0","59427","","null","","","null","32","","","","","","","","","","","","","","","",""
"","ITI","","html-keyboard-response","202","241870","0.0-1.0-297.0","0","0","59427","","192","","","68","32","","","","","","","","","","","","","","","d",""
"","S1","","html-keyboard-response","203","242126","0.0-1.0-299.0","0","0","59427","","null","","","null","33","","","","","","","","","","","","","","","",""
"","ISI","","html-keyboard-response","204","242661","0.0-1.0-300.0","0","0","59427","","130","","","68","33","d","","","","","","","","","","","","","","",""
"","S2","","html-keyboard-response","205","242810","0.0-1.0-301.0","0","0","59427","","141","","","75","33","","k","1","33","training","adjacent","FG","6","7","O.jpg","N.jpg","1","1","1","",""
"","feedback","","html-keyboard-response","206","243823","0.0-1.0-303.0-0.0","0","0","59427","","null","","","null","33","","","","","","","","","","","","","","","",""
"","ITI","","html-keyboard-response","207","244862","0.0-1.0-306.0","0","0","59427","","170","","","68","33","","","","","","","","","","","","","","","d",""
"","S1","","html-keyboard-response","208","245129","0.0-1.0-308.0","0","0","59427","","null","","","null","34","","","","","","","","","","","","","","","",""
"","ISI","","html-keyboard-response","209","245638","0.0-1.0-309.0","0","0","59427","","150","","","68","34","d","","","","","","","","","","","","","","",""
"","S2","","html-keyboard-response","210","245653","0.0-1.0-310.0","0","0","59427","","11","","","75","34","","k","1","34","training","adjacent","EF","5","6","P.jpg","O.jpg","1","1","1","",""
"","feedback","","html-keyboard-response","211","246666","0.0-1.0-312.0-0.0","0","0","59427","","null","","","null","34","","","","","","","","","","","","","","","",""
"","ITI","","html-keyboard-response","212","247670","0.0-1.0-315.0","0","0","59427","","82","","","68","34","","","","","","","","","","","","","","","d",""
"","S1","","html-keyboard-response","213","247924","0.0-1.0-317.0","0","0","59427","","null","","","null","35","","","","","","","","","","","","","","","",""
"","ISI","","html-keyboard-response","214","248428","0.0-1.0-318.0","0","0","59427","","239","","","68","35","d","","","","","","","","","","","","","","",""
"","S2","","html-keyboard-response","215","248489","0.0-1.0-319.0","0","0","59427","","58","","","75","35","","k","1","35","training","adjacent","DC","4","3","M.jpg","L.jpg","1","0","0","",""
"","feedback","","html-keyboard-response","216","249498","0.0-1.0-321.0-0.0","0","0","59427","","null","","","null","35","","","","","","","","","","","","","","","",""
"","time_out","","html-keyboard-response","217","251508","0.0-1.0-323.0-0.0","0","0","59427","","null","","","null","35","","","","","","","","","","","","","","","",""
"","ITI","","html-keyboard-response","218","252512","0.0-1.0-324.0","0","0","59427","","110","","","75","35","","","","","","","","","","","","","","","k",""
"","S1","","html-keyboard-response","219","252765","0.0-1.0-326.0","0","0","59427","","null","","","null","36","","","","","","","","","","","","","","","",""
"","ISI","","html-keyboard-response","220","253279","0.0-1.0-327.0","0","0","59427","","94","","","68","36","d","","","","","","","","","","","","","","",""
"","S2","","html-keyboard-response","221","253359","0.0-1.0-328.0","0","0","59427","","76","","","68","36","","d","1","36","training","adjacent","BC","2","3","Q.jpg","L.jpg","0","1","0","",""
"","feedback","","html-keyboard-response","222","254362","0.0-1.0-330.0-0.0","0","0","59427","","null","","","null","36","","","","","","","","","","","","","","","",""
"","time_out","","html-keyboard-response","223","256375","0.0-1.0-332.0-0.0","0","0","59427","","null","","","null","36","","","","","","","","","","","","","","","",""
"","ITI","","html-keyboard-response","224","257399","0.0-1.0-333.0","0","0","59427","","8","","","75","36","","","","","","","","","","","","","","","k",""
"","S1","","html-keyboard-response","225","257758","0.0-1.0-335.0","0","0","59427","","null","","","null","37","","","","","","","","","","","","","","","",""
"","ISI","","html-keyboard-response","226","258269","0.0-1.0-336.0","0","0","59427","","12","","","68","37","d","","","","","","","","","","","","","","",""
"","S2","","html-keyboard-response","227","258366","0.0-1.0-337.0","0","0","59427","","92","","","68","37","","d","1","37","training","adjacent","EF","5","6","P.jpg","O.jpg","0","1","0","",""
"","feedback","","html-keyboard-response","228","259380","0.0-1.0-339.0-0.0","0","0","59427","","null","","","null","37","","","","","","","","","","","","","","","",""
"","time_out","","html-keyboard-response","229","261385","0.0-1.0-341.0-0.0","0","0","59427","","null","","","null","37","","","","","","","","","","","","","","","",""
"","ITI","","html-keyboard-response","230","262388","0.0-1.0-342.0","0","0","59427","","70","","","68","37","","","","","","","","","","","","","","","d",""
"","S1","","html-keyboard-response","231","262646","0.0-1.0-344.0","0","0","59427","","null","","","null","38","","","","","","","","","","","","","","","",""
"","ISI","","html-keyboard-response","232","263148","0.0-1.0-345.0","0","0","59427","","49","","","68","38","d","","","","","","","","","","","","","","",""
"","S2","","html-keyboard-response","233","263269","0.0-1.0-346.0","0","0","59427","","115","","","68","38","","d","1","38","training","adjacent","FG","6","7","O.jpg","N.jpg","0","1","0","",""
"","feedback","","html-keyboard-response","234","264289","0.0-1.0-348.0-0.0","0","0","59427","","null","","","null","38","","","","","","","","","","","","","","","",""
"","time_out","","html-keyboard-response","235","266323","0.0-1.0-350.0-0.0","0","0","59427","","null","","","null","38","","","","","","","","","","","","","","","",""
"","ITI","","html-keyboard-response","236","267352","0.0-1.0-351.0","0","0","59427","","166","","","68","38","","","","","","","","","","","","","","","d",""
"","S1","","html-keyboard-response","237","267723","0.0-1.0-353.0","0","0","59427","","null","","","null","39","","","","","","","","","","","","","","","",""
"","ISI","","html-keyboard-response","238","268230","0.0-1.0-354.0","0","0","59427","","199","","","68","39","d","","","","","","","","","","","","","","",""
"","S2","","html-keyboard-response","239","268251","0.0-1.0-355.0","0","0","59427","","18","","","75","39","","k","1","39","training","adjacent","ED","5","4","P.jpg","M.jpg","1","0","0","",""
"","feedback","","html-keyboard-response","240","269269","0.0-1.0-357.0-0.0","0","0","59427","","null","","","null","39","","","","","","","","","","","","","","","",""
"","time_out","","html-keyboard-response","241","271273","0.0-1.0-359.0-0.0","0","0","59427","","null","","","null","39","","","","","","","","","","","","","","","",""
"","ITI","","html-keyboard-response","242","272277","0.0-1.0-360.0","0","0","59427","","112","","","68","39","","","","","","","","","","","","","","","d",""
"","S1","","html-keyboard-response","243","272548","0.0-1.0-362.0","0","0","59427","","null","","","null","40","","","","","","","","","","","","","","","",""
"","ISI","","html-keyboard-response","244","273059","0.0-1.0-363.0","0","0","59427","","84","","","68","40","d","","","","","","","","","","","","","","",""
"","S2","","html-keyboard-response","245","273171","0.0-1.0-364.0","0","0","59427","","107","","","75","40","","k","1","40","training","adjacent","DE","4","5","M.jpg","P.jpg","1","1","1","",""
"","feedback","","html-keyboard-response","246","274218","0.0-1.0-366.0-0.0","0","0","59427","","null","","","null","40","","","","","","","","","","","","","","","",""
"","ITI","","html-keyboard-response","247","275228","0.0-1.0-369.0","0","0","59427","","22","","","75","40","","","","","","","","","","","","","","","k",""
"","S1","","html-keyboard-response","248","275491","0.0-1.0-371.0","0","0","59427","","null","","","null","41","","","","","","","","","","","","","","","",""
"","ISI","","html-keyboard-response","249","276000","0.0-1.0-372.0","0","0","59427","","249","","","68","41","d","","","","","","","","","","","","","","",""
"","S2","","html-keyboard-response","250","276282","0.0-1.0-373.0","0","0","59427","","null","","","null","41","","NaN","","","","","","","","","","","","","",""
"","response","","html-keyboard-response","251","276305","0.0-1.0-374.0-0.0","0","0","59427","","21","","","68","41","","","1","41","training","adjacent","CD","3","4","L.jpg","M.jpg","0","1","0","",""
"","feedback","","html-keyboard-response","252","277308","0.0-1.0-375.0-0.0","0","0","59427","","null","","","null","41","","","","","","","","","","","","","","","",""
"","time_out","","html-keyboard-response","253","279326","0.0-1.0-377.0-0.0","0","0","59427","","null","","","null","41","","","","","","","","","","","","","","","",""
"","ITI","","html-keyboard-response","254","280336","0.0-1.0-378.0","0","0","59427","","168","","","68","41","","","","","","","","","","","","","","","d",""
"","S1","","html-keyboard-response","255","280597","0.0-1.0-380.0","0","0","59427","","null","","","null","42","","","","","","","","","","","","","","","",""
"","ISI","","html-keyboard-response","256","281102","0.0-1.0-381.0","0","0","59427","","129","","","68","42","d","","","","","","","","","","","","","","",""
"","S2","","html-keyboard-response","257","281118","0.0-1.0-382.0","0","0","59427","","13","","","68","42","","d","1","42","training","adjacent","FE","6","5","O.jpg","P.jpg","0","0","1","",""
"","feedback","","html-keyboard-response","258","282144","0.0-1.0-384.0-0.0","0","0","59427","","null","","","null","42","","","","","","","","","","","","","","","",""
"","ITI","","html-keyboard-response","259","283155","0.0-1.0-387.0","0","0","59427","","1","","","68","42","","","","","","","","","","","","","","","d",""
"","S1","","html-keyboard-response","260","283411","0.0-1.0-389.0","0","0","59427","","null","","","null","43","","","","","","","","","","","","","","","",""
"","ISI","","html-keyboard-response","261","283923","0.0-1.0-390.0","0","0","59427","","45","","","68","43","d","","","","","","","","","","","","","","",""
"","S2","","html-keyboard-response","262","284026","0.0-1.0-391.0","0","0","59427","","98","","","68","43","","d","1","43","training","adjacent","ED","5","4","P.jpg","M.jpg","0","0","1","",""
"","feedback","","html-keyboard-response","263","285034","0.0-1.0-393.0-0.0","0","0","59427","","null","","","null","43","","","","","","","","","","","","","","","",""
"","ITI","","html-keyboard-response","264","286038","0.0-1.0-396.0","0","0","59427","","180","","","68","43","","","","","","","","","","","","","","","d",""
"","S1","","html-keyboard-response","265","286290","0.0-1.0-398.0","0","0","59427","","null","","","null","44","","","","","","","","","","","","","","","",""
"","ISI","","html-keyboard-response","266","286793","0.0-1.0-399.0","0","0","59427","","224","","","68","44","d","","","","","","","","","","","","","","",""
"","S2","","html-keyboard-response","267","286852","0.0-1.0-400.0","0","0","59427","","54","","","75","44","","k","1","44","training","adjacent","FG","6","7","O.jpg","N.jpg","1","1","1","",""
"","feedback","","html-keyboard-response","268","287860","0.0-1.0-402.0-0.0","0","0","59427","","null","","","null","44","","","","","","","","","","","","","","","",""
"","ITI","","html-keyboard-response","269","288870","0.0-1.0-405.0","0","0","59427","","26","","","68","44","","","","","","","","","","","","","","","d",""
"","S1","","html-keyboard-response","270","289130","0.0-1.0-407.0","0","0","59427","","null","","","null","45","","","","","","","","","","","","","","","",""
"","ISI","","html-keyboard-response","271","289642","0.0-1.0-408.0","0","0","59427","","123","","","68","45","d","","","","","","","","","","","","","","",""
"","S2","","html-keyboard-response","272","289699","0.0-1.0-409.0","0","0","59427","","51","","","68","45","","d","1","45","training","adjacent","CD","3","4","L.jpg","M.jpg","0","1","0","",""
"","feedback","","html-keyboard-response","273","290705","0.0-1.0-411.0-0.0","0","0","59427","","null","","","null","45","","","","","","","","","","","","","","","",""
"","time_out","","html-keyboard-response","274","292717","0.0-1.0-413.0-0.0","0","0","59427","","null","","","null","45","","","","","","","","","","","","","","","",""
"","ITI","","html-keyboard-response","275","293733","0.0-1.0-414.0","0","0","59427","","164","","","68","45","","","","","","","","","","","","","","","d",""
"","S1","","html-keyboard-response","276","293992","0.0-1.0-416.0","0","0","59427","","null","","","null","46","","","","","","","","","","","","","","","",""
"","ISI","","html-keyboard-response","277","294503","0.0-1.0-417.0","0","0","59427","","25","","","75","46","k","","","","","","","","","","","","","","",""
"","S2","","html-keyboard-response","278","294548","0.0-1.0-418.0","0","0","59427","","41","","","75","46","","k","1","46","training","adjacent","GF","7","6","N.jpg","O.jpg","1","0","0","",""
"","feedback","","html-keyboard-response","279","295608","0.0-1.0-420.0-0.0","0","0","59427","","null","","","null","46","","","","","","","","","","","","","","","",""
"","time_out","","html-keyboard-response","280","297612","0.0-1.0-422.0-0.0","0","0","59427","","null","","","null","46","","","","","","","","","","","","","","","",""
"","ITI","","html-keyboard-response","281","298621","0.0-1.0-423.0","0","0","59427","","54","","","68","46","","","","","","","","","","","","","","","d",""
"","S1","","html-keyboard-response","282","298877","0.0-1.0-425.0","0","0","59427","","null","","","null","47","","","","","","","","","","","","","","","",""
"","ISI","","html-keyboard-response","283","299411","0.0-1.0-426.0","0","0","59427","","263","","","68","47","d","","","","","","","","","","","","","","",""
"","S2","","html-keyboard-response","284","299433","0.0-1.0-427.0","0","0","59427","","15","","","68","47","","d","1","47","training","adjacent","CB","3","2","L.jpg","Q.jpg","0","0","1","",""
"","feedback","","html-keyboard-response","285","300440","0.0-1.0-429.0-0.0","0","0","59427","","null","","","null","47","","","","","","","","","","","","","","","",""
"","ITI","","html-keyboard-response","286","301446","0.0-1.0-432.0","0","0","59427","","125","","","68","47","","","","","","","","","","","","","","","d",""
"","block_over","","html-keyboard-response","287","304666","0.0-1.0-433.0-0.0","0","0","59427","","3213","","","32","47","","","","","","","","","","","","","","","",""
"","S1","","html-keyboard-response","288","304929","0.0-1.0-434.0","0","0","59427","","null","","","null","48","","","","","","","","","","","","","","","",""
"","ISI","","html-keyboard-response","289","305434","0.0-1.0-435.0","0","0","59427","","31","","","68","48","d","","","","","","","","","","","","","","",""
"","S2","","html-keyboard-response","290","305532","0.0-1.0-436.0","0","0","59427","","93","","","75","48","","k","2","48","training","adjacent","FE","6","5","O.jpg","P.jpg","1","0","0","",""
"","feedback","","html-keyboard-response","291","306544","0.0-1.0-438.0-0.0","0","0","59427","","null","","","null","48","","","","","","","","","","","","","","","",""
"","time_out","","html-keyboard-response","292","308548","0.0-1.0-440.0-0.0","0","0","59427","","null","","","null","48","","","","","","","","","","","","","","","",""
"","ITI","","html-keyboard-response","293","309552","0.0-1.0-441.0","0","0","59427","","217","","","68","48","","","","","","","","","","","","","","","d",""
"","S1","","html-keyboard-response","294","309815","0.0-1.0-443.0","0","0","59427","","null","","","null","49","","","","","","","","","","","","","","","",""
"","ISI","","html-keyboard-response","295","310332","0.0-1.0-444.0","0","0","59427","","31","","","68","49","d","","","","","","","","","","","","","","",""
"","S2","","html-keyboard-response","296","310354","0.0-1.0-445.0","0","0","59427","","18","","","75","49","","k","2","49","training","adjacent","CD","3","4","L.jpg","M.jpg","1","1","1","",""
"","feedback","","html-keyboard-response","297","311364","0.0-1.0-447.0-0.0","0","0","59427","","null","","","null","49","","","","","","","","","","","","","","","",""
"","ITI","","html-keyboard-response","298","312396","0.0-1.0-450.0","0","0","59427","","null","","","null","49","","","","","","","","","","","","","","","NaN",""
"","S1","","html-keyboard-response","299","312649","0.0-1.0-452.0","0","0","59427","","null","","","null","50","","","","","","","","","","","","","","","",""
"","ISI","","html-keyboard-response","300","313151","0.0-1.0-453.0","0","0","59427","","276","","","75","50","k","","","","","","","","","","","","","","",""
"","S2","","html-keyboard-response","301","313162","0.0-1.0-454.0","0","0","59427","","7","","","75","50","","k","2","50","training","adjacent","GF","7","6","N.jpg","O.jpg","1","0","0","",""
"","feedback","","html-keyboard-response","302","314166","0.0-1.0-456.0-0.0","0","0","59427","","null","","","null","50","","","","","","","","","","","","","","","",""
"","time_out","","html-keyboard-response","303","316170","0.0-1.0-458.0-0.0","0","0","59427","","null","","","null","50","","","","","","","","","","","","","","","",""
"","ITI","","html-keyboard-response","304","317180","0.0-1.0-459.0","0","0","59427","","13","","","68","50","","","","","","","","","","","","","","","d",""
"","S1","","html-keyboard-response","305","317435","0.0-1.0-461.0","0","0","59427","","null","","","null","51","","","","","","","","","","","","","","","",""
"","ISI","","html-keyboard-response","306","317938","0.0-1.0-462.0","0","0","59427","","221","","","68","51","d","","","","","","","","","","","","","","",""
"","S2","","html-keyboard-response","307","318142","0.0-1.0-463.0","0","0","59427","","200","","","68","51","","d","2","51","training","adjacent","DE","4","5","M.jpg","P.jpg","0","1","0","",""
"","feedback","","html-keyboard-response","308","319150","0.0-1.0-465.0-0.0","0","0","59427","","null","","","null","51","","","","","","","","","","","","","","","",""
"","time_out","","html-keyboard-response","309","321160","0.0-1.0-467.0-0.0","0","0","59427","","null","","","null","51","","","","","","","","","","","","","","","",""
"","ITI","","html-keyboard-response","310","322199","0.0-1.0-468.0","0","0","59427","","173","","","68","51","","","","","","","","","","","","","","","d",""
"","S1","","html-keyboard-response","311","322453","0.0-1.0-470.0","0","0","59427","","null","","","null","52","","","","","","","","","","","","","","","",""
"","ISI","","html-keyboard-response","312","322956","0.0-1.0-471.0","0","0","59427","","69","","","68","52","d","","","","","","","","","","","","","","",""
"","S2","","html-keyboard-response","313","323144","0.0-1.0-472.0","0","0","59427","","185","","","68","52","","d","2","52","training","adjacent","CB","3","2","L.jpg","Q.jpg","0","0","1","",""
"","feedback","","html-keyboard-response","314","324155","0.0-1.0-474.0-0.0","0","0","59427","","null","","","null","52","","","","","","","","","","","","","","","",""
"","ITI","","html-keyboard-response","315","325161","0.0-1.0-477.0","0","0","59427","","77","","","68","52","","","","","","","","","","","","","","","d",""
"","S1","","html-keyboard-response","316","325414","0.0-1.0-479.0","0","0","59427","","null","","","null","53","","","","","","","","","","","","","","","",""
"","ISI","","html-keyboard-response","317","325918","0.0-1.0-480.0","0","0","59427","","210","","","68","53","d","","","","","","","","","","","","","","",""
"","S2","","html-keyboard-response","318","326098","0.0-1.0-481.0","0","0","59427","","177","","","68","53","","d","2","53","training","adjacent","GF","7","6","N.jpg","O.jpg","0","0","1","",""
"","feedback","","html-keyboard-response","319","327235","0.0-1.0-483.0-0.0","0","0","59427","","null","","","null","53","","","","","","","","","","","","","","","",""
"","ITI","","html-keyboard-response","320","328245","0.0-1.0-486.0","0","0","59427","","64","","","68","53","","","","","","","","","","","","","","","d",""
"","S1","","html-keyboard-response","321","328500","0.0-1.0-488.0","0","0","59427","","null","","","null","54","","","","","","","","","","","","","","","",""
"","ISI","","html-keyboard-response","322","329012","0.0-1.0-489.0","0","0","59427","","72","","","68","54","d","","","","","","","","","","","","","","",""
"","S2","","html-keyboard-response","323","329211","0.0-1.0-490.0","0","0","59427","","196","","","68","54","","d","2","54","training","adjacent","ED","5","4","P.jpg","M.jpg","0","0","1","",""
"","feedback","","html-keyboard-response","324","330215","0.0-1.0-492.0-0.0","0","0","59427","","null","","","null","54","","","","","","","","","","","","","","","",""
"","ITI","","html-keyboard-response","325","331230","0.0-1.0-495.0","0","0","59427","","70","","","68","54","","","","","","","","","","","","","","","d",""
"","S1","","html-keyboard-response","326","331483","0.0-1.0-497.0","0","0","59427","","null","","","null","55","","","","","","","","","","","","","","","",""
"","ISI","","html-keyboard-response","327","331990","0.0-1.0-498.0","0","0","59427","","136","","","68","55","d","","","","","","","","","","","","","","",""
"","S2","","html-keyboard-response","328","332155","0.0-1.0-499.0","0","0","59427","","162","","","68","55","","d","2","55","training","adjacent","FG","6","7","O.jpg","N.jpg","0","1","0","",""
"","feedback","","html-keyboard-response","329","333160","0.0-1.0-501.0-0.0","0","0","59427","","null","","","null","55","","","","","","","","","","","","","","","",""
"","time_out","","html-keyboard-response","330","335170","0.0-1.0-503.0-0.0","0","0","59427","","null","","","null","55","","","","","","","","","","","","","","","",""
"","ITI","","html-keyboard-response","331","336185","0.0-1.0-504.0","0","0","59427","","42","","","68","55","","","","","","","","","","","","","","","d",""
"","S1","","html-keyboard-response","332","336446","0.0-1.0-506.0","0","0","59427","","null","","","null","56","","","","","","","","","","","","","","","",""
"","ISI","","html-keyboard-response","333","336958","0.0-1.0-507.0","0","0","59427","","49","","","68","56","d","","","","","","","","","","","","","","",""
"","S2","","html-keyboard-response","334","336968","0.0-1.0-508.0","0","0","59427","","6","","","68","56","","d","2","56","training","adjacent","BA","2","1","Q.jpg","R.jpg","0","0","1","",""
"","feedback","","html-keyboard-response","335","337989","0.0-1.0-510.0-0.0","0","0","59427","","null","","","null","56","","","","","","","","","","","","","","","",""
"","ITI","","html-keyboard-response","336","339008","0.0-1.0-513.0","0","0","59427","","172","","","68","56","","","","","","","","","","","","","","","d",""
"","S1","","html-keyboard-response","337","339261","0.0-1.0-515.0","0","0","59427","","null","","","null","57","","","","","","","","","","","","","","","",""
"","ISI","","html-keyboard-response","338","339798","0.0-1.0-516.0","0","0","59427","","20","","","68","57","d","","","","","","","","","","","","","","",""
"","S2","","html-keyboard-response","339","339978","0.0-1.0-517.0","0","0","59427","","175","","","68","57","","d","2","57","training","adjacent","EF","5","6","P.jpg","O.jpg","0","1","0","",""
"","feedback","","html-keyboard-response","340","340992","0.0-1.0-519.0-0.0","0","0","59427","","null","","","null","57","","","","","","","","","","","","","","","",""
"","time_out","","html-keyboard-response","341","343000","0.0-1.0-521.0-0.0","0","0","59427","","null","","","null","57","","","","","","","","","","","","","","","",""
"","ITI","","html-keyboard-response","342","344003","0.0-1.0-522.0","0","0","59427","","87","","","68","57","","","","","","","","","","","","","","","d",""
"","S1","","html-keyboard-response","343","344268","0.0-1.0-524.0","0","0","59427","","null","","","null","58","","","","","","","","","","","","","","","",""
"","ISI","","html-keyboard-response","344","344770","0.0-1.0-525.0","0","0","59427","","206","","","68","58","d","","","","","","","","","","","","","","",""
"","S2","","html-keyboard-response","345","344878","0.0-1.0-526.0","0","0","59427","","103","","","68","58","","d","2","58","training","adjacent","CB","3","2","L.jpg","Q.jpg","0","0","1","",""
"","feedback","","html-keyboard-response","346","345949","0.0-1.0-528.0-0.0","0","0","59427","","null","","","null","58","","","","","","","","","","","","","","","",""
"","ITI","","html-keyboard-response","347","346963","0.0-1.0-531.0","0","0","59427","","121","","","68","58","","","","","","","","","","","","","","","d",""
"","S1","","html-keyboard-response","348","347224","0.0-1.0-533.0","0","0","59427","","null","","","null","59","","","","","","","","","","","","","","","",""
"","ISI","","html-keyboard-response","349","347775","0.0-1.0-534.0","0","0","59427","","67","","","68","59","d","","","","","","","","","","","","","","",""
"","S2","","html-keyboard-response","350","347787","0.0-1.0-535.0","0","0","59427","","9","","","68","59","","d","2","59","training","adjacent","BA","2","1","Q.jpg","R.jpg","0","0","1","",""
"","feedback","","html-keyboard-response","351","348801","0.0-1.0-537.0-0.0","0","0","59427","","null","","","null","59","","","","","","","","","","","","","","","",""
"","ITI","","html-keyboard-response","352","349809","0.0-1.0-540.0","0","0","59427","","74","","","68","59","","","","","","","","","","","","","","","d",""
"","S1","","html-keyboard-response","353","350071","0.0-1.0-542.0","0","0","59427","","null","","","null","60","","","","","","","","","","","","","","","",""
"","ISI","","html-keyboard-response","354","350580","0.0-1.0-543.0","0","0","59427","","204","","","68","60","d","","","","","","","","","","","","","","",""
"","S2","","html-keyboard-response","355","350735","0.0-1.0-544.0","0","0","59427","","151","","","68","60","","d","2","60","training","adjacent","DC","4","3","M.jpg","L.jpg","0","0","1","",""
"","feedback","","html-keyboard-response","356","351751","0.0-1.0-546.0-0.0","0","0","59427","","null","","","null","60","","","","","","","","","","","","","","","",""
"","ITI","","html-keyboard-response","357","352765","0.0-1.0-549.0","0","0","59427","","31","","","68","60","","","","","","","","","","","","","","","d",""
"","S1","","html-keyboard-response","358","353020","0.0-1.0-551.0","0","0","59427","","null","","","null","61","","","","","","","","","","","","","","","",""
"","ISI","","html-keyboard-response","359","353572","0.0-1.0-552.0","0","0","59427","","89","","","68","61","d","","","","","","","","","","","","","","",""
"","S2","","html-keyboard-response","360","353832","0.0-1.0-553.0","0","0","59427","","257","","","68","61","","d","2","61","training","adjacent","ED","5","4","P.jpg","M.jpg","0","0","1","",""
"","feedback","","html-keyboard-response","361","354873","0.0-1.0-555.0-0.0","0","0","59427","","null","","","null","61","","","","","","","","","","","","","","","",""
"","ITI","","html-keyboard-response","362","355902","0.0-1.0-558.0","0","0","59427","","93","","","68","61","","","","","","","","","","","","","","","d",""
"","S1","","html-keyboard-response","363","356182","0.0-1.0-560.0","0","0","59427","","null","","","null","62","","","","","","","","","","","","","","","",""
"","ISI","","html-keyboard-response","364","356685","0.0-1.0-561.0","0","0","59427","","18","","","68","62","d","","","","","","","","","","","","","","",""
"","S2","","html-keyboard-response","365","356805","0.0-1.0-562.0","0","0","59427","","117","","","68","62","","d","2","62","training","adjacent","DC","4","3","M.jpg","L.jpg","0","0","1","",""
"","feedback","","html-keyboard-response","366","357809","0.0-1.0-564.0-0.0","0","0","59427","","null","","","null","62","","","","","","","","","","","","","","","",""
"","ITI","","html-keyboard-response","367","358812","0.0-1.0-567.0","0","0","59427","","121","","","68","62","","","","","","","","","","","","","","","d",""
"","S1","","html-keyboard-response","368","359072","0.0-1.0-569.0","0","0","59427","","null","","","null","63","","","","","","","","","","","","","","","",""
"","ISI","","html-keyboard-response","369","359611","0.0-1.0-570.0","0","0","59427","","144","","","68","63","d","","","","","","","","","","","","","","",""
"","S2","","html-keyboard-response","370","359689","0.0-1.0-571.0","0","0","59427","","73","","","68","63","","d","2","63","training","adjacent","BA","2","1","Q.jpg","R.jpg","0","0","1","",""
"","feedback","","html-keyboard-response","371","360697","0.0-1.0-573.0-0.0","0","0","59427","","null","","","null","63","","","","","","","","","","","","","","","",""
"","ITI","","html-keyboard-response","372","361701","0.0-1.0-576.0","0","0","59427","","12","","","68","63","","","","","","","","","","","","","","","d",""
"","S1","","html-keyboard-response","373","361959","0.0-1.0-578.0","0","0","59427","","null","","","null","64","","","","","","","","","","","","","","","",""
"","ISI","","html-keyboard-response","374","362472","0.0-1.0-579.0","0","0","59427","","131","","","68","64","d","","","","","","","","","","","","","","",""
"","S2","","html-keyboard-response","375","362581","0.0-1.0-580.0","0","0","59427","","106","","","68","64","","d","2","64","training","adjacent","CD","3","4","L.jpg","M.jpg","0","1","0","",""
"","feedback","","html-keyboard-response","376","363621","0.0-1.0-582.0-0.0","0","0","59427","","null","","","null","64","","","","","","","","","","","","","","","",""
"","time_out","","html-keyboard-response","377","365636","0.0-1.0-584.0-0.0","0","0","59427","","null","","","null","64","","","","","","","","","","","","","","","",""
"","ITI","","html-keyboard-response","378","366650","0.0-1.0-585.0","0","0","59427","","90","","","68","64","","","","","","","","","","","","","","","d",""
"","S1","","html-keyboard-response","379","366916","0.0-1.0-587.0","0","0","59427","","null","","","null","65","","","","","","","","","","","","","","","",""
"","ISI","","html-keyboard-response","380","367460","0.0-1.0-588.0","0","0","59427","","0","","","68","65","d","","","","","","","","","","","","","","",""
"","S2","","html-keyboard-response","381","367612","0.0-1.0-589.0","0","0","59427","","147","","","68","65","","d","2","65","training","adjacent","FG","6","7","O.jpg","N.jpg","0","1","0","",""
"","feedback","","html-keyboard-response","382","368637","0.0-1.0-591.0-0.0","0","0","59427","","null","","","null","65","","","","","","","","","","","","","","","",""
"","time_out","","html-keyboard-response","383","370646","0.0-1.0-593.0-0.0","0","0","59427","","null","","","null","65","","","","","","","","","","","","","","","",""
"","ITI","","html-keyboard-response","384","371659","0.0-1.0-594.0","0","0","59427","","135","","","68","65","","","","","","","","","","","","","","","d",""
"","S1","","html-keyboard-response","385","371913","0.0-1.0-596.0","0","0","59427","","null","","","null","66","","","","","","","","","","","","","","","",""
"","ISI","","html-keyboard-response","386","372448","0.0-1.0-597.0","0","0","59427","","123","","","68","66","d","","","","","","","","","","","","","","",""
"","S2","","html-keyboard-response","387","372506","0.0-1.0-598.0","0","0","59427","","53","","","68","66","","d","2","66","training","adjacent","BC","2","3","Q.jpg","L.jpg","0","1","0","",""
"","feedback","","html-keyboard-response","388","373514","0.0-1.0-600.0-0.0","0","0","59427","","null","","","null","66","","","","","","","","","","","","","","","",""
"","time_out","","html-keyboard-response","389","375522","0.0-1.0-602.0-0.0","0","0","59427","","null","","","null","66","","","","","","","","","","","","","","","",""
"","ITI","","html-keyboard-response","390","376534","0.0-1.0-603.0","0","0","59427","","226","","","68","66","","","","","","","","","","","","","","","d",""
"","S1","","html-keyboard-response","391","376815","0.0-1.0-605.0","0","0","59427","","null","","","null","67","","","","","","","","","","","","","","","",""
"","ISI","","html-keyboard-response","392","377334","0.0-1.0-606.0","0","0","59427","","0","","","68","67","d","","","","","","","","","","","","","","",""
"","S2","","html-keyboard-response","393","377468","0.0-1.0-607.0","0","0","59427","","124","","","68","67","","d","2","67","training","adjacent","FE","6","5","O.jpg","P.jpg","0","0","1","",""
"","feedback","","html-keyboard-response","394","378473","0.0-1.0-609.0-0.0","0","0","59427","","null","","","null","67","","","","","","","","","","","","","","","",""
"","ITI","","html-keyboard-response","395","379478","0.0-1.0-612.0","0","0","59427","","108","","","68","67","","","","","","","","","","","","","","","d",""
"","S1","","html-keyboard-response","396","379858","0.0-1.0-614.0","0","0","59427","","null","","","null","68","","","","","","","","","","","","","","","",""
"","ISI","","html-keyboard-response","397","380365","0.0-1.0-615.0","0","0","59427","","168","","","68","68","d","","","","","","","","","","","","","","",""
"","S2","","html-keyboard-response","398","380502","0.0-1.0-616.0","0","0","59427","","133","","","68","68","","d","2","68","training","adjacent","GF","7","6","N.jpg","O.jpg","0","0","1","",""
"","feedback","","html-keyboard-response","399","381552","0.0-1.0-618.0-0.0","0","0","59427","","null","","","null","68","","","","","","","","","","","","","","","",""
"","ITI","","html-keyboard-response","400","382561","0.0-1.0-621.0","0","0","59427","","69","","","68","68","","","","","","","","","","","","","","","d",""
"","S1","","html-keyboard-response","401","382820","0.0-1.0-623.0","0","0","59427","","null","","","null","69","","","","","","","","","","","","","","","",""
"","ISI","","html-keyboard-response","402","383335","0.0-1.0-624.0","0","0","59427","","25","","","68","69","d","","","","","","","","","","","","","","",""
"","S2","","html-keyboard-response","403","383534","0.0-1.0-625.0","0","0","59427","","193","","","68","69","","d","2","69","training","adjacent","DC","4","3","M.jpg","L.jpg","0","0","1","",""
"","feedback","","html-keyboard-response","404","384548","0.0-1.0-627.0-0.0","0","0","59427","","null","","","null","69","","","","","","","","","","","","","","","",""
"","ITI","","html-keyboard-response","405","385551","0.0-1.0-630.0","0","0","59427","","197","","","68","69","","","","","","","","","","","","","","","d",""
"","S1","","html-keyboard-response","406","385806","0.0-1.0-632.0","0","0","59427","","null","","","null","70","","","","","","","","","","","","","","","",""
"","ISI","","html-keyboard-response","407","386311","0.0-1.0-633.0","0","0","59427","","212","","","68","70","d","","","","","","","","","","","","","","",""
"","S2","","html-keyboard-response","408","386402","0.0-1.0-634.0","0","0","59427","","88","","","68","70","","d","2","70","training","adjacent","FG","6","7","O.jpg","N.jpg","0","1","0","",""
"","feedback","","html-keyboard-response","409","387419","0.0-1.0-636.0-0.0","0","0","59427","","null","","","null","70","","","","","","","","","","","","","","","",""
"","time_out","","html-keyboard-response","410","389425","0.0-1.0-638.0-0.0","0","0","59427","","null","","","null","70","","","","","","","","","","","","","","","",""
"","ITI","","html-keyboard-response","411","390435","0.0-1.0-639.0","0","0","59427","","132","","","68","70","","","","","","","","","","","","","","","d",""
"","S1","","html-keyboard-response","412","390688","0.0-1.0-641.0","0","0","59427","","null","","","null","71","","","","","","","","","","","","","","","",""
"","ISI","","html-keyboard-response","413","391193","0.0-1.0-642.0","0","0","59427","","200","","","68","71","d","","","","","","","","","","","","","","",""
"","S2","","html-keyboard-response","414","391303","0.0-1.0-643.0","0","0","59427","","108","","","68","71","","d","2","71","training","adjacent","CB","3","2","L.jpg","Q.jpg","0","0","1","",""
"","feedback","","html-keyboard-response","415","392309","0.0-1.0-645.0-0.0","0","0","59427","","null","","","null","71","","","","","","","","","","","","","","","",""
"","ITI","","html-keyboard-response","416","393316","0.0-1.0-648.0","0","0","59427","","224","","","68","71","","","","","","","","","","","","","","","d",""
"","S1","","html-keyboard-response","417","393589","0.0-1.0-650.0","0","0","59427","","null","","","null","72","","","","","","","","","","","","","","","",""
"","ISI","","html-keyboard-response","418","394093","0.0-1.0-651.0","0","0","59427","","201","","","68","72","d","","","","","","","","","","","","","","",""
"","S2","","html-keyboard-response","419","394272","0.0-1.0-652.0","0","0","59427","","175","","","68","72","","d","2","72","training","adjacent","BC","2","3","Q.jpg","L.jpg","0","1","0","",""
"","feedback","","html-keyboard-response","420","395275","0.0-1.0-654.0-0.0","0","0","59427","","null","","","null","72","","","","","","","","","","","","","","","",""
"","time_out","","html-keyboard-response","421","397288","0.0-1.0-656.0-0.0","0","0","59427","","null","","","null","72","","","","","","","","","","","","","","","",""
"","ITI","","html-keyboard-response","422","398294","0.0-1.0-657.0","0","0","59427","","10","","","68","72","","","","","","","","","","","","","","","d",""
"","S1","","html-keyboard-response","423","398549","0.0-1.0-659.0","0","0","59427","","null","","","null","73","","","","","","","","","","","","","","","",""
"","ISI","","html-keyboard-response","424","399057","0.0-1.0-660.0","0","0","59427","","187","","","68","73","d","","","","","","","","","","","","","","",""
"","S2","","html-keyboard-response","425","399251","0.0-1.0-661.0","0","0","59427","","188","","","68","73","","d","2","73","training","adjacent","BC","2","3","Q.jpg","L.jpg","0","1","0","",""
"","feedback","","html-keyboard-response","426","400256","0.0-1.0-663.0-0.0","0","0","59427","","null","","","null","73","","","","","","","","","","","","","","","",""
"","time_out","","html-keyboard-response","427","402260","0.0-1.0-665.0-0.0","0","0","59427","","null","","","null","73","","","","","","","","","","","","","","","",""
"","ITI","","html-keyboard-response","428","403270","0.0-1.0-666.0","0","0","59427","","null","","","null","73","","","","","","","","","","","","","","","NaN",""
"","S1","","html-keyboard-response","429","403523","0.0-1.0-668.0","0","0","59427","","null","","","null","74","","","","","","","","","","","","","","","",""
"","ISI","","html-keyboard-response","430","404038","0.0-1.0-669.0","0","0","59427","","null","","","null","74","NaN","","","","","","","","","","","","","","",""
"","S2","","html-keyboard-response","431","404312","0.0-1.0-670.0","0","0","59427","","null","","","null","74","","NaN","","","","","","","","","","","","","",""
"","response","","html-keyboard-response","432","406075","0.0-1.0-671.0-0.0","0","0","59427","","null","","","null","74","","","2","74","training","adjacent","AB","1","2","R.jpg","Q.jpg","NaN","1","0","",""
"","too_slow_prompt","","html-keyboard-response","433","407121","0.0-1.0-673.0-0.0","1","0","59427","","null","","","null","","","","","","","","","","","","","","","","",""
"","time_out","","html-keyboard-response","434","409129","0.0-1.0-674.0-0.0","0","0","59427","","null","","","null","74","","","","","","","","","","","","","","","",""
"","ITI","","html-keyboard-response","435","410140","0.0-1.0-675.0","0","0","59427","","6","","","68","74","","","","","","","","","","","","","","","d",""
"","S1","","html-keyboard-response","436","410392","0.0-1.0-677.0","0","0","59427","","null","","","null","75","","","","","","","","","","","","","","","",""
"","ISI","","html-keyboard-response","437","410895","0.0-1.0-678.0","0","0","59427","","117","","","68","75","d","","","","","","","","","","","","","","",""
"","S2","","html-keyboard-response","438","410969","0.0-1.0-679.0","0","0","59427","","71","","","75","75","","k","2","75","training","adjacent","AB","1","2","R.jpg","Q.jpg","1","1","1","",""
"","feedback","","html-keyboard-response","439","411975","0.0-1.0-681.0-0.0","0","0","59427","","null","","","null","75","","","","","","","","","","","","","","","",""
"","ITI","","html-keyboard-response","440","412985","0.0-1.0-684.0","0","0","59427","","145","","","68","75","","","","","","","","","","","","","","","d",""
"","S1","","html-keyboard-response","441","413239","0.0-1.0-686.0","0","0","59427","","null","","","null","76","","","","","","","","","","","","","","","",""
"","ISI","","html-keyboard-response","442","413756","0.0-1.0-687.0","0","0","59427","","155","","","68","76","d","","","","","","","","","","","","","","",""
"","S2","","html-keyboard-response","443","413895","0.0-1.0-688.0","0","0","59427","","128","","","68","76","","d","2","76","training","adjacent","DE","4","5","M.jpg","P.jpg","0","1","0","",""
"","feedback","","html-keyboard-response","444","414902","0.0-1.0-690.0-0.0","0","0","59427","","null","","","null","76","","","","","","","","","","","","","","","",""
"","time_out","","html-keyboard-response","445","416912","0.0-1.0-692.0-0.0","0","0","59427","","null","","","null","76","","","","","","","","","","","","","","","",""
"","ITI","","html-keyboard-response","446","417917","0.0-1.0-693.0","0","0","59427","","124","","","68","76","","","","","","","","","","","","","","","d",""
"","S1","","html-keyboard-response","447","418171","0.0-1.0-695.0","0","0","59427","","null","","","null","77","","","","","","","","","","","","","","","",""
"","ISI","","html-keyboard-response","448","418677","0.0-1.0-696.0","0","0","59427","","173","","","68","77","d","","","","","","","","","","","","","","",""
"","S2","","html-keyboard-response","449","418888","0.0-1.0-697.0","0","0","59427","","204","","","75","77","","k","2","77","training","adjacent","DC","4","3","M.jpg","L.jpg","1","0","0","",""
"","feedback","","html-keyboard-response","450","419893","0.0-1.0-699.0-0.0","0","0","59427","","null","","","null","77","","","","","","","","","","","","","","","",""
"","time_out","","html-keyboard-response","451","421945","0.0-1.0-701.0-0.0","0","0","59427","","null","","","null","77","","","","","","","","","","","","","","","",""
"","ITI","","html-keyboard-response","452","422949","0.0-1.0-702.0","0","0","59427","","38","","","68","77","","","","","","","","","","","","","","","d",""
"","S1","","html-keyboard-response","453","423210","0.0-1.0-704.0","0","0","59427","","null","","","null","78","","","","","","","","","","","","","","","",""
"","ISI","","html-keyboard-response","454","423750","0.0-1.0-705.0","0","0","59427","","26","","","68","78","d","","","","","","","","","","","","","","",""
"","S2","","html-keyboard-response","455","423763","0.0-1.0-706.0","0","0","59427","","8","","","75","78","","k","2","78","training","adjacent","CD","3","4","L.jpg","M.jpg","1","1","1","",""
"","feedback","","html-keyboard-response","456","424767","0.0-1.0-708.0-0.0","0","0","59427","","null","","","null","78","","","","","","","","","","","","","","","",""
"","ITI","","html-keyboard-response","457","425770","0.0-1.0-711.0","0","0","59427","","85","","","68","78","","","","","","","","","","","","","","","d",""
"","S1","","html-keyboard-response","458","426054","0.0-1.0-713.0","0","0","59427","","null","","","null","79","","","","","","","","","","","","","","","",""
"","ISI","","html-keyboard-response","459","426564","0.0-1.0-714.0","0","0","59427","","101","","","68","79","d","","","","","","","","","","","","","","",""
"","S2","","html-keyboard-response","460","426605","0.0-1.0-715.0","0","0","59427","","37","","","68","79","","d","2","79","training","adjacent","BA","2","1","Q.jpg","R.jpg","0","0","1","",""
"","feedback","","html-keyboard-response","461","427615","0.0-1.0-717.0-0.0","0","0","59427","","null","","","null","79","","","","","","","","","","","","","","","",""
"","ITI","","html-keyboard-response","462","428636","0.0-1.0-720.0","0","0","59427","","60","","","68","79","","","","","","","","","","","","","","","d",""
"","S1","","html-keyboard-response","463","428890","0.0-1.0-722.0","0","0","59427","","null","","","null","80","","","","","","","","","","","","","","","",""
"","ISI","","html-keyboard-response","464","429394","0.0-1.0-723.0","0","0","59427","","1","","","75","80","k","","","","","","","","","","","","","","",""
"","S2","","html-keyboard-response","465","429566","0.0-1.0-724.0","0","0","59427","","168","","","68","80","","d","2","80","training","adjacent","ED","5","4","P.jpg","M.jpg","0","0","1","",""
"","feedback","","html-keyboard-response","466","430582","0.0-1.0-726.0-0.0","0","0","59427","","null","","","null","80","","","","","","","","","","","","","","","",""
"","ITI","","html-keyboard-response","467","431587","0.0-1.0-729.0","0","0","59427","","8","","","68","80","","","","","","","","","","","","","","","d",""
"","S1","","html-keyboard-response","468","431843","0.0-1.0-731.0","0","0","59427","","null","","","null","81","","","","","","","","","","","","","","","",""
"","ISI","","html-keyboard-response","469","432348","0.0-1.0-732.0","0","0","59427","","131","","","75","81","k","","","","","","","","","","","","","","",""
"","S2","","html-keyboard-response","470","432441","0.0-1.0-733.0","0","0","59427","","89","","","68","81","","d","2","81","training","adjacent","CB","3","2","L.jpg","Q.jpg","0","0","1","",""
"","feedback","","html-keyboard-response","471","433461","0.0-1.0-735.0-0.0","0","0","59427","","null","","","null","81","","","","","","","","","","","","","","","",""
"","ITI","","html-keyboard-response","472","434466","0.0-1.0-738.0","0","0","59427","","null","","","null","81","","","","","","","","","","","","","","","NaN",""
"","S1","","html-keyboard-response","473","434721","0.0-1.0-740.0","0","0","59427","","null","","","null","82","","","","","","","","","","","","","","","",""
"","ISI","","html-keyboard-response","474","435224","0.0-1.0-741.0","0","0","59427","","null","","","null","82","NaN","","","","","","","","","","","","","","",""
"","S2","","html-keyboard-response","475","435477","0.0-1.0-742.0","0","0","59427","","null","","","null","82","","NaN","","","","","","","","","","","","","",""
"","response","","html-keyboard-response","476","437239","0.0-1.0-743.0-0.0","0","0","59427","","null","","","null","82","","","2","82","training","adjacent","EF","5","6","P.jpg","O.jpg","NaN","1","0","",""
"","too_slow_prompt","","html-keyboard-response","477","438245","0.0-1.0-745.0-0.0","1","0","59427","","null","","","null","","","","","","","","","","","","","","","","",""
"","time_out","","html-keyboard-response","478","440254","0.0-1.0-746.0-0.0","0","0","59427","","null","","","null","82","","","","","","","","","","","","","","","",""
"","ITI","","html-keyboard-response","479","441258","0.0-1.0-747.0","0","0","59427","","null","","","null","82","","","","","","","","","","","","","","","NaN",""
"","S1","","html-keyboard-response","480","441543","0.0-1.0-749.0","0","0","59427","","null","","","null","83","","","","","","","","","","","","","","","",""
"","ISI","","html-keyboard-response","481","442054","0.0-1.0-750.0","0","0","59427","","null","","","null","83","NaN","","","","","","","","","","","","","","",""
"","S2","","html-keyboard-response","482","442331","0.0-1.0-751.0","0","0","59427","","null","","","null","83","","NaN","","","","","","","","","","","","","",""
"","response","","html-keyboard-response","483","444091","0.0-1.0-752.0-0.0","0","0","59427","","null","","","null","83","","","2","83","training","adjacent","EF","5","6","P.jpg","O.jpg","NaN","1","0","",""
"","too_slow_prompt","","html-keyboard-response","484","445102","0.0-1.0-754.0-0.0","1","0","59427","","null","","","null","","","","","","","","","","","","","","","","",""
"","time_out","","html-keyboard-response","485","447115","0.0-1.0-755.0-0.0","0","0","59427","","null","","","null","83","","","","","","","","","","","","","","","",""
"","ITI","","html-keyboard-response","486","448124","0.0-1.0-756.0","0","0","59427","","null","","","null","83","","","","","","","","","","","","","","","NaN",""
"","S1","","html-keyboard-response","487","448386","0.0-1.0-758.0","0","0","59427","","null","","","null","84","","","","","","","","","","","","","","","",""
"","ISI","","html-keyboard-response","488","448897","0.0-1.0-759.0","0","0","59427","","null","","","null","84","NaN","","","","","","","","","","","","","","",""
"","S2","","html-keyboard-response","489","449159","0.0-1.0-760.0","0","0","59427","","null","","","null","84","","NaN","","","","","","","","","","","","","",""
"","response","","html-keyboard-response","490","450917","0.0-1.0-761.0-0.0","0","0","59427","","null","","","null","84","","","2","84","training","adjacent","BC","2","3","Q.jpg","L.jpg","NaN","1","0","",""
"","too_slow_prompt","","html-keyboard-response","491","451920","0.0-1.0-763.0-0.0","1","0","59427","","null","","","null","","","","","","","","","","","","","","","","",""
"","time_out","","html-keyboard-response","492","453929","0.0-1.0-764.0-0.0","0","0","59427","","null","","","null","84","","","","","","","","","","","","","","","",""
"","ITI","","html-keyboard-response","493","454937","0.0-1.0-765.0","0","0","59427","","null","","","null","84","","","","","","","","","","","","","","","NaN",""
"","S1","","html-keyboard-response","494","455198","0.0-1.0-767.0","0","0","59427","","null","","","null","85","","","","","","","","","","","","","","","",""
"","ISI","","html-keyboard-response","495","463382","0.0-1.0-768.0","0","0","59427","","null","","","null","85","NaN","","","","","","","","","","","","","","",""
"","S2","","html-keyboard-response","496","463634","0.0-1.0-769.0","0","0","59427","","null","","","null","85","","NaN","","","","","","","","","","","","","",""
"","response","","html-keyboard-response","497","465388","0.0-1.0-770.0-0.0","0","0","59427","","null","","","null","85","","","2","85","training","adjacent","EF","5","6","P.jpg","O.jpg","NaN","1","0","",""
"","too_slow_prompt","","html-keyboard-response","498","466390","0.0-1.0-772.0-0.0","1","0","59427","","null","","","null","","","","","","","","","","","","","","","","",""
"","time_out","","html-keyboard-response","499","468393","0.0-1.0-773.0-0.0","0","0","59427","","null","","","null","85","","","","","","","","","","","","","","","",""
"","ITI","","html-keyboard-response","500","469397","0.0-1.0-774.0","0","0","59427","","165","","","68","85","","","","","","","","","","","","","","","d",""
"","S1","","html-keyboard-response","501","469651","0.0-1.0-776.0","0","0","59427","","null","","","null","86","","","","","","","","","","","","","","","",""
"","ISI","","html-keyboard-response","502","470155","0.0-1.0-777.0","0","0","59427","","38","","","75","86","k","","","","","","","","","","","","","","",""
"","S2","","html-keyboard-response","503","470366","0.0-1.0-778.0","0","0","59427","","207","","","68","86","","d","2","86","training","adjacent","AB","1","2","R.jpg","Q.jpg","0","1","0","",""
"","feedback","","html-keyboard-response","504","471368","0.0-1.0-780.0-0.0","0","0","59427","","null","","","null","86","","","","","","","","","","","","","","","",""
"","time_out","","html-keyboard-response","505","473372","0.0-1.0-782.0-0.0","0","0","59427","","null","","","null","86","","","","","","","","","","","","","","","",""
"","ITI","","html-keyboard-response","506","474373","0.0-1.0-783.0","0","0","59427","","135","","","75","86","","","","","","","","","","","","","","","k",""
"","S1","","html-keyboard-response","507","474626","0.0-1.0-785.0","0","0","59427","","null","","","null","87","","","","","","","","","","","","","","","",""
"","ISI","","html-keyboard-response","508","475131","0.0-1.0-786.0","0","0","59427","","117","","","68","87","d","","","","","","","","","","","","","","",""
"","S2","","html-keyboard-response","509","475261","0.0-1.0-787.0","0","0","59427","","126","","","75","87","","k","2","87","training","adjacent","CD","3","4","L.jpg","M.jpg","1","1","1","",""
"","feedback","","html-keyboard-response","510","476265","0.0-1.0-789.0-0.0","0","0","59427","","null","","","null","87","","","","","","","","","","","","","","","",""
"","ITI","","html-keyboard-response","511","477268","0.0-1.0-792.0","0","0","59427","","29","","","68","87","","","","","","","","","","","","","","","d",""
"","S1","","html-keyboard-response","512","477526","0.0-1.0-794.0","0","0","59427","","null","","","null","88","","","","","","","","","","","","","","","",""
"","ISI","","html-keyboard-response","513","478041","0.0-1.0-795.0","0","0","59427","","66","","","68","88","d","","","","","","","","","","","","","","",""
"","S2","","html-keyboard-response","514","478159","0.0-1.0-796.0","0","0","59427","","111","","","75","88","","k","2","88","training","adjacent","FG","6","7","O.jpg","N.jpg","1","1","1","",""
"","feedback","","html-keyboard-response","515","479167","0.0-1.0-798.0-0.0","0","0","59427","","null","","","null","88","","","","","","","","","","","","","","","",""
"","ITI","","html-keyboard-response","516","480179","0.0-1.0-801.0","0","0","59427","","125","","","68","88","","","","","","","","","","","","","","","d",""
"","S1","","html-keyboard-response","517","480443","0.0-1.0-803.0","0","0","59427","","null","","","null","89","","","","","","","","","","","","","","","",""
"","ISI","","html-keyboard-response","518","480957","0.0-1.0-804.0","0","0","59427","","177","","","68","89","d","","","","","","","","","","","","","","",""
"","S2","","html-keyboard-response","519","481181","0.0-1.0-805.0","0","0","59427","","220","","","68","89","","d","2","89","training","adjacent","DE","4","5","M.jpg","P.jpg","0","1","0","",""
"","feedback","","html-keyboard-response","520","482198","0.0-1.0-807.0-0.0","0","0","59427","","null","","","null","89","","","","","","","","","","","","","","","",""
"","time_out","","html-keyboard-response","521","484212","0.0-1.0-809.0-0.0","0","0","59427","","null","","","null","89","","","","","","","","","","","","","","","",""
"","ITI","","html-keyboard-response","522","485229","0.0-1.0-810.0","0","0","59427","","29","","","75","89","","","","","","","","","","","","","","","k",""
"","S1","","html-keyboard-response","523","485499","0.0-1.0-812.0","0","0","59427","","null","","","null","90","","","","","","","","","","","","","","","",""
"","ISI","","html-keyboard-response","524","486011","0.0-1.0-813.0","0","0","59427","","242","","","68","90","d","","","","","","","","","","","","","","",""
"","S2","","html-keyboard-response","525","486034","0.0-1.0-814.0","0","0","59427","","19","","","68","90","","d","2","90","training","adjacent","DE","4","5","M.jpg","P.jpg","0","1","0","",""
"","feedback","","html-keyboard-response","526","487041","0.0-1.0-816.0-0.0","0","0","59427","","null","","","null","90","","","","","","","","","","","","","","","",""
"","time_out","","html-keyboard-response","527","489045","0.0-1.0-818.0-0.0","0","0","59427","","null","","","null","90","","","","","","","","","","","","","","","",""
"","ITI","","html-keyboard-response","528","490056","0.0-1.0-819.0","0","0","59427","","201","","","68","90","","","","","","","","","","","","","","","d",""
"","S1","","html-keyboard-response","529","490317","0.0-1.0-821.0","0","0","59427","","null","","","null","91","","","","","","","","","","","","","","","",""
"","ISI","","html-keyboard-response","530","490832","0.0-1.0-822.0","0","0","59427","","222","","","75","91","k","","","","","","","","","","","","","","",""
"","S2","","html-keyboard-response","531","491008","0.0-1.0-823.0","0","0","59427","","170","","","68","91","","d","2","91","training","adjacent","GF","7","6","N.jpg","O.jpg","0","0","1","",""
"","feedback","","html-keyboard-response","532","492084","0.0-1.0-825.0-0.0","0","0","59427","","null","","","null","91","","","","","","","","","","","","","","","",""
"","ITI","","html-keyboard-response","533","493106","0.0-1.0-828.0","0","0","59427","","34","","","75","91","","","","","","","","","","","","","","","k",""
"","S1","","html-keyboard-response","534","493365","0.0-1.0-830.0","0","0","59427","","null","","","null","92","","","","","","","","","","","","","","","",""
"","ISI","","html-keyboard-response","535","493902","0.0-1.0-831.0","0","0","59427","","45","","","68","92","d","","","","","","","","","","","","","","",""
"","S2","","html-keyboard-response","536","493993","0.0-1.0-832.0","0","0","59427","","84","","","68","92","","d","2","92","training","adjacent","FE","6","5","O.jpg","P.jpg","0","0","1","",""
"","feedback","","html-keyboard-response","537","495000","0.0-1.0-834.0-0.0","0","0","59427","","null","","","null","92","","","","","","","","","","","","","","","",""
"","ITI","","html-keyboard-response","538","496009","0.0-1.0-837.0","0","0","59427","","132","","","68","92","","","","","","","","","","","","","","","d",""
"","S1","","html-keyboard-response","539","496285","0.0-1.0-839.0","0","0","59427","","null","","","null","93","","","","","","","","","","","","","","","",""
"","ISI","","html-keyboard-response","540","496801","0.0-1.0-840.0","0","0","59427","","122","","","68","93","d","","","","","","","","","","","","","","",""
"","S2","","html-keyboard-response","541","497060","0.0-1.0-841.0","0","0","59427","","null","","","null","93","","NaN","","","","","","","","","","","","","",""
"","response","","html-keyboard-response","542","497107","0.0-1.0-842.0-0.0","0","0","59427","","38","","","75","93","","","2","93","training","adjacent","ED","5","4","P.jpg","M.jpg","1","0","0","",""
"","feedback","","html-keyboard-response","543","498115","0.0-1.0-843.0-0.0","0","0","59427","","null","","","null","93","","","","","","","","","","","","","","","",""
"","time_out","","html-keyboard-response","544","500122","0.0-1.0-845.0-0.0","0","0","59427","","null","","","null","93","","","","","","","","","","","","","","","",""
"","ITI","","html-keyboard-response","545","501142","0.0-1.0-846.0","0","0","59427","","234","","","68","93","","","","","","","","","","","","","","","d",""
"","S1","","html-keyboard-response","546","501397","0.0-1.0-848.0","0","0","59427","","null","","","null","94","","","","","","","","","","","","","","","",""
"","ISI","","html-keyboard-response","547","501908","0.0-1.0-849.0","0","0","59427","","189","","","75","94","k","","","","","","","","","","","","","","",""
"","S2","","html-keyboard-response","548","501938","0.0-1.0-850.0","0","0","59427","","26","","","75","94","","k","2","94","training","adjacent","FE","6","5","O.jpg","P.jpg","1","0","0","",""
"","feedback","","html-keyboard-response","549","502947","0.0-1.0-852.0-0.0","0","0","59427","","null","","","null","94","","","","","","","","","","","","","","","",""
"","time_out","","html-keyboard-response","550","504951","0.0-1.0-854.0-0.0","0","0","59427","","null","","","null","94","","","","","","","","","","","","","","","",""
"","ITI","","html-keyboard-response","551","505957","0.0-1.0-855.0","0","0","59427","","239","","","68","94","","","","","","","","","","","","","","","d",""
"","S1","","html-keyboard-response","552","506213","0.0-1.0-857.0","0","0","59427","","null","","","null","95","","","","","","","","","","","","","","","",""
"","ISI","","html-keyboard-response","553","506715","0.0-1.0-858.0","0","0","59427","","142","","","68","95","d","","","","","","","","","","","","","","",""
"","S2","","html-keyboard-response","554","506983","0.0-1.0-859.0","0","0","59427","","null","","","null","95","","NaN","","","","","","","","","","","","","",""
"","response","","html-keyboard-response","555","507058","0.0-1.0-860.0-0.0","0","0","59427","","71","","","68","95","","","2","95","training","adjacent","AB","1","2","R.jpg","Q.jpg","0","1","0","",""
"","feedback","","html-keyboard-response","556","508066","0.0-1.0-861.0-0.0","0","0","59427","","null","","","null","95","","","","","","","","","","","","","","","",""
"","time_out","","html-keyboard-response","557","510091","0.0-1.0-863.0-0.0","0","0","59427","","null","","","null","95","","","","","","","","","","","","","","","",""
"","ITI","","html-keyboard-response","558","511117","0.0-1.0-864.0","0","0","59427","","63","","","75","95","","","","","","","","","","","","","","","k",""
"","block_over","","html-keyboard-response","559","513912","0.0-1.0-865.0-0.0","0","0","59427","","2785","","","32","95","","","","","","","","","","","","","","","",""
"","S1","","html-keyboard-response","560","514169","0.0-1.0-866.0","0","0","59427","","null","","","null","96","","","","","","","","","","","","","","","",""
"","ISI","","html-keyboard-response","561","514740","0.0-1.0-867.0","0","0","59427","","104","","","68","96","d","","","","","","","","","","","","","","",""
"","S2","","html-keyboard-response","562","514999","0.0-1.0-868.0","0","0","59427","","null","","","null","96","","NaN","","","","","","","","","","","","","",""
"","response","","html-keyboard-response","563","515668","0.0-1.0-869.0-0.0","0","0","59427","","664","","","68","96","","","3","96","training","adjacent","EF","5","6","P.jpg","O.jpg","0","1","0","",""
"","feedback","","html-keyboard-response","564","516680","0.0-1.0-870.0-0.0","0","0","59427","","null","","","null","96","","","","","","","","","","","","","","","",""
"","time_out","","html-keyboard-response","565","518695","0.0-1.0-872.0-0.0","0","0","59427","","null","","","null","96","","","","","","","","","","","","","","","",""
"","ITI","","html-keyboard-response","566","519713","0.0-1.0-873.0","0","0","59427","","11","","","68","96","","","","","","","","","","","","","","","d",""
"","S1","","html-keyboard-response","567","519982","0.0-1.0-875.0","0","0","59427","","null","","","null","97","","","","","","","","","","","","","","","",""
"","ISI","","html-keyboard-response","568","520490","0.0-1.0-876.0","0","0","59427","","169","","","68","97","d","","","","","","","","","","","","","","",""
"","S2","","html-keyboard-response","569","520553","0.0-1.0-877.0","0","0","59427","","59","","","68","97","","d","3","97","training","adjacent","EF","5","6","P.jpg","O.jpg","0","1","0","",""
"","feedback","","html-keyboard-response","570","521579","0.0-1.0-879.0-0.0","0","0","59427","","null","","","null","97","","","","","","","","","","","","","","","",""
"","time_out","","html-keyboard-response","571","523590","0.0-1.0-881.0-0.0","0","0","59427","","null","","","null","97","","","","","","","","","","","","","","","",""
"","ITI","","html-keyboard-response","572","524594","0.0-1.0-882.0","0","0","59427","","117","","","68","97","","","","","","","","","","","","","","","d",""
"","S1","","html-keyboard-response","573","524848","0.0-1.0-884.0","0","0","59427","","null","","","null","98","","","","","","","","","","","","","","","",""
"","ISI","","html-keyboard-response","574","525358","0.0-1.0-885.0","0","0","59427","","23","","","75","98","k","","","","","","","","","","","","","","",""
"","S2","","html-keyboard-response","575","525386","0.0-1.0-886.0","0","0","59427","","24","","","75","98","","k","3","98","training","adjacent","CB","3","2","L.jpg","Q.jpg","1","0","0","",""
"","feedback","","html-keyboard-response","576","526395","0.0-1.0-888.0-0.0","0","0","59427","","null","","","null","98","","","","","","","","","","","","","","","",""
"","time_out","","html-keyboard-response","577","528407","0.0-1.0-890.0-0.0","0","0","59427","","null","","","null","98","","","","","","","","","","","","","","","",""
"","ITI","","html-keyboard-response","578","529418","0.0-1.0-891.0","0","0","59427","","161","","","75","98","","","","","","","","","","","","","","","k",""
"","S1","","html-keyboard-response","579","529683","0.0-1.0-893.0","0","0","59427","","null","","","null","99","","","","","","","","","","","","","","","",""
"","ISI","","html-keyboard-response","580","530206","0.0-1.0-894.0","0","0","59427","","58","","","68","99","d","","","","","","","","","","","","","","",""
"","S2","","html-keyboard-response","581","530232","0.0-1.0-895.0","0","0","59427","","22","","","68","99","","d","3","99","training","adjacent","ED","5","4","P.jpg","M.jpg","0","0","1","",""
"","feedback","","html-keyboard-response","582","531238","0.0-1.0-897.0-0.0","0","0","59427","","null","","","null","99","","","","","","","","","","","","","","","",""
"","ITI","","html-keyboard-response","583","532244","0.0-1.0-900.0","0","0","59427","","179","","","75","99","","","","","","","","","","","","","","","k",""
"","S1","","html-keyboard-response","584","532512","0.0-1.0-902.0","0","0","59427","","null","","","null","100","","","","","","","","","","","","","","","",""
"","ISI","","html-keyboard-response","585","533017","0.0-1.0-903.0","0","0","59427","","17","","","68","100","d","","","","","","","","","","","","","","",""
"","S2","","html-keyboard-response","586","533091","0.0-1.0-904.0","0","0","59427","","65","","","68","100","","d","3","100","training","adjacent","GF","7","6","N.jpg","O.jpg","0","0","1","",""
