"success","ttype","start_time","trial_type","trial_index","time_elapsed","internal_node_id","warning","missed_checkup","PID","view_history","rt","responses","repeat_instructions","key_press","index","keypress_isi","keypress_S2","block","trial_num","phase","group_type","pair_type","S1_stim","S2_stim","S1_img","S2_img","S1_chosen","S1_higher","accuracy","keypress_iti","total_bonus_tally"
"true","full_screen","d08042022hr1709","fullscreen","0","7900","0.0-0.0","0","0","25689","","","","","","","","","","","","","","","","","","","","","",""
"","instructions","","instructions","1","23907","0.0-1.0-0.0-0.0","0","0","25689","[{""page_index"":0,""viewing_time"":3907},{""page_index"":1,""viewing_time"":4830},{""page_index"":2,""viewing_time"":5990},{""page_index"":3,""viewing_time"":1266}]","15996","","","","","","","","","","","","","","","","","","","",""
"","comprehension_check","","survey-multi-choice","2","54754","0.0-1.0-0.0-1.0","0","0","25689","","30818","{""Q0"":""True"",""Q1"":""D"",""Q2"":""Only when the screen 'MAKE A CHOICE' is shown"",""Q3"":""Green mark"",""Q4"":""either D or K""}","1","","","","","","","","","","","","","","","","","",""
"","missed_instruction_checkup","","html-keyboard-response","3","56229","0.0-1.0-0.0-2.0-0.0","0","1","25689","","1438","","","32","","","","","","","","","","","","","","","","",""
"","instructions","","instructions","4","74182","0.0-1.0-0.1-0.1","0","0","25689","[{""page_index"":0,""viewing_time"":2966},{""page_index"":1,""viewing_time"":10976},{""page_index"":2,""viewing_time"":3330},{""page_index"":3,""viewing_time"":664}]","17937","","","","","","","","","","","","","","","","","","","",""
"","comprehension_check","","survey-multi-choice","5","88896","0.0-1.0-0.1-1.1","0","0","25689","","14685","{""Q0"":""True"",""Q1"":""D"",""Q2"":""Once the second image appears and while the screen 'MAKE A CHOICE' is shown"",""Q3"":""Green mark"",""Q4"":""either D or K""}","1","","","","","","","","","","","","","","","","","",""
"","missed_instruction_checkup","","html-keyboard-response","6","90239","0.0-1.0-0.1-2.1-0.1","0","1","25689","","1309","","","32","","","","","","","","","","","","","","","","",""
"","instructions","","instructions","7","120952","0.0-1.0-0.2-0.2","0","0","25689","[{""page_index"":0,""viewing_time"":2683},{""page_index"":1,""viewing_time"":20616},{""page_index"":2,""viewing_time"":6524},{""page_index"":3,""viewing_time"":882}]","30706","","","","","","","","","","","","","","","","","","","",""
"","comprehension_check","","survey-multi-choice","8","189425","0.0-1.0-0.2-1.2","0","0","25689","","68431","{""Q0"":""True"",""Q1"":""D"",""Q2"":""Once the second image appears and while the screen 'MAKE A CHOICE' is shown"",""Q3"":""Green mark"",""Q4"":""Use a mouse""}","1","","","","","","","","","","","","","","","","","",""
"","missed_instruction_checkup","","html-keyboard-response","9","190688","0.0-1.0-0.2-2.2-0.2","0","1","25689","","1206","","","32","","","","","","","","","","","","","","","","",""
"","instructions","","instructions","10","201965","0.0-1.0-0.3-0.3","0","0","25689","[{""page_index"":0,""viewing_time"":1403},{""page_index"":1,""viewing_time"":8347},{""page_index"":2,""viewing_time"":894},{""page_index"":3,""viewing_time"":623}]","11269","","","","","","","","","","","","","","","","","","","",""
"","comprehension_check","","survey-multi-choice","11","211049","0.0-1.0-0.3-1.3","0","0","25689","","9054","{""Q0"":""True"",""Q1"":""K"",""Q2"":""Once the second image appears and while the screen 'MAKE A CHOICE' is shown"",""Q3"":""Green mark"",""Q4"":""either D or K""}","0","","","","","","","","","","","","","","","","","",""
"","start_exp","","html-keyboard-response","12","212305","0.0-1.0-1.0","0","0","25689","","1226","","","32","","","","","","","","","","","","","","","","",""
"","S1","","html-keyboard-response","13","212566","0.0-1.0-2.0","0","0","25689","","null","","","null","0","","","","","","","","","","","","","","","",""
"","ISI","","html-keyboard-response","14","214575","0.0-1.0-3.0","0","0","25689","","1311","","","75","0","k","","","","","","","","","","","","","","",""
"","S2","","html-keyboard-response","15","214838","0.0-1.0-4.0","0","0","25689","","null","","","null","0","","NaN","","","","","","","","","","","","","",""
"","response","","html-keyboard-response","16","216268","0.0-1.0-5.0-0.0","0","0","25689","","1415","","","75","0","","","1","0","training","adjacent","GF","7","6","P.jpg","Q.jpg","1","0","0","",""
"","feedback","","html-keyboard-response","17","217281","0.0-1.0-6.0-0.0","0","0","25689","","null","","","null","0","","","","","","","","","","","","","","","",""
"","time_out","","html-keyboard-response","18","219301","0.0-1.0-8.0-0.0","0","0","25689","","null","","","null","0","","","","","","","","","","","","","","","",""
"","ITI","","html-keyboard-response","19","220309","0.0-1.0-9.0","0","0","25689","","null","","","null","0","","","","","","","","","","","","","","","NaN",""
"","S1","","html-keyboard-response","20","220590","0.0-1.0-11.0","0","0","25689","","null","","","null","1","","","","","","","","","","","","","","","",""
"","ISI","","html-keyboard-response","21","222598","0.0-1.0-12.0","0","0","25689","","null","","","null","1","NaN","","","","","","","","","","","","","","",""
"","S2","","html-keyboard-response","22","222858","0.0-1.0-13.0","0","0","25689","","null","","","null","1","","NaN","","","","","","","","","","","","","",""
"","response","","html-keyboard-response","23","223193","0.0-1.0-14.0-0.0","0","0","25689","","326","","","68","1","","","1","1","training","adjacent","AB","1","2","R.jpg","O.jpg","0","1","0","",""
"","feedback","","html-keyboard-response","24","224214","0.0-1.0-15.0-0.0","0","0","25689","","null","","","null","1","","","","","","","","","","","","","","","",""
"","time_out","","html-keyboard-response","25","226222","0.0-1.0-17.0-0.0","0","0","25689","","null","","","null","1","","","","","","","","","","","","","","","",""
"","ITI","","html-keyboard-response","26","227233","0.0-1.0-18.0","0","0","25689","","null","","","null","1","","","","","","","","","","","","","","","NaN",""
"","S1","","html-keyboard-response","27","227491","0.0-1.0-20.0","0","0","25689","","null","","","null","2","","","","","","","","","","","","","","","",""
"","ISI","","html-keyboard-response","28","229499","0.0-1.0-21.0","0","0","25689","","null","","","null","2","NaN","","","","","","","","","","","","","","",""
"","S2","","html-keyboard-response","29","229758","0.0-1.0-22.0","0","0","25689","","null","","","null","2","","NaN","","","","","","","","","","","","","",""
"","response","","html-keyboard-response","30","230254","0.0-1.0-23.0-0.0","0","0","25689","","488","","","68","2","","","1","2","training","adjacent","AB","1","2","R.jpg","O.jpg","0","1","0","",""
"","feedback","","html-keyboard-response","31","231270","0.0-1.0-24.0-0.0","0","0","25689","","null","","","null","2","","","","","","","","","","","","","","","",""
"","time_out","","html-keyboard-response","32","233281","0.0-1.0-26.0-0.0","0","0","25689","","null","","","null","2","","","","","","","","","","","","","","","",""
"","ITI","","html-keyboard-response","33","234308","0.0-1.0-27.0","0","0","25689","","null","","","null","2","","","","","","","","","","","","","","","NaN",""
"","S1","","html-keyboard-response","34","234566","0.0-1.0-29.0","0","0","25689","","null","","","null","3","","","","","","","","","","","","","","","",""
"","ISI","","html-keyboard-response","35","236603","0.0-1.0-30.0","0","0","25689","","null","","","null","3","NaN","","","","","","","","","","","","","","",""
"","S2","","html-keyboard-response","36","236861","0.0-1.0-31.0","0","0","25689","","null","","","null","3","","NaN","","","","","","","","","","","","","",""
"","response","","html-keyboard-response","37","237179","0.0-1.0-32.0-0.0","0","0","25689","","306","","","68","3","","","1","3","training","adjacent","BC","2","3","O.jpg","L.jpg","0","1","0","",""
"","feedback","","html-keyboard-response","38","238188","0.0-1.0-33.0-0.0","0","0","25689","","null","","","null","3","","","","","","","","","","","","","","","",""
"","time_out","","html-keyboard-response","39","240196","0.0-1.0-35.0-0.0","0","0","25689","","null","","","null","3","","","","","","","","","","","","","","","",""
"","ITI","","html-keyboard-response","40","241204","0.0-1.0-36.0","0","0","25689","","null","","","null","3","","","","","","","","","","","","","","","NaN",""
"","S1","","html-keyboard-response","41","241462","0.0-1.0-38.0","0","0","25689","","null","","","null","4","","","","","","","","","","","","","","","",""
"","ISI","","html-keyboard-response","42","243500","0.0-1.0-39.0","0","0","25689","","null","","","null","4","NaN","","","","","","","","","","","","","","",""
"","S2","","html-keyboard-response","43","243777","0.0-1.0-40.0","0","0","25689","","null","","","null","4","","NaN","","","","","","","","","","","","","",""
"","response","","html-keyboard-response","44","244174","0.0-1.0-41.0-0.0","0","0","25689","","381","","","75","4","","","1","4","training","adjacent","CB","3","2","L.jpg","O.jpg","1","0","0","",""
"","feedback","","html-keyboard-response","45","245213","0.0-1.0-42.0-0.0","0","0","25689","","null","","","null","4","","","","","","","","","","","","","","","",""
"","time_out","","html-keyboard-response","46","247230","0.0-1.0-44.0-0.0","0","0","25689","","null","","","null","4","","","","","","","","","","","","","","","",""
"","ITI","","html-keyboard-response","47","248237","0.0-1.0-45.0","0","0","25689","","null","","","null","4","","","","","","","","","","","","","","","NaN",""
"","S1","","html-keyboard-response","48","248496","0.0-1.0-47.0","0","0","25689","","null","","","null","5","","","","","","","","","","","","","","","",""
"","ISI","","html-keyboard-response","49","250504","0.0-1.0-48.0","0","0","25689","","null","","","null","5","NaN","","","","","","","","","","","","","","",""
"","S2","","html-keyboard-response","50","250764","0.0-1.0-49.0","0","0","25689","","null","","","null","5","","NaN","","","","","","","","","","","","","",""
"","response","","html-keyboard-response","51","251032","0.0-1.0-50.0-0.0","0","0","25689","","261","","","68","5","","","1","5","training","adjacent","CD","3","4","L.jpg","M.jpg","0","1","0","",""
"","feedback","","html-keyboard-response","52","252043","0.0-1.0-51.0-0.0","0","0","25689","","null","","","null","5","","","","","","","","","","","","","","","",""
"","time_out","","html-keyboard-response","53","254056","0.0-1.0-53.0-0.0","0","0","25689","","null","","","null","5","","","","","","","","","","","","","","","",""
"","ITI","","html-keyboard-response","54","255064","0.0-1.0-54.0","0","0","25689","","null","","","null","5","","","","","","","","","","","","","","","NaN",""
"","S1","","html-keyboard-response","55","255326","0.0-1.0-56.0","0","0","25689","","null","","","null","6","","","","","","","","","","","","","","","",""
"","ISI","","html-keyboard-response","56","257333","0.0-1.0-57.0","0","0","25689","","null","","","null","6","NaN","","","","","","","","","","","","","","",""
"","S2","","html-keyboard-response","57","257593","0.0-1.0-58.0","0","0","25689","","null","","","null","6","","NaN","","","","","","","","","","","","","",""
"","response","","html-keyboard-response","58","257702","0.0-1.0-59.0-0.0","0","0","25689","","97","","","68","6","","","1","6","training","adjacent","CB","3","2","L.jpg","O.jpg","0","0","1","",""
"","feedback","","html-keyboard-response","59","258710","0.0-1.0-60.0-0.0","0","0","25689","","null","","","null","6","","","","","","","","","","","","","","","",""
"","ITI","","html-keyboard-response","60","259718","0.0-1.0-63.0","0","0","25689","","null","","","null","6","","","","","","","","","","","","","","","NaN",""
"","S1","","html-keyboard-response","61","259982","0.0-1.0-65.0","0","0","25689","","null","","","null","7","","","","","","","","","","","","","","","",""
"","ISI","","html-keyboard-response","62","261992","0.0-1.0-66.0","0","0","25689","","null","","","null","7","NaN","","","","","","","","","","","","","","",""
"","S2","","html-keyboard-response","63","262250","0.0-1.0-67.0","0","0","25689","","null","","","null","7","","NaN","","","","","","","","","","","","","",""
"","response","","html-keyboard-response","64","262650","0.0-1.0-68.0-0.0","0","0","25689","","392","","","68","7","","","1","7","training","adjacent","BA","2","1","O.jpg","R.jpg","0","0","1","",""
"","feedback","","html-keyboard-response","65","263669","0.0-1.0-69.0-0.0","0","0","25689","","null","","","null","7","","","","","","","","","","","","","","","",""
"","ITI","","html-keyboard-response","66","264677","0.0-1.0-72.0","0","0","25689","","null","","","null","7","","","","","","","","","","","","","","","NaN",""
"","S1","","html-keyboard-response","67","264946","0.0-1.0-74.0","0","0","25689","","null","","","null","8","","","","","","","","","","","","","","","",""
"","ISI","","html-keyboard-response","68","266960","0.0-1.0-75.0","0","0","25689","","null","","","null","8","NaN","","","","","","","","","","","","","","",""
"","S2","","html-keyboard-response","69","267219","0.0-1.0-76.0","0","0","25689","","null","","","null","8","","NaN","","","","","","","","","","","","","",""
"","response","","html-keyboard-response","70","267569","0.0-1.0-77.0-0.0","0","0","25689","","344","","","68","8","","","1","8","training","adjacent","FG","6","7","Q.jpg","P.jpg","0","1","0","",""
"","feedback","","html-keyboard-response","71","268586","0.0-1.0-78.0-0.0","0","0","25689","","null","","","null","8","","","","","","","","","","","","","","","",""
"","time_out","","html-keyboard-response","72","270653","0.0-1.0-80.0-0.0","0","0","25689","","null","","","null","8","","","","","","","","","","","","","","","",""
"","ITI","","html-keyboard-response","73","271662","0.0-1.0-81.0","0","0","25689","","null","","","null","8","","","","","","","","","","","","","","","NaN",""
"","S1","","html-keyboard-response","74","271929","0.0-1.0-83.0","0","0","25689","","null","","","null","9","","","","","","","","","","","","","","","",""
"","ISI","","html-keyboard-response","75","273937","0.0-1.0-84.0","0","0","25689","","null","","","null","9","NaN","","","","","","","","","","","","","","",""
"","S2","","html-keyboard-response","76","274200","0.0-1.0-85.0","0","0","25689","","null","","","null","9","","NaN","","","","","","","","","","","","","",""
"","response","","html-keyboard-response","77","274617","0.0-1.0-86.0-0.0","0","0","25689","","407","","","75","9","","","1","9","training","adjacent","GF","7","6","P.jpg","Q.jpg","1","0","0","",""
"","feedback","","html-keyboard-response","78","275632","0.0-1.0-87.0-0.0","0","0","25689","","null","","","null","9","","","","","","","","","","","","","","","",""
"","time_out","","html-keyboard-response","79","277639","0.0-1.0-89.0-0.0","0","0","25689","","null","","","null","9","","","","","","","","","","","","","","","",""
"","ITI","","html-keyboard-response","80","278649","0.0-1.0-90.0","0","0","25689","","null","","","null","9","","","","","","","","","","","","","","","NaN",""
"","S1","","html-keyboard-response","81","278927","0.0-1.0-92.0","0","0","25689","","null","","","null","10","","","","","","","","","","","","","","","",""
"","ISI","","html-keyboard-response","82","280935","0.0-1.0-93.0","0","0","25689","","null","","","null","10","NaN","","","","","","","","","","","","","","",""
"","S2","","html-keyboard-response","83","281208","0.0-1.0-94.0","0","0","25689","","null","","","null","10","","NaN","","","","","","","","","","","","","",""
"","response","","html-keyboard-response","84","281580","0.0-1.0-95.0-0.0","0","0","25689","","349","","","75","10","","","1","10","training","adjacent","DC","4","3","M.jpg","L.jpg","1","0","0","",""
"","feedback","","html-keyboard-response","85","282589","0.0-1.0-96.0-0.0","0","0","25689","","null","","","null","10","","","","","","","","","","","","","","","",""
"","time_out","","html-keyboard-response","86","284599","0.0-1.0-98.0-0.0","0","0","25689","","null","","","null","10","","","","","","","","","","","","","","","",""
"","ITI","","html-keyboard-response","87","285611","0.0-1.0-99.0","0","0","25689","","null","","","null","10","","","","","","","","","","","","","","","NaN",""
"","S1","","html-keyboard-response","88","285869","0.0-1.0-101.0","0","0","25689","","null","","","null","11","","","","","","","","","","","","","","","",""
"","ISI","","html-keyboard-response","89","287877","0.0-1.0-102.0","0","0","25689","","null","","","null","11","NaN","","","","","","","","","","","","","","",""
"","S2","","html-keyboard-response","90","288137","0.0-1.0-103.0","0","0","25689","","null","","","null","11","","NaN","","","","","","","","","","","","","",""
"","response","","html-keyboard-response","91","288497","0.0-1.0-104.0-0.0","0","0","25689","","350","","","68","11","","","1","11","training","adjacent","AB","1","2","R.jpg","O.jpg","0","1","0","",""
"","feedback","","html-keyboard-response","92","289505","0.0-1.0-105.0-0.0","0","0","25689","","null","","","null","11","","","","","","","","","","","","","","","",""
"","time_out","","html-keyboard-response","93","291514","0.0-1.0-107.0-0.0","0","0","25689","","null","","","null","11","","","","","","","","","","","","","","","",""
"","ITI","","html-keyboard-response","94","292522","0.0-1.0-108.0","0","0","25689","","null","","","null","11","","","","","","","","","","","","","","","NaN",""
"","S1","","html-keyboard-response","95","292780","0.0-1.0-110.0","0","0","25689","","null","","","null","12","","","","","","","","","","","","","","","",""
"","ISI","","html-keyboard-response","96","294787","0.0-1.0-111.0","0","0","25689","","null","","","null","12","NaN","","","","","","","","","","","","","","",""
"","S2","","html-keyboard-response","97","295050","0.0-1.0-112.0","0","0","25689","","null","","","null","12","","NaN","","","","","","","","","","","","","",""
"","response","","html-keyboard-response","98","295384","0.0-1.0-113.0-0.0","0","0","25689","","326","","","68","12","","","1","12","training","adjacent","DC","4","3","M.jpg","L.jpg","0","0","1","",""
"","feedback","","html-keyboard-response","99","296397","0.0-1.0-114.0-0.0","0","0","25689","","null","","","null","12","","","","","","","","","","","","","","","",""
"","ITI","","html-keyboard-response","100","297405","0.0-1.0-117.0","0","0","25689","","null","","","null","12","","","","","","","","","","","","","","","NaN",""
"","S1","","html-keyboard-response","101","297663","0.0-1.0-119.0","0","0","25689","","null","","","null","13","","","","","","","","","","","","","","","",""
"","ISI","","html-keyboard-response","102","299671","0.0-1.0-120.0","0","0","25689","","null","","","null","13","NaN","","","","","","","","","","","","","","",""
"","S2","","html-keyboard-response","103","299929","0.0-1.0-121.0","0","0","25689","","null","","","null","13","","NaN","","","","","","","","","","","","","",""
"","response","","html-keyboard-response","104","300357","0.0-1.0-122.0-0.0","0","0","25689","","413","","","68","13","","","1","13","training","adjacent","AB","1","2","R.jpg","O.jpg","0","1","0","",""
"","feedback","","html-keyboard-response","105","301365","0.0-1.0-123.0-0.0","0","0","25689","","null","","","null","13","","","","","","","","","","","","","","","",""
"","time_out","","html-keyboard-response","106","303372","0.0-1.0-125.0-0.0","0","0","25689","","null","","","null","13","","","","","","","","","","","","","","","",""
"","ITI","","html-keyboard-response","107","304381","0.0-1.0-126.0","0","0","25689","","null","","","null","13","","","","","","","","","","","","","","","NaN",""
"","S1","","html-keyboard-response","108","304639","0.0-1.0-128.0","0","0","25689","","null","","","null","14","","","","","","","","","","","","","","","",""
"","ISI","","html-keyboard-response","109","306651","0.0-1.0-129.0","0","0","25689","","null","","","null","14","NaN","","","","","","","","","","","","","","",""
"","S2","","html-keyboard-response","110","306915","0.0-1.0-130.0","0","0","25689","","null","","","null","14","","NaN","","","","","","","","","","","","","",""
"","response","","html-keyboard-response","111","307333","0.0-1.0-131.0-0.0","0","0","25689","","406","","","68","14","","","1","14","training","adjacent","DE","4","5","M.jpg","N.jpg","0","1","0","",""
"","feedback","","html-keyboard-response","112","308344","0.0-1.0-132.0-0.0","0","0","25689","","null","","","null","14","","","","","","","","","","","","","","","",""
"","time_out","","html-keyboard-response","113","310353","0.0-1.0-134.0-0.0","0","0","25689","","null","","","null","14","","","","","","","","","","","","","","","",""
"","ITI","","html-keyboard-response","114","311362","0.0-1.0-135.0","0","0","25689","","null","","","null","14","","","","","","","","","","","","","","","NaN",""
"","S1","","html-keyboard-response","115","311620","0.0-1.0-137.0","0","0","25689","","null","","","null","15","","","","","","","","","","","","","","","",""
"","ISI","","html-keyboard-response","116","313628","0.0-1.0-138.0","0","0","25689","","null","","","null","15","NaN","","","","","","","","","","","","","","",""
"","S2","","html-keyboard-response","117","313888","0.0-1.0-139.0","0","0","25689","","null","","","null","15","","NaN","","","","","","","","","","","","","",""
"","response","","html-keyboard-response","118","313946","0.0-1.0-140.0-0.0","0","0","25689","","44","","","75","15","","","1","15","training","adjacent","CD","3","4","L.jpg","M.jpg","1","1","1","",""
"","feedback","","html-keyboard-response","119","314964","0.0-1.0-141.0-0.0","0","0","25689","","null","","","null","15","","","","","","","","","","","","","","","",""
"","ITI","","html-keyboard-response","120","315973","0.0-1.0-144.0","0","0","25689","","null","","","null","15","","","","","","","","","","","","","","","NaN",""
"","S1","","html-keyboard-response","121","316234","0.0-1.0-146.0","0","0","25689","","null","","","null","16","","","","","","","","","","","","","","","",""
"","ISI","","html-keyboard-response","122","318255","0.0-1.0-147.0","0","0","25689","","null","","","null","16","NaN","","","","","","","","","","","","","","",""
"","S2","","html-keyboard-response","123","318514","0.0-1.0-148.0","0","0","25689","","null","","","null","16","","NaN","","","","","","","","","","","","","",""
"","response","","html-keyboard-response","124","318634","0.0-1.0-149.0-0.0","0","0","25689","","111","","","68","16","","","1","16","training","adjacent","EF","5","6","N.jpg","Q.jpg","0","1","0","",""
"","feedback","","html-keyboard-response","125","319648","0.0-1.0-150.0-0.0","0","0","25689","","null","","","null","16","","","","","","","","","","","","","","","",""
"","time_out","","html-keyboard-response","126","321660","0.0-1.0-152.0-0.0","0","0","25689","","null","","","null","16","","","","","","","","","","","","","","","",""
"","ITI","","html-keyboard-response","127","322671","0.0-1.0-153.0","0","0","25689","","null","","","null","16","","","","","","","","","","","","","","","NaN",""
"","S1","","html-keyboard-response","128","322930","0.0-1.0-155.0","0","0","25689","","null","","","null","17","","","","","","","","","","","","","","","",""
"","ISI","","html-keyboard-response","129","324937","0.0-1.0-156.0","0","0","25689","","null","","","null","17","NaN","","","","","","","","","","","","","","",""
"","S2","","html-keyboard-response","130","325198","0.0-1.0-157.0","0","0","25689","","null","","","null","17","","NaN","","","","","","","","","","","","","",""
"","response","","html-keyboard-response","131","325299","0.0-1.0-158.0-0.0","0","0","25689","","93","","","75","17","","","1","17","training","adjacent","GF","7","6","P.jpg","Q.jpg","1","0","0","",""
"","feedback","","html-keyboard-response","132","326309","0.0-1.0-159.0-0.0","0","0","25689","","null","","","null","17","","","","","","","","","","","","","","","",""
"","time_out","","html-keyboard-response","133","328317","0.0-1.0-161.0-0.0","0","0","25689","","null","","","null","17","","","","","","","","","","","","","","","",""
"","ITI","","html-keyboard-response","134","329324","0.0-1.0-162.0","0","0","25689","","null","","","null","17","","","","","","","","","","","","","","","NaN",""
"","S1","","html-keyboard-response","135","329591","0.0-1.0-164.0","0","0","25689","","null","","","null","18","","","","","","","","","","","","","","","",""
"","ISI","","html-keyboard-response","136","331602","0.0-1.0-165.0","0","0","25689","","null","","","null","18","NaN","","","","","","","","","","","","","","",""
"","S2","","html-keyboard-response","137","331861","0.0-1.0-166.0","0","0","25689","","null","","","null","18","","NaN","","","","","","","","","","","","","",""
"","response","","html-keyboard-response","138","331963","0.0-1.0-167.0-0.0","0","0","25689","","90","","","75","18","","","1","18","training","adjacent","ED","5","4","N.jpg","M.jpg","1","0","0","",""
"","feedback","","html-keyboard-response","139","332976","0.0-1.0-168.0-0.0","0","0","25689","","null","","","null","18","","","","","","","","","","","","","","","",""
"","time_out","","html-keyboard-response","140","334985","0.0-1.0-170.0-0.0","0","0","25689","","null","","","null","18","","","","","","","","","","","","","","","",""
"","ITI","","html-keyboard-response","141","335998","0.0-1.0-171.0","0","0","25689","","null","","","null","18","","","","","","","","","","","","","","","NaN",""
"","S1","","html-keyboard-response","142","336257","0.0-1.0-173.0","0","0","25689","","null","","","null","19","","","","","","","","","","","","","","","",""
"","ISI","","html-keyboard-response","143","338271","0.0-1.0-174.0","0","0","25689","","null","","","null","19","NaN","","","","","","","","","","","","","","",""
"","S2","","html-keyboard-response","144","338532","0.0-1.0-175.0","0","0","25689","","null","","","null","19","","NaN","","","","","","","","","","","","","",""
"","response","","html-keyboard-response","145","338700","0.0-1.0-176.0-0.0","0","0","25689","","157","","","75","19","","","1","19","training","adjacent","CB","3","2","L.jpg","O.jpg","1","0","0","",""
"","feedback","","html-keyboard-response","146","339713","0.0-1.0-177.0-0.0","0","0","25689","","null","","","null","19","","","","","","","","","","","","","","","",""
"","time_out","","html-keyboard-response","147","341720","0.0-1.0-179.0-0.0","0","0","25689","","null","","","null","19","","","","","","","","","","","","","","","",""
"","ITI","","html-keyboard-response","148","342732","0.0-1.0-180.0","0","0","25689","","null","","","null","19","","","","","","","","","","","","","","","NaN",""
"","S1","","html-keyboard-response","149","342991","0.0-1.0-182.0","0","0","25689","","null","","","null","20","","","","","","","","","","","","","","","",""
"","ISI","","html-keyboard-response","150","344999","0.0-1.0-183.0","0","0","25689","","null","","","null","20","NaN","","","","","","","","","","","","","","",""
"","S2","","html-keyboard-response","151","345265","0.0-1.0-184.0","0","0","25689","","null","","","null","20","","NaN","","","","","","","","","","","","","",""
"","response","","html-keyboard-response","152","345623","0.0-1.0-185.0-0.0","0","0","25689","","345","","","75","20","","","1","20","training","adjacent","FE","6","5","Q.jpg","N.jpg","1","0","0","",""
"","feedback","","html-keyboard-response","153","346638","0.0-1.0-186.0-0.0","0","0","25689","","null","","","null","20","","","","","","","","","","","","","","","",""
"","time_out","","html-keyboard-response","154","348647","0.0-1.0-188.0-0.0","0","0","25689","","null","","","null","20","","","","","","","","","","","","","","","",""
"","ITI","","html-keyboard-response","155","349655","0.0-1.0-189.0","0","0","25689","","null","","","null","20","","","","","","","","","","","","","","","NaN",""
"","S1","","html-keyboard-response","156","349915","0.0-1.0-191.0","0","0","25689","","null","","","null","21","","","","","","","","","","","","","","","",""
"","ISI","","html-keyboard-response","157","351922","0.0-1.0-192.0","0","0","25689","","null","","","null","21","NaN","","","","","","","","","","","","","","",""
"","S2","","html-keyboard-response","158","352183","0.0-1.0-193.0","0","0","25689","","null","","","null","21","","NaN","","","","","","","","","","","","","",""
"","response","","html-keyboard-response","159","352489","0.0-1.0-194.0-0.0","0","0","25689","","300","","","68","21","","","1","21","training","adjacent","FG","6","7","Q.jpg","P.jpg","0","1","0","",""
"","feedback","","html-keyboard-response","160","353499","0.0-1.0-195.0-0.0","0","0","25689","","null","","","null","21","","","","","","","","","","","","","","","",""
"","time_out","","html-keyboard-response","161","355510","0.0-1.0-197.0-0.0","0","0","25689","","null","","","null","21","","","","","","","","","","","","","","","",""
"","ITI","","html-keyboard-response","162","356518","0.0-1.0-198.0","0","0","25689","","null","","","null","21","","","","","","","","","","","","","","","NaN",""
"","S1","","html-keyboard-response","163","356778","0.0-1.0-200.0","0","0","25689","","null","","","null","22","","","","","","","","","","","","","","","",""
"","ISI","","html-keyboard-response","164","358785","0.0-1.0-201.0","0","0","25689","","null","","","null","22","NaN","","","","","","","","","","","","","","",""
"","S2","","html-keyboard-response","165","359051","0.0-1.0-202.0","0","0","25689","","null","","","null","22","","NaN","","","","","","","","","","","","","",""
"","response","","html-keyboard-response","166","359453","0.0-1.0-203.0-0.0","0","0","25689","","365","","","68","22","","","1","22","training","adjacent","BC","2","3","O.jpg","L.jpg","0","1","0","",""
"","feedback","","html-keyboard-response","167","360469","0.0-1.0-204.0-0.0","0","0","25689","","null","","","null","22","","","","","","","","","","","","","","","",""
"","time_out","","html-keyboard-response","168","362477","0.0-1.0-206.0-0.0","0","0","25689","","null","","","null","22","","","","","","","","","","","","","","","",""
"","ITI","","html-keyboard-response","169","363487","0.0-1.0-207.0","0","0","25689","","null","","","null","22","","","","","","","","","","","","","","","NaN",""
"","S1","","html-keyboard-response","170","363745","0.0-1.0-209.0","0","0","25689","","null","","","null","23","","","","","","","","","","","","","","","",""
"","ISI","","html-keyboard-response","171","365762","0.0-1.0-210.0","0","0","25689","","null","","","null","23","NaN","","","","","","","","","","","","","","",""
"","S2","","html-keyboard-response","172","366020","0.0-1.0-211.0","0","0","25689","","null","","","null","23","","NaN","","","","","","","","","","","","","",""
"","response","","html-keyboard-response","173","366152","0.0-1.0-212.0-0.0","0","0","25689","","120","","","75","23","","","1","23","training","adjacent","FG","6","7","Q.jpg","P.jpg","1","1","1","",""
"","feedback","","html-keyboard-response","174","367166","0.0-1.0-213.0-0.0","0","0","25689","","null","","","null","23","","","","","","","","","","","","","","","",""
"","ITI","","html-keyboard-response","175","368176","0.0-1.0-216.0","0","0","25689","","null","","","null","23","","","","","","","","","","","","","","","NaN",""
"","S1","","html-keyboard-response","176","368438","0.0-1.0-218.0","0","0","25689","","null","","","null","24","","","","","","","","","","","","","","","",""
"","ISI","","html-keyboard-response","177","370446","0.0-1.0-219.0","0","0","25689","","null","","","null","24","NaN","","","","","","","","","","","","","","",""
"","S2","","html-keyboard-response","178","370706","0.0-1.0-220.0","0","0","25689","","null","","","null","24","","NaN","","","","","","","","","","","","","",""
"","response","","html-keyboard-response","179","370772","0.0-1.0-221.0-0.0","0","0","25689","","55","","","68","24","","","1","24","training","adjacent","EF","5","6","N.jpg","Q.jpg","0","1","0","",""
"","feedback","","html-keyboard-response","180","371786","0.0-1.0-222.0-0.0","0","0","25689","","null","","","null","24","","","","","","","","","","","","","","","",""
"","time_out","","html-keyboard-response","181","373795","0.0-1.0-224.0-0.0","0","0","25689","","null","","","null","24","","","","","","","","","","","","","","","",""
"","ITI","","html-keyboard-response","182","374802","0.0-1.0-225.0","0","0","25689","","null","","","null","24","","","","","","","","","","","","","","","NaN",""
"","S1","","html-keyboard-response","183","375065","0.0-1.0-227.0","0","0","25689","","null","","","null","25","","","","","","","","","","","","","","","",""
"","ISI","","html-keyboard-response","184","377077","0.0-1.0-228.0","0","0","25689","","null","","","null","25","NaN","","","","","","","","","","","","","","",""
"","S2","","html-keyboard-response","185","377342","0.0-1.0-229.0","0","0","25689","","null","","","null","25","","NaN","","","","","","","","","","","","","",""
"","response","","html-keyboard-response","186","377553","0.0-1.0-230.0-0.0","0","0","25689","","201","","","68","25","","","1","25","training","adjacent","FE","6","5","Q.jpg","N.jpg","0","0","1","",""
"","feedback","","html-keyboard-response","187","378564","0.0-1.0-231.0-0.0","0","0","25689","","null","","","null","25","","","","","","","","","","","","","","","",""
"","ITI","","html-keyboard-response","188","379584","0.0-1.0-234.0","0","0","25689","","null","","","null","25","","","","","","","","","","","","","","","NaN",""
"","S1","","html-keyboard-response","189","379842","0.0-1.0-236.0","0","0","25689","","null","","","null","26","","","","","","","","","","","","","","","",""
"","ISI","","html-keyboard-response","190","381856","0.0-1.0-237.0","0","0","25689","","null","","","null","26","NaN","","","","","","","","","","","","","","",""
"","S2","","html-keyboard-response","191","382114","0.0-1.0-238.0","0","0","25689","","null","","","null","26","","NaN","","","","","","","","","","","","","",""
"","response","","html-keyboard-response","192","382439","0.0-1.0-239.0-0.0","0","0","25689","","316","","","68","26","","","1","26","training","adjacent","CB","3","2","L.jpg","O.jpg","0","0","1","",""
"","feedback","","html-keyboard-response","193","383449","0.0-1.0-240.0-0.0","0","0","25689","","null","","","null","26","","","","","","","","","","","","","","","",""
"","ITI","","html-keyboard-response","194","384463","0.0-1.0-243.0","0","0","25689","","null","","","null","26","","","","","","","","","","","","","","","NaN",""
"","S1","","html-keyboard-response","195","384721","0.0-1.0-245.0","0","0","25689","","null","","","null","27","","","","","","","","","","","","","","","",""
"","ISI","","html-keyboard-response","196","386735","0.0-1.0-246.0","0","0","25689","","null","","","null","27","NaN","","","","","","","","","","","","","","",""
"","S2","","html-keyboard-response","197","386994","0.0-1.0-247.0","0","0","25689","","null","","","null","27","","NaN","","","","","","","","","","","","","",""
"","response","","html-keyboard-response","198","387381","0.0-1.0-248.0-0.0","0","0","25689","","376","","","75","27","","","1","27","training","adjacent","BC","2","3","O.jpg","L.jpg","1","1","1","",""
"","feedback","","html-keyboard-response","199","388391","0.0-1.0-249.0-0.0","0","0","25689","","null","","","null","27","","","","","","","","","","","","","","","",""
"","ITI","","html-keyboard-response","200","389411","0.0-1.0-252.0","0","0","25689","","null","","","null","27","","","","","","","","","","","","","","","NaN",""
"","S1","","html-keyboard-response","201","389671","0.0-1.0-254.0","0","0","25689","","null","","","null","28","","","","","","","","","","","","","","","",""
"","ISI","","html-keyboard-response","202","391682","0.0-1.0-255.0","0","0","25689","","null","","","null","28","NaN","","","","","","","","","","","","","","",""
"","S2","","html-keyboard-response","203","391941","0.0-1.0-256.0","0","0","25689","","null","","","null","28","","NaN","","","","","","","","","","","","","",""
"","response","","html-keyboard-response","204","392214","0.0-1.0-257.0-0.0","0","0","25689","","263","","","68","28","","","1","28","training","adjacent","ED","5","4","N.jpg","M.jpg","0","0","1","",""
"","feedback","","html-keyboard-response","205","393223","0.0-1.0-258.0-0.0","0","0","25689","","null","","","null","28","","","","","","","","","","","","","","","",""
"","ITI","","html-keyboard-response","206","394231","0.0-1.0-261.0","0","0","25689","","null","","","null","28","","","","","","","","","","","","","","","NaN",""
"","S1","","html-keyboard-response","207","394505","0.0-1.0-263.0","0","0","25689","","null","","","null","29","","","","","","","","","","","","","","","",""
"","ISI","","html-keyboard-response","208","396514","0.0-1.0-264.0","0","0","25689","","null","","","null","29","NaN","","","","","","","","","","","","","","",""
"","S2","","html-keyboard-response","209","396772","0.0-1.0-265.0","0","0","25689","","null","","","null","29","","NaN","","","","","","","","","","","","","",""
"","response","","html-keyboard-response","210","397085","0.0-1.0-266.0-0.0","0","0","25689","","304","","","75","29","","","1","29","training","adjacent","FE","6","5","Q.jpg","N.jpg","1","0","0","",""
"","feedback","","html-keyboard-response","211","398096","0.0-1.0-267.0-0.0","0","0","25689","","null","","","null","29","","","","","","","","","","","","","","","",""
"","time_out","","html-keyboard-response","212","400103","0.0-1.0-269.0-0.0","0","0","25689","","null","","","null","29","","","","","","","","","","","","","","","",""
"","ITI","","html-keyboard-response","213","401112","0.0-1.0-270.0","0","0","25689","","null","","","null","29","","","","","","","","","","","","","","","NaN",""
"","S1","","html-keyboard-response","214","401373","0.0-1.0-272.0","0","0","25689","","null","","","null","30","","","","","","","","","","","","","","","",""
"","ISI","","html-keyboard-response","215","403380","0.0-1.0-273.0","0","0","25689","","null","","","null","30","NaN","","","","","","","","","","","","","","",""
"","S2","","html-keyboard-response","216","403637","0.0-1.0-274.0","0","0","25689","","null","","","null","30","","NaN","","","","","","","","","","","","","",""
"","response","","html-keyboard-response","217","403904","0.0-1.0-275.0-0.0","0","0","25689","","254","","","68","30","","","1","30","training","adjacent","GF","7","6","P.jpg","Q.jpg","0","0","1","",""
"","feedback","","html-keyboard-response","218","404912","0.0-1.0-276.0-0.0","0","0","25689","","null","","","null","30","","","","","","","","","","","","","","","",""
"","ITI","","html-keyboard-response","219","405923","0.0-1.0-279.0","0","0","25689","","null","","","null","30","","","","","","","","","","","","","","","NaN",""
"","S1","","html-keyboard-response","220","406188","0.0-1.0-281.0","0","0","25689","","null","","","null","31","","","","","","","","","","","","","","","",""
"","ISI","","html-keyboard-response","221","408196","0.0-1.0-282.0","0","0","25689","","null","","","null","31","NaN","","","","","","","","","","","","","","",""
"","S2","","html-keyboard-response","222","408454","0.0-1.0-283.0","0","0","25689","","null","","","null","31","","NaN","","","","","","","","","","","","","",""
"","response","","html-keyboard-response","223","408771","0.0-1.0-284.0-0.0","0","0","25689","","305","","","75","31","","","1","31","training","adjacent","BA","2","1","O.jpg","R.jpg","1","0","0","",""
"","feedback","","html-keyboard-response","224","409780","0.0-1.0-285.0-0.0","0","0","25689","","null","","","null","31","","","","","","","","","","","","","","","",""
"","time_out","","html-keyboard-response","225","411787","0.0-1.0-287.0-0.0","0","0","25689","","null","","","null","31","","","","","","","","","","","","","","","",""
"","ITI","","html-keyboard-response","226","412795","0.0-1.0-288.0","0","0","25689","","null","","","null","31","","","","","","","","","","","","","","","NaN",""
"","S1","","html-keyboard-response","227","413058","0.0-1.0-290.0","0","0","25689","","null","","","null","32","","","","","","","","","","","","","","","",""
"","ISI","","html-keyboard-response","228","415068","0.0-1.0-291.0","0","0","25689","","null","","","null","32","NaN","","","","","","","","","","","","","","",""
"","S2","","html-keyboard-response","229","415329","0.0-1.0-292.0","0","0","25689","","null","","","null","32","","NaN","","","","","","","","","","","","","",""
"","response","","html-keyboard-response","230","415620","0.0-1.0-293.0-0.0","0","0","25689","","284","","","68","32","","","1","32","training","adjacent","ED","5","4","N.jpg","M.jpg","0","0","1","",""
"","feedback","","html-keyboard-response","231","416637","0.0-1.0-294.0-0.0","0","0","25689","","null","","","null","32","","","","","","","","","","","","","","","",""
"","ITI","","html-keyboard-response","232","417645","0.0-1.0-297.0","0","0","25689","","null","","","null","32","","","","","","","","","","","","","","","NaN",""
"","S1","","html-keyboard-response","233","417903","0.0-1.0-299.0","0","0","25689","","null","","","null","33","","","","","","","","","","","","","","","",""
"","ISI","","html-keyboard-response","234","419911","0.0-1.0-300.0","0","0","25689","","null","","","null","33","NaN","","","","","","","","","","","","","","",""
"","S2","","html-keyboard-response","235","420174","0.0-1.0-301.0","0","0","25689","","null","","","null","33","","NaN","","","","","","","","","","","","","",""
"","response","","html-keyboard-response","236","420458","0.0-1.0-302.0-0.0","0","0","25689","","276","","","75","33","","","1","33","training","adjacent","DE","4","5","M.jpg","N.jpg","1","1","1","",""
"","feedback","","html-keyboard-response","237","421474","0.0-1.0-303.0-0.0","0","0","25689","","null","","","null","33","","","","","","","","","","","","","","","",""
"","ITI","","html-keyboard-response","238","422483","0.0-1.0-306.0","0","0","25689","","null","","","null","33","","","","","","","","","","","","","","","NaN",""
"","S1","","html-keyboard-response","239","422742","0.0-1.0-308.0","0","0","25689","","null","","","null","34","","","","","","","","","","","","","","","",""
"","ISI","","html-keyboard-response","240","424749","0.0-1.0-309.0","0","0","25689","","null","","","null","34","NaN","","","","","","","","","","","","","","",""
"","S2","","html-keyboard-response","241","425012","0.0-1.0-310.0","0","0","25689","","null","","","null","34","","NaN","","","","","","","","","","","","","",""
"","response","","html-keyboard-response","242","425315","0.0-1.0-311.0-0.0","0","0","25689","","295","","","68","34","","","1","34","training","adjacent","BC","2","3","O.jpg","L.jpg","0","1","0","",""
"","feedback","","html-keyboard-response","243","426342","0.0-1.0-312.0-0.0","0","0","25689","","null","","","null","34","","","","","","","","","","","","","","","",""
"","time_out","","html-keyboard-response","244","428350","0.0-1.0-314.0-0.0","0","0","25689","","null","","","null","34","","","","","","","","","","","","","","","",""
"","ITI","","html-keyboard-response","245","429366","0.0-1.0-315.0","0","0","25689","","null","","","null","34","","","","","","","","","","","","","","","NaN",""
"","S1","","html-keyboard-response","246","429627","0.0-1.0-317.0","0","0","25689","","null","","","null","35","","","","","","","","","","","","","","","",""
"","ISI","","html-keyboard-response","247","431635","0.0-1.0-318.0","0","0","25689","","null","","","null","35","NaN","","","","","","","","","","","","","","",""
"","S2","","html-keyboard-response","248","431901","0.0-1.0-319.0","0","0","25689","","null","","","null","35","","NaN","","","","","","","","","","","","","",""
"","response","","html-keyboard-response","249","432206","0.0-1.0-320.0-0.0","0","0","25689","","297","","","75","35","","","1","35","training","adjacent","ED","5","4","N.jpg","M.jpg","1","0","0","",""
"","feedback","","html-keyboard-response","250","433217","0.0-1.0-321.0-0.0","0","0","25689","","null","","","null","35","","","","","","","","","","","","","","","",""
"","time_out","","html-keyboard-response","251","435226","0.0-1.0-323.0-0.0","0","0","25689","","null","","","null","35","","","","","","","","","","","","","","","",""
"","ITI","","html-keyboard-response","252","436234","0.0-1.0-324.0","0","0","25689","","null","","","null","35","","","","","","","","","","","","","","","NaN",""
"","S1","","html-keyboard-response","253","436496","0.0-1.0-326.0","0","0","25689","","null","","","null","36","","","","","","","","","","","","","","","",""
"","ISI","","html-keyboard-response","254","438508","0.0-1.0-327.0","0","0","25689","","null","","","null","36","NaN","","","","","","","","","","","","","","",""
"","S2","","html-keyboard-response","255","438769","0.0-1.0-328.0","0","0","25689","","null","","","null","36","","NaN","","","","","","","","","","","","","",""
"","response","","html-keyboard-response","256","439070","0.0-1.0-329.0-0.0","0","0","25689","","292","","","68","36","","","1","36","training","adjacent","DE","4","5","M.jpg","N.jpg","0","1","0","",""
"","feedback","","html-keyboard-response","257","440081","0.0-1.0-330.0-0.0","0","0","25689","","null","","","null","36","","","","","","","","","","","","","","","",""
"","time_out","","html-keyboard-response","258","442092","0.0-1.0-332.0-0.0","0","0","25689","","null","","","null","36","","","","","","","","","","","","","","","",""
"","ITI","","html-keyboard-response","259","443102","0.0-1.0-333.0","0","0","25689","","null","","","null","36","","","","","","","","","","","","","","","NaN",""
"","S1","","html-keyboard-response","260","443367","0.0-1.0-335.0","0","0","25689","","null","","","null","37","","","","","","","","","","","","","","","",""
"","ISI","","html-keyboard-response","261","445385","0.0-1.0-336.0","0","0","25689","","287","","","75","37","k","","","","","","","","","","","","","","",""
"","S2","","html-keyboard-response","262","445645","0.0-1.0-337.0","0","0","25689","","null","","","null","37","","NaN","","","","","","","","","","","","","",""
"","response","","html-keyboard-response","263","445957","0.0-1.0-338.0-0.0","0","0","25689","","305","","","75","37","","","1","37","training","adjacent","EF","5","6","N.jpg","Q.jpg","1","1","1","",""
"","feedback","","html-keyboard-response","264","446973","0.0-1.0-339.0-0.0","0","0","25689","","null","","","null","37","","","","","","","","","","","","","","","",""
"","ITI","","html-keyboard-response","265","447984","0.0-1.0-342.0","0","0","25689","","null","","","null","37","","","","","","","","","","","","","","","NaN",""
"","S1","","html-keyboard-response","266","448247","0.0-1.0-344.0","0","0","25689","","null","","","null","38","","","","","","","","","","","","","","","",""
"","ISI","","html-keyboard-response","267","450260","0.0-1.0-345.0","0","0","25689","","null","","","null","38","NaN","","","","","","","","","","","","","","",""
"","S2","","html-keyboard-response","268","450532","0.0-1.0-346.0","0","0","25689","","null","","","null","38","","NaN","","","","","","","","","","","","","",""
"","response","","html-keyboard-response","269","450836","0.0-1.0-347.0-0.0","0","0","25689","","297","","","68","38","","","1","38","training","adjacent","DE","4","5","M.jpg","N.jpg","0","1","0","",""
"","feedback","","html-keyboard-response","270","451862","0.0-1.0-348.0-0.0","0","0","25689","","null","","","null","38","","","","","","","","","","","","","","","",""
"","time_out","","html-keyboard-response","271","453872","0.0-1.0-350.0-0.0","0","0","25689","","null","","","null","38","","","","","","","","","","","","","","","",""
"","ITI","","html-keyboard-response","272","454884","0.0-1.0-351.0","0","0","25689","","null","","","null","38","","","","","","","","","","","","","","","NaN",""
"","S1","","html-keyboard-response","273","455142","0.0-1.0-353.0","0","0","25689","","null","","","null","39","","","","","","","","","","","","","","","",""
"","ISI","","html-keyboard-response","274","457151","0.0-1.0-354.0","0","0","25689","","null","","","null","39","NaN","","","","","","","","","","","","","","",""
"","S2","","html-keyboard-response","275","457419","0.0-1.0-355.0","0","0","25689","","null","","","null","39","","NaN","","","","","","","","","","","","","",""
"","response","","html-keyboard-response","276","457736","0.0-1.0-356.0-0.0","0","0","25689","","308","","","75","39","","","1","39","training","adjacent","DC","4","3","M.jpg","L.jpg","1","0","0","",""
"","feedback","","html-keyboard-response","277","458746","0.0-1.0-357.0-0.0","0","0","25689","","null","","","null","39","","","","","","","","","","","","","","","",""
"","time_out","","html-keyboard-response","278","460758","0.0-1.0-359.0-0.0","0","0","25689","","null","","","null","39","","","","","","","","","","","","","","","",""
"","ITI","","html-keyboard-response","279","461770","0.0-1.0-360.0","0","0","25689","","null","","","null","39","","","","","","","","","","","","","","","NaN",""
"","S1","","html-keyboard-response","280","462029","0.0-1.0-362.0","0","0","25689","","null","","","null","40","","","","","","","","","","","","","","","",""
"","ISI","","html-keyboard-response","281","464035","0.0-1.0-363.0","0","0","25689","","null","","","null","40","NaN","","","","","","","","","","","","","","",""
"","S2","","html-keyboard-response","282","464313","0.0-1.0-364.0","0","0","25689","","null","","","null","40","","NaN","","","","","","","","","","","","","",""
"","response","","html-keyboard-response","283","464606","0.0-1.0-365.0-0.0","0","0","25689","","287","","","68","40","","","1","40","training","adjacent","DC","4","3","M.jpg","L.jpg","0","0","1","",""
"","feedback","","html-keyboard-response","284","465619","0.0-1.0-366.0-0.0","0","0","25689","","null","","","null","40","","","","","","","","","","","","","","","",""
"","ITI","","html-keyboard-response","285","466630","0.0-1.0-369.0","0","0","25689","","null","","","null","40","","","","","","","","","","","","","","","NaN",""
"","S1","","html-keyboard-response","286","466890","0.0-1.0-371.0","0","0","25689","","null","","","null","41","","","","","","","","","","","","","","","",""
"","ISI","","html-keyboard-response","287","468908","0.0-1.0-372.0","0","0","25689","","null","","","null","41","NaN","","","","","","","","","","","","","","",""
"","S2","","html-keyboard-response","288","469167","0.0-1.0-373.0","0","0","25689","","null","","","null","41","","NaN","","","","","","","","","","","","","",""
"","response","","html-keyboard-response","289","469469","0.0-1.0-374.0-0.0","0","0","25689","","295","","","75","41","","","1","41","training","adjacent","BA","2","1","O.jpg","R.jpg","1","0","0","",""
"","feedback","","html-keyboard-response","290","470483","0.0-1.0-375.0-0.0","0","0","25689","","null","","","null","41","","","","","","","","","","","","","","","",""
"","time_out","","html-keyboard-response","291","472495","0.0-1.0-377.0-0.0","0","0","25689","","null","","","null","41","","","","","","","","","","","","","","","",""
"","ITI","","html-keyboard-response","292","473502","0.0-1.0-378.0","0","0","25689","","null","","","null","41","","","","","","","","","","","","","","","NaN",""
"","S1","","html-keyboard-response","293","473763","0.0-1.0-380.0","0","0","25689","","null","","","null","42","","","","","","","","","","","","","","","",""
"","ISI","","html-keyboard-response","294","475781","0.0-1.0-381.0","0","0","25689","","null","","","null","42","NaN","","","","","","","","","","","","","","",""
"","S2","","html-keyboard-response","295","476043","0.0-1.0-382.0","0","0","25689","","null","","","null","42","","NaN","","","","","","","","","","","","","",""
"","response","","html-keyboard-response","296","476333","0.0-1.0-383.0-0.0","0","0","25689","","263","","","68","42","","","1","42","training","adjacent","FE","6","5","Q.jpg","N.jpg","0","0","1","",""
"","feedback","","html-keyboard-response","297","477344","0.0-1.0-384.0-0.0","0","0","25689","","null","","","null","42","","","","","","","","","","","","","","","",""
"","ITI","","html-keyboard-response","298","478402","0.0-1.0-387.0","0","0","25689","","null","","","null","42","","","","","","","","","","","","","","","NaN",""
"","S1","","html-keyboard-response","299","478672","0.0-1.0-389.0","0","0","25689","","null","","","null","43","","","","","","","","","","","","","","","",""
"","ISI","","html-keyboard-response","300","480680","0.0-1.0-390.0","0","0","25689","","null","","","null","43","NaN","","","","","","","","","","","","","","",""
"","S2","","html-keyboard-response","301","480938","0.0-1.0-391.0","0","0","25689","","null","","","null","43","","NaN","","","","","","","","","","","","","",""
"","response","","html-keyboard-response","302","481224","0.0-1.0-392.0-0.0","0","0","25689","","273","","","75","43","","","1","43","training","adjacent","BA","2","1","O.jpg","R.jpg","1","0","0","",""
"","feedback","","html-keyboard-response","303","482242","0.0-1.0-393.0-0.0","0","0","25689","","null","","","null","43","","","","","","","","","","","","","","","",""
"","time_out","","html-keyboard-response","304","484281","0.0-1.0-395.0-0.0","0","0","25689","","null","","","null","43","","","","","","","","","","","","","","","",""
"","ITI","","html-keyboard-response","305","485289","0.0-1.0-396.0","0","0","25689","","null","","","null","43","","","","","","","","","","","","","","","NaN",""
"","S1","","html-keyboard-response","306","485554","0.0-1.0-398.0","0","0","25689","","null","","","null","44","","","","","","","","","","","","","","","",""
"","ISI","","html-keyboard-response","307","487563","0.0-1.0-399.0","0","0","25689","","null","","","null","44","NaN","","","","","","","","","","","","","","",""
"","S2","","html-keyboard-response","308","487824","0.0-1.0-400.0","0","0","25689","","null","","","null","44","","NaN","","","","","","","","","","","","","",""
"","response","","html-keyboard-response","309","488099","0.0-1.0-401.0-0.0","0","0","25689","","261","","","68","44","","","1","44","training","adjacent","FG","6","7","Q.jpg","P.jpg","0","1","0","",""
"","feedback","","html-keyboard-response","310","489108","0.0-1.0-402.0-0.0","0","0","25689","","null","","","null","44","","","","","","","","","","","","","","","",""
"","time_out","","html-keyboard-response","311","491162","0.0-1.0-404.0-0.0","0","0","25689","","null","","","null","44","","","","","","","","","","","","","","","",""
"","ITI","","html-keyboard-response","312","492171","0.0-1.0-405.0","0","0","25689","","null","","","null","44","","","","","","","","","","","","","","","NaN",""
"","S1","","html-keyboard-response","313","492429","0.0-1.0-407.0","0","0","25689","","null","","","null","45","","","","","","","","","","","","","","","",""
"","ISI","","html-keyboard-response","314","494440","0.0-1.0-408.0","0","0","25689","","null","","","null","45","NaN","","","","","","","","","","","","","","",""
"","S2","","html-keyboard-response","315","494698","0.0-1.0-409.0","0","0","25689","","null","","","null","45","","NaN","","","","","","","","","","","","","",""
"","response","","html-keyboard-response","316","494986","0.0-1.0-410.0-0.0","0","0","25689","","275","","","75","45","","","1","45","training","adjacent","EF","5","6","N.jpg","Q.jpg","1","1","1","",""
"","feedback","","html-keyboard-response","317","495993","0.0-1.0-411.0-0.0","0","0","25689","","null","","","null","45","","","","","","","","","","","","","","","",""
"","ITI","","html-keyboard-response","318","497010","0.0-1.0-414.0","0","0","25689","","null","","","null","45","","","","","","","","","","","","","","","NaN",""
"","S1","","html-keyboard-response","319","497273","0.0-1.0-416.0","0","0","25689","","null","","","null","46","","","","","","","","","","","","","","","",""
"","ISI","","html-keyboard-response","320","499281","0.0-1.0-417.0","0","0","25689","","null","","","null","46","NaN","","","","","","","","","","","","","","",""
"","S2","","html-keyboard-response","321","499543","0.0-1.0-418.0","0","0","25689","","null","","","null","46","","NaN","","","","","","","","","","","","","",""
"","response","","html-keyboard-response","322","499838","0.0-1.0-419.0-0.0","0","0","25689","","288","","","68","46","","","1","46","training","adjacent","CD","3","4","L.jpg","M.jpg","0","1","0","",""
"","feedback","","html-keyboard-response","323","500849","0.0-1.0-420.0-0.0","0","0","25689","","null","","","null","46","","","","","","","","","","","","","","","",""
"","time_out","","html-keyboard-response","324","502860","0.0-1.0-422.0-0.0","0","0","25689","","null","","","null","46","","","","","","","","","","","","","","","",""
"","ITI","","html-keyboard-response","325","503870","0.0-1.0-423.0","0","0","25689","","null","","","null","46","","","","","","","","","","","","","","","NaN",""
"","S1","","html-keyboard-response","326","504129","0.0-1.0-425.0","0","0","25689","","null","","","null","47","","","","","","","","","","","","","","","",""
"","ISI","","html-keyboard-response","327","506136","0.0-1.0-426.0","0","0","25689","","null","","","null","47","NaN","","","","","","","","","","","","","","",""
"","S2","","html-keyboard-response","328","506394","0.0-1.0-427.0","0","0","25689","","null","","","null","47","","NaN","","","","","","","","","","","","","",""
"","response","","html-keyboard-response","329","506734","0.0-1.0-428.0-0.0","0","0","25689","","331","","","75","47","","","1","47","training","adjacent","CD","3","4","L.jpg","M.jpg","1","1","1","",""
"","feedback","","html-keyboard-response","330","507756","0.0-1.0-429.0-0.0","0","0","25689","","null","","","null","47","","","","","","","","","","","","","","","",""
"","ITI","","html-keyboard-response","331","508764","0.0-1.0-432.0","0","0","25689","","null","","","null","47","","","","","","","","","","","","","","","NaN",""
"","block_over","","html-keyboard-response","332","515338","0.0-1.0-433.0-0.0","0","0","25689","","6562","","","32","47","","","","","","","","","","","","","","","",""
"","S1","","html-keyboard-response","333","515601","0.0-1.0-434.0","0","0","25689","","null","","","null","48","","","","","","","","","","","","","","","",""
"","ISI","","html-keyboard-response","334","517621","0.0-1.0-435.0","0","0","25689","","null","","","null","48","NaN","","","","","","","","","","","","","","",""
"","S2","","html-keyboard-response","335","517892","0.0-1.0-436.0","0","0","25689","","null","","","null","48","","NaN","","","","","","","","","","","","","",""
"","response","","html-keyboard-response","336","518238","0.0-1.0-437.0-0.0","0","0","25689","","324","","","68","48","","","2","48","training","adjacent","AB","1","2","R.jpg","O.jpg","0","1","0","",""
"","feedback","","html-keyboard-response","337","519247","0.0-1.0-438.0-0.0","0","0","25689","","null","","","null","48","","","","","","","","","","","","","","","",""
"","time_out","","html-keyboard-response","338","521259","0.0-1.0-440.0-0.0","0","0","25689","","null","","","null","48","","","","","","","","","","","","","","","",""
"","ITI","","html-keyboard-response","339","522268","0.0-1.0-441.0","0","0","25689","","null","","","null","48","","","","","","","","","","","","","","","NaN",""
"","S1","","html-keyboard-response","340","522530","0.0-1.0-443.0","0","0","25689","","null","","","null","49","","","","","","","","","","","","","","","",""
"","ISI","","html-keyboard-response","341","524538","0.0-1.0-444.0","0","0","25689","","null","","","null","49","NaN","","","","","","","","","","","","","","",""
"","S2","","html-keyboard-response","342","524796","0.0-1.0-445.0","0","0","25689","","null","","","null","49","","NaN","","","","","","","","","","","","","",""
"","response","","html-keyboard-response","343","525171","0.0-1.0-446.0-0.0","0","0","25689","","368","","","75","49","","","2","49","training","adjacent","BC","2","3","O.jpg","L.jpg","1","1","1","",""
"","feedback","","html-keyboard-response","344","526180","0.0-1.0-447.0-0.0","0","0","25689","","null","","","null","49","","","","","","","","","","","","","","","",""
"","ITI","","html-keyboard-response","345","527187","0.0-1.0-450.0","0","0","25689","","null","","","null","49","","","","","","","","","","","","","","","NaN",""
"","S1","","html-keyboard-response","346","527445","0.0-1.0-452.0","0","0","25689","","null","","","null","50","","","","","","","","","","","","","","","",""
"","ISI","","html-keyboard-response","347","529453","0.0-1.0-453.0","0","0","25689","","null","","","null","50","NaN","","","","","","","","","","","","","","",""
"","S2","","html-keyboard-response","348","529711","0.0-1.0-454.0","0","0","25689","","null","","","null","50","","NaN","","","","","","","","","","","","","",""
"","response","","html-keyboard-response","349","529994","0.0-1.0-455.0-0.0","0","0","25689","","273","","","68","50","","","2","50","training","adjacent","GF","7","6","P.jpg","Q.jpg","0","0","1","",""
"","feedback","","html-keyboard-response","350","531006","0.0-1.0-456.0-0.0","0","0","25689","","null","","","null","50","","","","","","","","","","","","","","","",""
"","ITI","","html-keyboard-response","351","532017","0.0-1.0-459.0","0","0","25689","","null","","","null","50","","","","","","","","","","","","","","","NaN",""
"","S1","","html-keyboard-response","352","532281","0.0-1.0-461.0","0","0","25689","","null","","","null","51","","","","","","","","","","","","","","","",""
"","ISI","","html-keyboard-response","353","534290","0.0-1.0-462.0","0","0","25689","","null","","","null","51","NaN","","","","","","","","","","","","","","",""
"","S2","","html-keyboard-response","354","534552","0.0-1.0-463.0","0","0","25689","","null","","","null","51","","NaN","","","","","","","","","","","","","",""
"","response","","html-keyboard-response","355","534638","0.0-1.0-464.0-0.0","0","0","25689","","77","","","75","51","","","2","51","training","adjacent","FG","6","7","Q.jpg","P.jpg","1","1","1","",""
"","feedback","","html-keyboard-response","356","535656","0.0-1.0-465.0-0.0","0","0","25689","","null","","","null","51","","","","","","","","","","","","","","","",""
"","ITI","","html-keyboard-response","357","536673","0.0-1.0-468.0","0","0","25689","","null","","","null","51","","","","","","","","","","","","","","","NaN",""
"","S1","","html-keyboard-response","358","536931","0.0-1.0-470.0","0","0","25689","","null","","","null","52","","","","","","","","","","","","","","","",""
"","ISI","","html-keyboard-response","359","538959","0.0-1.0-471.0","0","0","25689","","null","","","null","52","NaN","","","","","","","","","","","","","","",""
"","S2","","html-keyboard-response","360","539239","0.0-1.0-472.0","0","0","25689","","null","","","null","52","","NaN","","","","","","","","","","","","","",""
"","response","","html-keyboard-response","361","539567","0.0-1.0-473.0-0.0","0","0","25689","","318","","","68","52","","","2","52","training","adjacent","CD","3","4","L.jpg","M.jpg","0","1","0","",""
"","feedback","","html-keyboard-response","362","540609","0.0-1.0-474.0-0.0","0","0","25689","","null","","","null","52","","","","","","","","","","","","","","","",""
"","time_out","","html-keyboard-response","363","542620","0.0-1.0-476.0-0.0","0","0","25689","","null","","","null","52","","","","","","","","","","","","","","","",""
"","ITI","","html-keyboard-response","364","543634","0.0-1.0-477.0","0","0","25689","","null","","","null","52","","","","","","","","","","","","","","","NaN",""
"","S1","","html-keyboard-response","365","543903","0.0-1.0-479.0","0","0","25689","","null","","","null","53","","","","","","","","","","","","","","","",""
"","ISI","","html-keyboard-response","366","545910","0.0-1.0-480.0","0","0","25689","","null","","","null","53","NaN","","","","","","","","","","","","","","",""
"","S2","","html-keyboard-response","367","546173","0.0-1.0-481.0","0","0","25689","","null","","","null","53","","NaN","","","","","","","","","","","","","",""
"","response","","html-keyboard-response","368","546468","0.0-1.0-482.0-0.0","0","0","25689","","277","","","75","53","","","2","53","training","adjacent","AB","1","2","R.jpg","O.jpg","1","1","1","",""
"","feedback","","html-keyboard-response","369","547490","0.0-1.0-483.0-0.0","0","0","25689","","null","","","null","53","","","","","","","","","","","","","","","",""
"","ITI","","html-keyboard-response","370","548498","0.0-1.0-486.0","0","0","25689","","null","","","null","53","","","","","","","","","","","","","","","NaN",""
"","S1","","html-keyboard-response","371","548767","0.0-1.0-488.0","0","0","25689","","null","","","null","54","","","","","","","","","","","","","","","",""
"","ISI","","html-keyboard-response","372","550775","0.0-1.0-489.0","0","0","25689","","null","","","null","54","NaN","","","","","","","","","","","","","","",""
"","S2","","html-keyboard-response","373","551035","0.0-1.0-490.0","0","0","25689","","null","","","null","54","","NaN","","","","","","","","","","","","","",""
"","response","","html-keyboard-response","374","551345","0.0-1.0-491.0-0.0","0","0","25689","","302","","","68","54","","","2","54","training","adjacent","DC","4","3","M.jpg","L.jpg","0","0","1","",""
"","feedback","","html-keyboard-response","375","552354","0.0-1.0-492.0-0.0","0","0","25689","","null","","","null","54","","","","","","","","","","","","","","","",""
"","ITI","","html-keyboard-response","376","553362","0.0-1.0-495.0","0","0","25689","","null","","","null","54","","","","","","","","","","","","","","","NaN",""
"","S1","","html-keyboard-response","377","553639","0.0-1.0-497.0","0","0","25689","","null","","","null","55","","","","","","","","","","","","","","","",""
"","ISI","","html-keyboard-response","378","555652","0.0-1.0-498.0","0","0","25689","","null","","","null","55","NaN","","","","","","","","","","","","","","",""
"","S2","","html-keyboard-response","379","555910","0.0-1.0-499.0","0","0","25689","","null","","","null","55","","NaN","","","","","","","","","","","","","",""
"","response","","html-keyboard-response","380","556025","0.0-1.0-500.0-0.0","0","0","25689","","106","","","75","55","","","2","55","training","adjacent","DE","4","5","M.jpg","N.jpg","1","1","1","",""
"","feedback","","html-keyboard-response","381","557036","0.0-1.0-501.0-0.0","0","0","25689","","null","","","null","55","","","","","","","","","","","","","","","",""
"","ITI","","html-keyboard-response","382","558044","0.0-1.0-504.0","0","0","25689","","null","","","null","55","","","","","","","","","","","","","","","NaN",""
"","S1","","html-keyboard-response","383","558304","0.0-1.0-506.0","0","0","25689","","null","","","null","56","","","","","","","","","","","","","","","",""
"","ISI","","html-keyboard-response","384","560317","0.0-1.0-507.0","0","0","25689","","null","","","null","56","NaN","","","","","","","","","","","","","","",""
"","S2","","html-keyboard-response","385","560589","0.0-1.0-508.0","0","0","25689","","null","","","null","56","","NaN","","","","","","","","","","","","","",""
"","response","","html-keyboard-response","386","560905","0.0-1.0-509.0-0.0","0","0","25689","","309","","","68","56","","","2","56","training","adjacent","FG","6","7","Q.jpg","P.jpg","0","1","0","",""
"","feedback","","html-keyboard-response","387","561914","0.0-1.0-510.0-0.0","0","0","25689","","null","","","null","56","","","","","","","","","","","","","","","",""
"","time_out","","html-keyboard-response","388","563923","0.0-1.0-512.0-0.0","0","0","25689","","null","","","null","56","","","","","","","","","","","","","","","",""
"","ITI","","html-keyboard-response","389","564931","0.0-1.0-513.0","0","0","25689","","null","","","null","56","","","","","","","","","","","","","","","NaN",""
"","S1","","html-keyboard-response","390","565198","0.0-1.0-515.0","0","0","25689","","null","","","null","57","","","","","","","","","","","","","","","",""
"","ISI","","html-keyboard-response","391","567205","0.0-1.0-516.0","0","0","25689","","null","","","null","57","NaN","","","","","","","","","","","","","","",""
"","S2","","html-keyboard-response","392","567462","0.0-1.0-517.0","0","0","25689","","null","","","null","57","","NaN","","","","","","","","","","","","","",""
"","response","","html-keyboard-response","393","567778","0.0-1.0-518.0-0.0","0","0","25689","","306","","","75","57","","","2","57","training","adjacent","BC","2","3","O.jpg","L.jpg","1","1","1","",""
"","feedback","","html-keyboard-response","394","568798","0.0-1.0-519.0-0.0","0","0","25689","","null","","","null","57","","","","","","","","","","","","","","","",""
"","ITI","","html-keyboard-response","395","569808","0.0-1.0-522.0","0","0","25689","","null","","","null","57","","","","","","","","","","","","","","","NaN",""
"","S1","","html-keyboard-response","396","570068","0.0-1.0-524.0","0","0","25689","","null","","","null","58","","","","","","","","","","","","","","","",""
"","ISI","","html-keyboard-response","397","572078","0.0-1.0-525.0","0","0","25689","","null","","","null","58","NaN","","","","","","","","","","","","","","",""
"","S2","","html-keyboard-response","398","572336","0.0-1.0-526.0","0","0","25689","","null","","","null","58","","NaN","","","","","","","","","","","","","",""
"","response","","html-keyboard-response","399","572725","0.0-1.0-527.0-0.0","0","0","25689","","378","","","68","58","","","2","58","training","adjacent","EF","5","6","N.jpg","Q.jpg","0","1","0","",""
"","feedback","","html-keyboard-response","400","573746","0.0-1.0-528.0-0.0","0","0","25689","","null","","","null","58","","","","","","","","","","","","","","","",""
"","time_out","","html-keyboard-response","401","575762","0.0-1.0-530.0-0.0","0","0","25689","","null","","","null","58","","","","","","","","","","","","","","","",""
"","ITI","","html-keyboard-response","402","576771","0.0-1.0-531.0","0","0","25689","","null","","","null","58","","","","","","","","","","","","","","","NaN",""
"","S1","","html-keyboard-response","403","577106","0.0-1.0-533.0","0","0","25689","","null","","","null","59","","","","","","","","","","","","","","","",""
"","ISI","","html-keyboard-response","404","579116","0.0-1.0-534.0","0","0","25689","","null","","","null","59","NaN","","","","","","","","","","","","","","",""
"","S2","","html-keyboard-response","405","579377","0.0-1.0-535.0","0","0","25689","","null","","","null","59","","NaN","","","","","","","","","","","","","",""
"","response","","html-keyboard-response","406","579716","0.0-1.0-536.0-0.0","0","0","25689","","330","","","75","59","","","2","59","training","adjacent","EF","5","6","N.jpg","Q.jpg","1","1","1","",""
"","feedback","","html-keyboard-response","407","580731","0.0-1.0-537.0-0.0","0","0","25689","","null","","","null","59","","","","","","","","","","","","","","","",""
"","ITI","","html-keyboard-response","408","581739","0.0-1.0-540.0","0","0","25689","","null","","","null","59","","","","","","","","","","","","","","","NaN",""
"","S1","","html-keyboard-response","409","582002","0.0-1.0-542.0","0","0","25689","","null","","","null","60","","","","","","","","","","","","","","","",""
"","ISI","","html-keyboard-response","410","584009","0.0-1.0-543.0","0","0","25689","","null","","","null","60","NaN","","","","","","","","","","","","","","",""
"","S2","","html-keyboard-response","411","584268","0.0-1.0-544.0","0","0","25689","","null","","","null","60","","NaN","","","","","","","","","","","","","",""
"","response","","html-keyboard-response","412","584393","0.0-1.0-545.0-0.0","0","0","25689","","115","","","68","60","","","2","60","training","adjacent","DC","4","3","M.jpg","L.jpg","0","0","1","",""
"","feedback","","html-keyboard-response","413","585411","0.0-1.0-546.0-0.0","0","0","25689","","null","","","null","60","","","","","","","","","","","","","","","",""
"","ITI","","html-keyboard-response","414","586421","0.0-1.0-549.0","0","0","25689","","null","","","null","60","","","","","","","","","","","","","","","NaN",""
"","S1","","html-keyboard-response","415","586680","0.0-1.0-551.0","0","0","25689","","null","","","null","61","","","","","","","","","","","","","","","",""
"","ISI","","html-keyboard-response","416","588689","0.0-1.0-552.0","0","0","25689","","null","","","null","61","NaN","","","","","","","","","","","","","","",""
"","S2","","html-keyboard-response","417","588950","0.0-1.0-553.0","0","0","25689","","null","","","null","61","","NaN","","","","","","","","","","","","","",""
"","response","","html-keyboard-response","418","589268","0.0-1.0-554.0-0.0","0","0","25689","","307","","","75","61","","","2","61","training","adjacent","BA","2","1","O.jpg","R.jpg","1","0","0","",""
"","feedback","","html-keyboard-response","419","590278","0.0-1.0-555.0-0.0","0","0","25689","","null","","","null","61","","","","","","","","","","","","","","","",""
"","time_out","","html-keyboard-response","420","592292","0.0-1.0-557.0-0.0","0","0","25689","","null","","","null","61","","","","","","","","","","","","","","","",""
"","ITI","","html-keyboard-response","421","593318","0.0-1.0-558.0","0","0","25689","","null","","","null","61","","","","","","","","","","","","","","","NaN",""
"","S1","","html-keyboard-response","422","593577","0.0-1.0-560.0","0","0","25689","","null","","","null","62","","","","","","","","","","","","","","","",""
"","ISI","","html-keyboard-response","423","595586","0.0-1.0-561.0","0","0","25689","","null","","","null","62","NaN","","","","","","","","","","","","","","",""
"","S2","","html-keyboard-response","424","595852","0.0-1.0-562.0","0","0","25689","","null","","","null","62","","NaN","","","","","","","","","","","","","",""
"","response","","html-keyboard-response","425","596448","0.0-1.0-563.0-0.0","0","0","25689","","585","","","68","62","","","2","62","training","adjacent","GF","7","6","P.jpg","Q.jpg","0","0","1","",""
"","feedback","","html-keyboard-response","426","597469","0.0-1.0-564.0-0.0","0","0","25689","","null","","","null","62","","","","","","","","","","","","","","","",""
"","ITI","","html-keyboard-response","427","598482","0.0-1.0-567.0","0","0","25689","","null","","","null","62","","","","","","","","","","","","","","","NaN",""
"","S1","","html-keyboard-response","428","598739","0.0-1.0-569.0","0","0","25689","","null","","","null","63","","","","","","","","","","","","","","","",""
"","ISI","","html-keyboard-response","429","600764","0.0-1.0-570.0","0","0","25689","","null","","","null","63","NaN","","","","","","","","","","","","","","",""
"","S2","","html-keyboard-response","430","601035","0.0-1.0-571.0","0","0","25689","","null","","","null","63","","NaN","","","","","","","","","","","","","",""
"","response","","html-keyboard-response","431","601359","0.0-1.0-572.0-0.0","0","0","25689","","314","","","75","63","","","2","63","training","adjacent","BC","2","3","O.jpg","L.jpg","1","1","1","",""
"","feedback","","html-keyboard-response","432","602390","0.0-1.0-573.0-0.0","0","0","25689","","null","","","null","63","","","","","","","","","","","","","","","",""
"","ITI","","html-keyboard-response","433","603398","0.0-1.0-576.0","0","0","25689","","null","","","null","63","","","","","","","","","","","","","","","NaN",""
"","S1","","html-keyboard-response","434","603656","0.0-1.0-578.0","0","0","25689","","null","","","null","64","","","","","","","","","","","","","","","",""
"","ISI","","html-keyboard-response","435","605665","0.0-1.0-579.0","0","0","25689","","null","","","null","64","NaN","","","","","","","","","","","","","","",""
"","S2","","html-keyboard-response","436","605933","0.0-1.0-580.0","0","0","25689","","null","","","null","64","","NaN","","","","","","","","","","","","","",""
"","response","","html-keyboard-response","437","606321","0.0-1.0-581.0-0.0","0","0","25689","","370","","","68","64","","","2","64","training","adjacent","CD","3","4","L.jpg","M.jpg","0","1","0","",""
"","feedback","","html-keyboard-response","438","607330","0.0-1.0-582.0-0.0","0","0","25689","","null","","","null","64","","","","","","","","","","","","","","","",""
"","time_out","","html-keyboard-response","439","609341","0.0-1.0-584.0-0.0","0","0","25689","","null","","","null","64","","","","","","","","","","","","","","","",""
"","ITI","","html-keyboard-response","440","610350","0.0-1.0-585.0","0","0","25689","","null","","","null","64","","","","","","","","","","","","","","","NaN",""
"","S1","","html-keyboard-response","441","610611","0.0-1.0-587.0","0","0","25689","","null","","","null","65","","","","","","","","","","","","","","","",""
"","ISI","","html-keyboard-response","442","612621","0.0-1.0-588.0","0","0","25689","","null","","","null","65","NaN","","","","","","","","","","","","","","",""
"","S2","","html-keyboard-response","443","612881","0.0-1.0-589.0","0","0","25689","","null","","","null","65","","NaN","","","","","","","","","","","","","",""
"","response","","html-keyboard-response","444","613037","0.0-1.0-590.0-0.0","0","0","25689","","147","","","75","65","","","2","65","training","adjacent","ED","5","4","N.jpg","M.jpg","1","0","0","",""
"","feedback","","html-keyboard-response","445","614046","0.0-1.0-591.0-0.0","0","0","25689","","null","","","null","65","","","","","","","","","","","","","","","",""
"","time_out","","html-keyboard-response","446","616057","0.0-1.0-593.0-0.0","0","0","25689","","null","","","null","65","","","","","","","","","","","","","","","",""
"","ITI","","html-keyboard-response","447","617064","0.0-1.0-594.0","0","0","25689","","null","","","null","65","","","","","","","","","","","","","","","NaN",""
"","S1","","html-keyboard-response","448","617325","0.0-1.0-596.0","0","0","25689","","null","","","null","66","","","","","","","","","","","","","","","",""
"","ISI","","html-keyboard-response","449","619339","0.0-1.0-597.0","0","0","25689","","null","","","null","66","NaN","","","","","","","","","","","","","","",""
"","S2","","html-keyboard-response","450","619601","0.0-1.0-598.0","0","0","25689","","null","","","null","66","","NaN","","","","","","","","","","","","","",""
"","response","","html-keyboard-response","451","619906","0.0-1.0-599.0-0.0","0","0","25689","","296","","","68","66","","","2","66","training","adjacent","ED","5","4","N.jpg","M.jpg","0","0","1","",""
"","feedback","","html-keyboard-response","452","620942","0.0-1.0-600.0-0.0","0","0","25689","","null","","","null","66","","","","","","","","","","","","","","","",""
"","ITI","","html-keyboard-response","453","621954","0.0-1.0-603.0","0","0","25689","","null","","","null","66","","","","","","","","","","","","","","","NaN",""
"","S1","","html-keyboard-response","454","622211","0.0-1.0-605.0","0","0","25689","","null","","","null","67","","","","","","","","","","","","","","","",""
"","ISI","","html-keyboard-response","455","624220","0.0-1.0-606.0","0","0","25689","","null","","","null","67","NaN","","","","","","","","","","","","","","",""
"","S2","","html-keyboard-response","456","624479","0.0-1.0-607.0","0","0","25689","","null","","","null","67","","NaN","","","","","","","","","","","","","",""
"","response","","html-keyboard-response","457","624579","0.0-1.0-608.0-0.0","0","0","25689","","92","","","75","67","","","2","67","training","adjacent","BC","2","3","O.jpg","L.jpg","1","1","1","",""
"","feedback","","html-keyboard-response","458","625595","0.0-1.0-609.0-0.0","0","0","25689","","null","","","null","67","","","","","","","","","","","","","","","",""
"","ITI","","html-keyboard-response","459","626609","0.0-1.0-612.0","0","0","25689","","null","","","null","67","","","","","","","","","","","","","","","NaN",""
"","S1","","html-keyboard-response","460","626867","0.0-1.0-614.0","0","0","25689","","null","","","null","68","","","","","","","","","","","","","","","",""
"","ISI","","html-keyboard-response","461","628876","0.0-1.0-615.0","0","0","25689","","null","","","null","68","NaN","","","","","","","","","","","","","","",""
"","S2","","html-keyboard-response","462","629135","0.0-1.0-616.0","0","0","25689","","null","","","null","68","","NaN","","","","","","","","","","","","","",""
"","response","","html-keyboard-response","463","629434","0.0-1.0-617.0-0.0","0","0","25689","","287","","","68","68","","","2","68","training","adjacent","AB","1","2","R.jpg","O.jpg","0","1","0","",""
"","feedback","","html-keyboard-response","464","630446","0.0-1.0-618.0-0.0","0","0","25689","","null","","","null","68","","","","","","","","","","","","","","","",""
"","time_out","","html-keyboard-response","465","632455","0.0-1.0-620.0-0.0","0","0","25689","","null","","","null","68","","","","","","","","","","","","","","","",""
"","ITI","","html-keyboard-response","466","633463","0.0-1.0-621.0","0","0","25689","","null","","","null","68","","","","","","","","","","","","","","","NaN",""
"","S1","","html-keyboard-response","467","633722","0.0-1.0-623.0","0","0","25689","","null","","","null","69","","","","","","","","","","","","","","","",""
"","ISI","","html-keyboard-response","468","635740","0.0-1.0-624.0","0","0","25689","","null","","","null","69","NaN","","","","","","","","","","","","","","",""
"","S2","","html-keyboard-response","469","636001","0.0-1.0-625.0","0","0","25689","","null","","","null","69","","NaN","","","","","","","","","","","","","",""
"","response","","html-keyboard-response","470","636294","0.0-1.0-626.0-0.0","0","0","25689","","285","","","75","69","","","2","69","training","adjacent","FG","6","7","Q.jpg","P.jpg","1","1","1","",""
"","feedback","","html-keyboard-response","471","637306","0.0-1.0-627.0-0.0","0","0","25689","","null","","","null","69","","","","","","","","","","","","","","","",""
"","ITI","","html-keyboard-response","472","638322","0.0-1.0-630.0","0","0","25689","","null","","","null","69","","","","","","","","","","","","","","","NaN",""
"","S1","","html-keyboard-response","473","638594","0.0-1.0-632.0","0","0","25689","","null","","","null","70","","","","","","","","","","","","","","","",""
"","ISI","","html-keyboard-response","474","640603","0.0-1.0-633.0","0","0","25689","","null","","","null","70","NaN","","","","","","","","","","","","","","",""
"","S2","","html-keyboard-response","475","640863","0.0-1.0-634.0","0","0","25689","","null","","","null","70","","NaN","","","","","","","","","","","","","",""
"","response","","html-keyboard-response","476","641148","0.0-1.0-635.0-0.0","0","0","25689","","274","","","68","70","","","2","70","training","adjacent","BA","2","1","O.jpg","R.jpg","0","0","1","",""
"","feedback","","html-keyboard-response","477","642157","0.0-1.0-636.0-0.0","0","0","25689","","null","","","null","70","","","","","","","","","","","","","","","",""
"","ITI","","html-keyboard-response","478","643167","0.0-1.0-639.0","0","0","25689","","null","","","null","70","","","","","","","","","","","","","","","NaN",""
"","S1","","html-keyboard-response","479","643426","0.0-1.0-641.0","0","0","25689","","null","","","null","71","","","","","","","","","","","","","","","",""
"","ISI","","html-keyboard-response","480","645435","0.0-1.0-642.0","0","0","25689","","null","","","null","71","NaN","","","","","","","","","","","","","","",""
"","S2","","html-keyboard-response","481","645694","0.0-1.0-643.0","0","0","25689","","null","","","null","71","","NaN","","","","","","","","","","","","","",""
"","response","","html-keyboard-response","482","645944","0.0-1.0-644.0-0.0","0","0","25689","","242","","","75","71","","","2","71","training","adjacent","ED","5","4","N.jpg","M.jpg","1","0","0","",""
"","feedback","","html-keyboard-response","483","646955","0.0-1.0-645.0-0.0","0","0","25689","","null","","","null","71","","","","","","","","","","","","","","","",""
"","time_out","","html-keyboard-response","484","648963","0.0-1.0-647.0-0.0","0","0","25689","","null","","","null","71","","","","","","","","","","","","","","","",""
"","ITI","","html-keyboard-response","485","649971","0.0-1.0-648.0","0","0","25689","","null","","","null","71","","","","","","","","","","","","","","","NaN",""
"","S1","","html-keyboard-response","486","650232","0.0-1.0-650.0","0","0","25689","","null","","","null","72","","","","","","","","","","","","","","","",""
"","ISI","","html-keyboard-response","487","652241","0.0-1.0-651.0","0","0","25689","","null","","","null","72","NaN","","","","","","","","","","","","","","",""
"","S2","","html-keyboard-response","488","652510","0.0-1.0-652.0","0","0","25689","","null","","","null","72","","NaN","","","","","","","","","","","","","",""
"","response","","html-keyboard-response","489","652821","0.0-1.0-653.0-0.0","0","0","25689","","301","","","68","72","","","2","72","training","adjacent","FE","6","5","Q.jpg","N.jpg","0","0","1","",""
"","feedback","","html-keyboard-response","490","653839","0.0-1.0-654.0-0.0","0","0","25689","","null","","","null","72","","","","","","","","","","","","","","","",""
"","ITI","","html-keyboard-response","491","654850","0.0-1.0-657.0","0","0","25689","","null","","","null","72","","","","","","","","","","","","","","","NaN",""
"","S1","","html-keyboard-response","492","655108","0.0-1.0-659.0","0","0","25689","","null","","","null","73","","","","","","","","","","","","","","","",""
"","ISI","","html-keyboard-response","493","657120","0.0-1.0-660.0","0","0","25689","","null","","","null","73","NaN","","","","","","","","","","","","","","",""
"","S2","","html-keyboard-response","494","657379","0.0-1.0-661.0","0","0","25689","","null","","","null","73","","NaN","","","","","","","","","","","","","",""
"","response","","html-keyboard-response","495","657724","0.0-1.0-662.0-0.0","0","0","25689","","336","","","75","73","","","2","73","training","adjacent","CD","3","4","L.jpg","M.jpg","1","1","1","",""
"","feedback","","html-keyboard-response","496","658734","0.0-1.0-663.0-0.0","0","0","25689","","null","","","null","73","","","","","","","","","","","","","","","",""
"","ITI","","html-keyboard-response","497","659744","0.0-1.0-666.0","0","0","25689","","null","","","null","73","","","","","","","","","","","","","","","NaN",""
"","S1","","html-keyboard-response","498","660025","0.0-1.0-668.0","0","0","25689","","null","","","null","74","","","","","","","","","","","","","","","",""
"","ISI","","html-keyboard-response","499","662038","0.0-1.0-669.0","0","0","25689","","null","","","null","74","NaN","","","","","","","","","","","","","","",""
"","S2","","html-keyboard-response","500","662299","0.0-1.0-670.0","0","0","25689","","null","","","null","74","","NaN","","","","","","","","","","","","","",""
"","response","","html-keyboard-response","501","662630","0.0-1.0-671.0-0.0","0","0","25689","","322","","","68","74","","","2","74","training","adjacent","BA","2","1","O.jpg","R.jpg","0","0","1","",""
"","feedback","","html-keyboard-response","502","663639","0.0-1.0-672.0-0.0","0","0","25689","","null","","","null","74","","","","","","","","","","","","","","","",""
"","ITI","","html-keyboard-response","503","664650","0.0-1.0-675.0","0","0","25689","","null","","","null","74","","","","","","","","","","","","","","","NaN",""
"","S1","","html-keyboard-response","504","664910","0.0-1.0-677.0","0","0","25689","","null","","","null","75","","","","","","","","","","","","","","","",""
"","ISI","","html-keyboard-response","505","666921","0.0-1.0-678.0","0","0","25689","","null","","","null","75","NaN","","","","","","","","","","","","","","",""
"","S2","","html-keyboard-response","506","667180","0.0-1.0-679.0","0","0","25689","","null","","","null","75","","NaN","","","","","","","","","","","","","",""
"","response","","html-keyboard-response","507","667489","0.0-1.0-680.0-0.0","0","0","25689","","292","","","75","75","","","2","75","training","adjacent","DC","4","3","M.jpg","L.jpg","1","0","0","",""
"","feedback","","html-keyboard-response","508","668502","0.0-1.0-681.0-0.0","0","0","25689","","null","","","null","75","","","","","","","","","","","","","","","",""
"","time_out","","html-keyboard-response","509","670515","0.0-1.0-683.0-0.0","0","0","25689","","null","","","null","75","","","","","","","","","","","","","","","",""
"","ITI","","html-keyboard-response","510","671535","0.0-1.0-684.0","0","0","25689","","null","","","null","75","","","","","","","","","","","","","","","NaN",""
"","S1","","html-keyboard-response","511","671795","0.0-1.0-686.0","0","0","25689","","null","","","null","76","","","","","","","","","","","","","","","",""
"","ISI","","html-keyboard-response","512","673802","0.0-1.0-687.0","0","0","25689","","null","","","null","76","NaN","","","","","","","","","","","","","","",""
"","S2","","html-keyboard-response","513","674062","0.0-1.0-688.0","0","0","25689","","null","","","null","76","","NaN","","","","","","","","","","","","","",""
"","response","","html-keyboard-response","514","674391","0.0-1.0-689.0-0.0","0","0","25689","","318","","","68","76","","","2","76","training","adjacent","CD","3","4","L.jpg","M.jpg","0","1","0","",""
"","feedback","","html-keyboard-response","515","675400","0.0-1.0-690.0-0.0","0","0","25689","","null","","","null","76","","","","","","","","","","","","","","","",""
"","time_out","","html-keyboard-response","516","677414","0.0-1.0-692.0-0.0","0","0","25689","","null","","","null","76","","","","","","","","","","","","","","","",""
"","ITI","","html-keyboard-response","517","678424","0.0-1.0-693.0","0","0","25689","","null","","","null","76","","","","","","","","","","","","","","","NaN",""
"","S1","","html-keyboard-response","518","678689","0.0-1.0-695.0","0","0","25689","","null","","","null","77","","","","","","","","","","","","","","","",""
"","ISI","","html-keyboard-response","519","680697","0.0-1.0-696.0","0","0","25689","","null","","","null","77","NaN","","","","","","","","","","","","","","",""
"","S2","","html-keyboard-response","520","680969","0.0-1.0-697.0","0","0","25689","","null","","","null","77","","NaN","","","","","","","","","","","","","",""
"","response","","html-keyboard-response","521","681048","0.0-1.0-698.0-0.0","0","0","25689","","68","","","75","77","","","2","77","training","adjacent","DE","4","5","M.jpg","N.jpg","1","1","1","",""
"","feedback","","html-keyboard-response","522","682062","0.0-1.0-699.0-0.0","0","0","25689","","null","","","null","77","","","","","","","","","","","","","","","",""
"","ITI","","html-keyboard-response","523","683071","0.0-1.0-702.0","0","0","25689","","null","","","null","77","","","","","","","","","","","","","","","NaN",""
"","S1","","html-keyboard-response","524","683331","0.0-1.0-704.0","0","0","25689","","null","","","null","78","","","","","","","","","","","","","","","",""
"","ISI","","html-keyboard-response","525","685341","0.0-1.0-705.0","0","0","25689","","null","","","null","78","NaN","","","","","","","","","","","","","","",""
"","S2","","html-keyboard-response","526","685598","0.0-1.0-706.0","0","0","25689","","null","","","null","78","","NaN","","","","","","","","","","","","","",""
"","response","","html-keyboard-response","527","685977","0.0-1.0-707.0-0.0","0","0","25689","","371","","","68","78","","","2","78","training","adjacent","EF","5","6","N.jpg","Q.jpg","0","1","0","",""
"","feedback","","html-keyboard-response","528","686987","0.0-1.0-708.0-0.0","0","0","25689","","null","","","null","78","","","","","","","","","","","","","","","",""
"","time_out","","html-keyboard-response","529","688995","0.0-1.0-710.0-0.0","0","0","25689","","null","","","null","78","","","","","","","","","","","","","","","",""
"","ITI","","html-keyboard-response","530","690004","0.0-1.0-711.0","0","0","25689","","null","","","null","78","","","","","","","","","","","","","","","NaN",""
"","S1","","html-keyboard-response","531","690268","0.0-1.0-713.0","0","0","25689","","null","","","null","79","","","","","","","","","","","","","","","",""
"","ISI","","html-keyboard-response","532","692276","0.0-1.0-714.0","0","0","25689","","null","","","null","79","NaN","","","","","","","","","","","","","","",""
"","S2","","html-keyboard-response","533","692544","0.0-1.0-715.0","0","0","25689","","null","","","null","79","","NaN","","","","","","","","","","","","","",""
"","response","","html-keyboard-response","534","692897","0.0-1.0-716.0-0.0","0","0","25689","","338","","","75","79","","","2","79","training","adjacent","DE","4","5","M.jpg","N.jpg","1","1","1","",""
"","feedback","","html-keyboard-response","535","693915","0.0-1.0-717.0-0.0","0","0","25689","","null","","","null","79","","","","","","","","","","","","","","","",""
"","ITI","","html-keyboard-response","536","694930","0.0-1.0-720.0","0","0","25689","","null","","","null","79","","","","","","","","","","","","","","","NaN",""
"","S1","","html-keyboard-response","537","695196","0.0-1.0-722.0","0","0","25689","","null","","","null","80","","","","","","","","","","","","","","","",""
"","ISI","","html-keyboard-response","538","697205","0.0-1.0-723.0","0","0","25689","","null","","","null","80","NaN","","","","","","","","","","","","","","",""
"","S2","","html-keyboard-response","539","697474","0.0-1.0-724.0","0","0","25689","","null","","","null","80","","NaN","","","","","","","","","","","","","",""
"","response","","html-keyboard-response","540","697830","0.0-1.0-725.0-0.0","0","0","25689","","347","","","68","80","","","2","80","training","adjacent","GF","7","6","P.jpg","Q.jpg","0","0","1","",""
"","feedback","","html-keyboard-response","541","698853","0.0-1.0-726.0-0.0","0","0","25689","","null","","","null","80","","","","","","","","","","","","","","","",""
"","ITI","","html-keyboard-response","542","699874","0.0-1.0-729.0","0","0","25689","","null","","","null","80","","","","","","","","","","","","","","","NaN",""
"","S1","","html-keyboard-response","543","700132","0.0-1.0-731.0","0","0","25689","","null","","","null","81","","","","","","","","","","","","","","","",""
"","ISI","","html-keyboard-response","544","702145","0.0-1.0-732.0","0","0","25689","","null","","","null","81","NaN","","","","","","","","","","","","","","",""
"","S2","","html-keyboard-response","545","702412","0.0-1.0-733.0","0","0","25689","","null","","","null","81","","NaN","","","","","","","","","","","","","",""
"","response","","html-keyboard-response","546","702744","0.0-1.0-734.0-0.0","0","0","25689","","319","","","75","81","","","2","81","training","adjacent","FE","6","5","Q.jpg","N.jpg","1","0","0","",""
"","feedback","","html-keyboard-response","547","703756","0.0-1.0-735.0-0.0","0","0","25689","","null","","","null","81","","","","","","","","","","","","","","","",""
"","time_out","","html-keyboard-response","548","705764","0.0-1.0-737.0-0.0","0","0","25689","","null","","","null","81","","","","","","","","","","","","","","","",""
"","ITI","","html-keyboard-response","549","706772","0.0-1.0-738.0","0","0","25689","","null","","","null","81","","","","","","","","","","","","","","","NaN",""
"","S1","","html-keyboard-response","550","707032","0.0-1.0-740.0","0","0","25689","","null","","","null","82","","","","","","","","","","","","","","","",""
"","ISI","","html-keyboard-response","551","709040","0.0-1.0-741.0","0","0","25689","","null","","","null","82","NaN","","","","","","","","","","","","","","",""
"","S2","","html-keyboard-response","552","709306","0.0-1.0-742.0","0","0","25689","","null","","","null","82","","NaN","","","","","","","","","","","","","",""
"","response","","html-keyboard-response","553","709665","0.0-1.0-743.0-0.0","0","0","25689","","342","","","68","82","","","2","82","training","adjacent","FE","6","5","Q.jpg","N.jpg","0","0","1","",""
"","feedback","","html-keyboard-response","554","710681","0.0-1.0-744.0-0.0","0","0","25689","","null","","","null","82","","","","","","","","","","","","","","","",""
"","ITI","","html-keyboard-response","555","711690","0.0-1.0-747.0","0","0","25689","","null","","","null","82","","","","","","","","","","","","","","","NaN",""
"","S1","","html-keyboard-response","556","711948","0.0-1.0-749.0","0","0","25689","","null","","","null","83","","","","","","","","","","","","","","","",""
"","ISI","","html-keyboard-response","557","713959","0.0-1.0-750.0","0","0","25689","","null","","","null","83","NaN","","","","","","","","","","","","","","",""
"","S2","","html-keyboard-response","558","714232","0.0-1.0-751.0","0","0","25689","","null","","","null","83","","NaN","","","","","","","","","","","","","",""
"","response","","html-keyboard-response","559","714611","0.0-1.0-752.0-0.0","0","0","25689","","371","","","75","83","","","2","83","training","adjacent","CB","3","2","L.jpg","O.jpg","1","0","0","",""
"","feedback","","html-keyboard-response","560","715621","0.0-1.0-753.0-0.0","0","0","25689","","null","","","null","83","","","","","","","","","","","","","","","",""
"","time_out","","html-keyboard-response","561","717629","0.0-1.0-755.0-0.0","0","0","25689","","null","","","null","83","","","","","","","","","","","","","","","",""
"","ITI","","html-keyboard-response","562","718639","0.0-1.0-756.0","0","0","25689","","null","","","null","83","","","","","","","","","","","","","","","NaN",""
"","S1","","html-keyboard-response","563","718901","0.0-1.0-758.0","0","0","25689","","null","","","null","84","","","","","","","","","","","","","","","",""
"","ISI","","html-keyboard-response","564","720911","0.0-1.0-759.0","0","0","25689","","null","","","null","84","NaN","","","","","","","","","","","","","","",""
"","S2","","html-keyboard-response","565","721170","0.0-1.0-760.0","0","0","25689","","null","","","null","84","","NaN","","","","","","","","","","","","","",""
"","response","","html-keyboard-response","566","721497","0.0-1.0-761.0-0.0","0","0","25689","","317","","","68","84","","","2","84","training","adjacent","CB","3","2","L.jpg","O.jpg","0","0","1","",""
"","feedback","","html-keyboard-response","567","722523","0.0-1.0-762.0-0.0","0","0","25689","","null","","","null","84","","","","","","","","","","","","","","","",""
"","ITI","","html-keyboard-response","568","723540","0.0-1.0-765.0","0","0","25689","","null","","","null","84","","","","","","","","","","","","","","","NaN",""
"","S1","","html-keyboard-response","569","723800","0.0-1.0-767.0","0","0","25689","","null","","","null","85","","","","","","","","","","","","","","","",""
"","ISI","","html-keyboard-response","570","725822","0.0-1.0-768.0","0","0","25689","","null","","","null","85","NaN","","","","","","","","","","","","","","",""
"","S2","","html-keyboard-response","571","726089","0.0-1.0-769.0","0","0","25689","","null","","","null","85","","NaN","","","","","","","","","","","","","",""
"","response","","html-keyboard-response","572","726442","0.0-1.0-770.0-0.0","0","0","25689","","340","","","75","85","","","2","85","training","adjacent","FG","6","7","Q.jpg","P.jpg","1","1","1","",""
"","feedback","","html-keyboard-response","573","727457","0.0-1.0-771.0-0.0","0","0","25689","","null","","","null","85","","","","","","","","","","","","","","","",""
"","ITI","","html-keyboard-response","574","728475","0.0-1.0-774.0","0","0","25689","","null","","","null","85","","","","","","","","","","","","","","","NaN",""
"","S1","","html-keyboard-response","575","728744","0.0-1.0-776.0","0","0","25689","","null","","","null","86","","","","","","","","","","","","","","","",""
"","ISI","","html-keyboard-response","576","730754","0.0-1.0-777.0","0","0","25689","","null","","","null","86","NaN","","","","","","","","","","","","","","",""
"","S2","","html-keyboard-response","577","731013","0.0-1.0-778.0","0","0","25689","","null","","","null","86","","NaN","","","","","","","","","","","","","",""
