"success","ttype","start_time","trial_type","trial_index","time_elapsed","internal_node_id","warning","missed_checkup","PID","view_history","rt","responses","repeat_instructions","key_press","index","keypress_isi","keypress_S2","block","trial_num","phase","group_type","pair_type","S1_stim","S2_stim","S1_img","S2_img","S1_chosen","S1_higher","accuracy","keypress_iti","total_bonus_tally"
"true","full_screen","d04062023hr1755","fullscreen","0","24727","0.0-0.0","0","0","18487","","","","","","","","","","","","","","","","","","","","","",""
"","instructions","","instructions","1","68167","0.0-1.0-0.0-0.0","0","0","18487","[{""page_index"":0,""viewing_time"":4571},{""page_index"":1,""viewing_time"":26009},{""page_index"":2,""viewing_time"":10544},{""page_index"":3,""viewing_time"":2312}]","43437","","","","","","","","","","","","","","","","","","","",""
"","comprehension_check","","survey-multi-choice","2","93614","0.0-1.0-0.0-1.0","0","0","18487","","25442","{""Q0"":""True"",""Q1"":""K"",""Q2"":""Once the second image appears and while the screen 'MAKE A CHOICE' is shown"",""Q3"":""Green mark"",""Q4"":""either D or K""}","0","","","","","","","","","","","","","","","","","",""
"","start_exp","","html-keyboard-response","3","96164","0.0-1.0-1.0","0","0","18487","","2546","","","32","","","","","","","","","","","","","","","","",""
"","S1","","html-keyboard-response","4","96323","0.0-1.0-2.0","0","0","18487","","null","","","null","0","","","","","","","","","","","","","","","",""
"","ISI","","html-keyboard-response","5","98329","0.0-1.0-3.0","0","0","18487","","null","","","null","0","NaN","","","","","","","","","","","","","","",""
"","S2","","html-keyboard-response","6","98489","0.0-1.0-4.0","0","0","18487","","null","","","null","0","","NaN","","","","","","","","","","","","","",""
"","response","","html-keyboard-response","7","99748","0.0-1.0-5.0-0.0","0","0","18487","","1257","","","68","0","","","1","0","training","adjacent","BA","2","1","Q.jpg","L.jpg","0","0","1","",""
"","feedback","","html-keyboard-response","8","100761","0.0-1.0-6.0-0.0","0","0","18487","","null","","","null","0","","","","","","","","","","","","","","","",""
"","ITI","","html-keyboard-response","9","101769","0.0-1.0-9.0","0","0","18487","","null","","","null","0","","","","","","","","","","","","","","","NaN",""
"","S1","","html-keyboard-response","10","101929","0.0-1.0-11.0","0","0","18487","","null","","","null","1","","","","","","","","","","","","","","","",""
"","ISI","","html-keyboard-response","11","103939","0.0-1.0-12.0","0","0","18487","","null","","","null","1","NaN","","","","","","","","","","","","","","",""
"","S2","","html-keyboard-response","12","104100","0.0-1.0-13.0","0","0","18487","","null","","","null","1","","NaN","","","","","","","","","","","","","",""
"","response","","html-keyboard-response","13","105234","0.0-1.0-14.0-0.0","0","0","18487","","1132","","","75","1","","","1","1","training","adjacent","BC","2","3","Q.jpg","M.jpg","1","1","1","",""
"","feedback","","html-keyboard-response","14","106244","0.0-1.0-15.0-0.0","0","0","18487","","null","","","null","1","","","","","","","","","","","","","","","",""
"","ITI","","html-keyboard-response","15","107250","0.0-1.0-18.0","0","0","18487","","null","","","null","1","","","","","","","","","","","","","","","NaN",""
"","S1","","html-keyboard-response","16","107412","0.0-1.0-20.0","0","0","18487","","null","","","null","2","","","","","","","","","","","","","","","",""
"","ISI","","html-keyboard-response","17","109417","0.0-1.0-21.0","0","0","18487","","null","","","null","2","NaN","","","","","","","","","","","","","","",""
"","S2","","html-keyboard-response","18","109576","0.0-1.0-22.0","0","0","18487","","null","","","null","2","","NaN","","","","","","","","","","","","","",""
"","response","","html-keyboard-response","19","110337","0.0-1.0-23.0-0.0","0","0","18487","","759","","","68","2","","","1","2","training","adjacent","AB","1","2","L.jpg","Q.jpg","0","1","0","",""
"","feedback","","html-keyboard-response","20","111349","0.0-1.0-24.0-0.0","0","0","18487","","null","","","null","2","","","","","","","","","","","","","","","",""
"","time_out","","html-keyboard-response","21","113353","0.0-1.0-26.0-0.0","0","0","18487","","null","","","null","2","","","","","","","","","","","","","","","",""
"","ITI","","html-keyboard-response","22","114360","0.0-1.0-27.0","0","0","18487","","null","","","null","2","","","","","","","","","","","","","","","NaN",""
"","S1","","html-keyboard-response","23","114521","0.0-1.0-29.0","0","0","18487","","null","","","null","3","","","","","","","","","","","","","","","",""
"","ISI","","html-keyboard-response","24","116532","0.0-1.0-30.0","0","0","18487","","null","","","null","3","NaN","","","","","","","","","","","","","","",""
"","S2","","html-keyboard-response","25","116692","0.0-1.0-31.0","0","0","18487","","null","","","null","3","","NaN","","","","","","","","","","","","","",""
"","response","","html-keyboard-response","26","118074","0.0-1.0-32.0-0.0","0","0","18487","","1380","","","75","3","","","1","3","training","adjacent","GF","7","6","R.jpg","O.jpg","1","0","0","",""
"","feedback","","html-keyboard-response","27","119081","0.0-1.0-33.0-0.0","0","0","18487","","null","","","null","3","","","","","","","","","","","","","","","",""
"","time_out","","html-keyboard-response","28","121092","0.0-1.0-35.0-0.0","0","0","18487","","null","","","null","3","","","","","","","","","","","","","","","",""
"","ITI","","html-keyboard-response","29","122100","0.0-1.0-36.0","0","0","18487","","null","","","null","3","","","","","","","","","","","","","","","NaN",""
"","S1","","html-keyboard-response","30","122259","0.0-1.0-38.0","0","0","18487","","null","","","null","4","","","","","","","","","","","","","","","",""
"","ISI","","html-keyboard-response","31","124266","0.0-1.0-39.0","0","0","18487","","null","","","null","4","NaN","","","","","","","","","","","","","","",""
"","S2","","html-keyboard-response","32","124424","0.0-1.0-40.0","0","0","18487","","null","","","null","4","","NaN","","","","","","","","","","","","","",""
"","response","","html-keyboard-response","33","125048","0.0-1.0-41.0-0.0","0","0","18487","","622","","","68","4","","","1","4","training","adjacent","BC","2","3","Q.jpg","M.jpg","0","1","0","",""
"","feedback","","html-keyboard-response","34","126056","0.0-1.0-42.0-0.0","0","0","18487","","null","","","null","4","","","","","","","","","","","","","","","",""
"","time_out","","html-keyboard-response","35","128068","0.0-1.0-44.0-0.0","0","0","18487","","null","","","null","4","","","","","","","","","","","","","","","",""
"","ITI","","html-keyboard-response","36","129074","0.0-1.0-45.0","0","0","18487","","null","","","null","4","","","","","","","","","","","","","","","NaN",""
"","S1","","html-keyboard-response","37","129236","0.0-1.0-47.0","0","0","18487","","null","","","null","5","","","","","","","","","","","","","","","",""
"","ISI","","html-keyboard-response","38","131241","0.0-1.0-48.0","0","0","18487","","null","","","null","5","NaN","","","","","","","","","","","","","","",""
"","S2","","html-keyboard-response","39","131401","0.0-1.0-49.0","0","0","18487","","null","","","null","5","","NaN","","","","","","","","","","","","","",""
"","response","","html-keyboard-response","40","132206","0.0-1.0-50.0-0.0","0","0","18487","","802","","","68","5","","","1","5","training","adjacent","DE","4","5","N.jpg","P.jpg","0","1","0","",""
"","feedback","","html-keyboard-response","41","133221","0.0-1.0-51.0-0.0","0","0","18487","","null","","","null","5","","","","","","","","","","","","","","","",""
"","time_out","","html-keyboard-response","42","135225","0.0-1.0-53.0-0.0","0","0","18487","","null","","","null","5","","","","","","","","","","","","","","","",""
"","ITI","","html-keyboard-response","43","136234","0.0-1.0-54.0","0","0","18487","","null","","","null","5","","","","","","","","","","","","","","","NaN",""
"","S1","","html-keyboard-response","44","136393","0.0-1.0-56.0","0","0","18487","","null","","","null","6","","","","","","","","","","","","","","","",""
"","ISI","","html-keyboard-response","45","138404","0.0-1.0-57.0","0","0","18487","","null","","","null","6","NaN","","","","","","","","","","","","","","",""
"","S2","","html-keyboard-response","46","138565","0.0-1.0-58.0","0","0","18487","","null","","","null","6","","NaN","","","","","","","","","","","","","",""
"","response","","html-keyboard-response","47","139542","0.0-1.0-59.0-0.0","0","0","18487","","974","","","68","6","","","1","6","training","adjacent","BA","2","1","Q.jpg","L.jpg","0","0","1","",""
"","feedback","","html-keyboard-response","48","140554","0.0-1.0-60.0-0.0","0","0","18487","","null","","","null","6","","","","","","","","","","","","","","","",""
"","ITI","","html-keyboard-response","49","141562","0.0-1.0-63.0","0","0","18487","","null","","","null","6","","","","","","","","","","","","","","","NaN",""
"","S1","","html-keyboard-response","50","141722","0.0-1.0-65.0","0","0","18487","","null","","","null","7","","","","","","","","","","","","","","","",""
"","ISI","","html-keyboard-response","51","143732","0.0-1.0-66.0","0","0","18487","","null","","","null","7","NaN","","","","","","","","","","","","","","",""
"","S2","","html-keyboard-response","52","143892","0.0-1.0-67.0","0","0","18487","","null","","","null","7","","NaN","","","","","","","","","","","","","",""
"","response","","html-keyboard-response","53","144481","0.0-1.0-68.0-0.0","0","0","18487","","587","","","75","7","","","1","7","training","adjacent","FG","6","7","O.jpg","R.jpg","1","1","1","",""
"","feedback","","html-keyboard-response","54","145492","0.0-1.0-69.0-0.0","0","0","18487","","null","","","null","7","","","","","","","","","","","","","","","",""
"","ITI","","html-keyboard-response","55","146500","0.0-1.0-72.0","0","0","18487","","null","","","null","7","","","","","","","","","","","","","","","NaN",""
"","S1","","html-keyboard-response","56","146661","0.0-1.0-74.0","0","0","18487","","null","","","null","8","","","","","","","","","","","","","","","",""
"","ISI","","html-keyboard-response","57","148666","0.0-1.0-75.0","0","0","18487","","null","","","null","8","NaN","","","","","","","","","","","","","","",""
"","S2","","html-keyboard-response","58","148825","0.0-1.0-76.0","0","0","18487","","null","","","null","8","","NaN","","","","","","","","","","","","","",""
"","response","","html-keyboard-response","59","149550","0.0-1.0-77.0-0.0","0","0","18487","","723","","","75","8","","","1","8","training","adjacent","CB","3","2","M.jpg","Q.jpg","1","0","0","",""
"","feedback","","html-keyboard-response","60","150565","0.0-1.0-78.0-0.0","0","0","18487","","null","","","null","8","","","","","","","","","","","","","","","",""
"","time_out","","html-keyboard-response","61","152569","0.0-1.0-80.0-0.0","0","0","18487","","null","","","null","8","","","","","","","","","","","","","","","",""
"","ITI","","html-keyboard-response","62","153577","0.0-1.0-81.0","0","0","18487","","null","","","null","8","","","","","","","","","","","","","","","NaN",""
"","S1","","html-keyboard-response","63","153739","0.0-1.0-83.0","0","0","18487","","null","","","null","9","","","","","","","","","","","","","","","",""
"","ISI","","html-keyboard-response","64","155749","0.0-1.0-84.0","0","0","18487","","null","","","null","9","NaN","","","","","","","","","","","","","","",""
"","S2","","html-keyboard-response","65","155909","0.0-1.0-85.0","0","0","18487","","null","","","null","9","","NaN","","","","","","","","","","","","","",""
"","response","","html-keyboard-response","66","156708","0.0-1.0-86.0-0.0","0","0","18487","","797","","","68","9","","","1","9","training","adjacent","DE","4","5","N.jpg","P.jpg","0","1","0","",""
"","feedback","","html-keyboard-response","67","157716","0.0-1.0-87.0-0.0","0","0","18487","","null","","","null","9","","","","","","","","","","","","","","","",""
"","time_out","","html-keyboard-response","68","159722","0.0-1.0-89.0-0.0","0","0","18487","","null","","","null","9","","","","","","","","","","","","","","","",""
"","ITI","","html-keyboard-response","69","160730","0.0-1.0-90.0","0","0","18487","","null","","","null","9","","","","","","","","","","","","","","","NaN",""
"","S1","","html-keyboard-response","70","160890","0.0-1.0-92.0","0","0","18487","","null","","","null","10","","","","","","","","","","","","","","","",""
"","ISI","","html-keyboard-response","71","162901","0.0-1.0-93.0","0","0","18487","","null","","","null","10","NaN","","","","","","","","","","","","","","",""
"","S2","","html-keyboard-response","72","163061","0.0-1.0-94.0","0","0","18487","","null","","","null","10","","NaN","","","","","","","","","","","","","",""
"","response","","html-keyboard-response","73","164605","0.0-1.0-95.0-0.0","0","0","18487","","1542","","","68","10","","","1","10","training","adjacent","DC","4","3","N.jpg","M.jpg","0","0","1","",""
"","feedback","","html-keyboard-response","74","165610","0.0-1.0-96.0-0.0","0","0","18487","","null","","","null","10","","","","","","","","","","","","","","","",""
"","ITI","","html-keyboard-response","75","166618","0.0-1.0-99.0","0","0","18487","","null","","","null","10","","","","","","","","","","","","","","","NaN",""
"","S1","","html-keyboard-response","76","166778","0.0-1.0-101.0","0","0","18487","","null","","","null","11","","","","","","","","","","","","","","","",""
"","ISI","","html-keyboard-response","77","168789","0.0-1.0-102.0","0","0","18487","","null","","","null","11","NaN","","","","","","","","","","","","","","",""
"","S2","","html-keyboard-response","78","168949","0.0-1.0-103.0","0","0","18487","","null","","","null","11","","NaN","","","","","","","","","","","","","",""
"","response","","html-keyboard-response","79","169394","0.0-1.0-104.0-0.0","0","0","18487","","443","","","68","11","","","1","11","training","adjacent","DC","4","3","N.jpg","M.jpg","0","0","1","",""
"","feedback","","html-keyboard-response","80","170405","0.0-1.0-105.0-0.0","0","0","18487","","null","","","null","11","","","","","","","","","","","","","","","",""
"","ITI","","html-keyboard-response","81","171413","0.0-1.0-108.0","0","0","18487","","null","","","null","11","","","","","","","","","","","","","","","NaN",""
"","S1","","html-keyboard-response","82","171572","0.0-1.0-110.0","0","0","18487","","null","","","null","12","","","","","","","","","","","","","","","",""
"","ISI","","html-keyboard-response","83","173578","0.0-1.0-111.0","0","0","18487","","null","","","null","12","NaN","","","","","","","","","","","","","","",""
"","S2","","html-keyboard-response","84","173739","0.0-1.0-112.0","0","0","18487","","null","","","null","12","","NaN","","","","","","","","","","","","","",""
"","response","","html-keyboard-response","85","174180","0.0-1.0-113.0-0.0","0","0","18487","","439","","","75","12","","","1","12","training","adjacent","ED","5","4","P.jpg","N.jpg","1","0","0","",""
"","feedback","","html-keyboard-response","86","175189","0.0-1.0-114.0-0.0","0","0","18487","","null","","","null","12","","","","","","","","","","","","","","","",""
"","time_out","","html-keyboard-response","87","177194","0.0-1.0-116.0-0.0","0","0","18487","","null","","","null","12","","","","","","","","","","","","","","","",""
"","ITI","","html-keyboard-response","88","178202","0.0-1.0-117.0","0","0","18487","","null","","","null","12","","","","","","","","","","","","","","","NaN",""
"","S1","","html-keyboard-response","89","178363","0.0-1.0-119.0","0","0","18487","","null","","","null","13","","","","","","","","","","","","","","","",""
"","ISI","","html-keyboard-response","90","180372","0.0-1.0-120.0","0","0","18487","","null","","","null","13","NaN","","","","","","","","","","","","","","",""
"","S2","","html-keyboard-response","91","180534","0.0-1.0-121.0","0","0","18487","","null","","","null","13","","NaN","","","","","","","","","","","","","",""
"","response","","html-keyboard-response","92","181335","0.0-1.0-122.0-0.0","0","0","18487","","800","","","75","13","","","1","13","training","adjacent","FG","6","7","O.jpg","R.jpg","1","1","1","",""
"","feedback","","html-keyboard-response","93","182347","0.0-1.0-123.0-0.0","0","0","18487","","null","","","null","13","","","","","","","","","","","","","","","",""
"","ITI","","html-keyboard-response","94","183354","0.0-1.0-126.0","0","0","18487","","null","","","null","13","","","","","","","","","","","","","","","NaN",""
"","S1","","html-keyboard-response","95","183515","0.0-1.0-128.0","0","0","18487","","null","","","null","14","","","","","","","","","","","","","","","",""
"","ISI","","html-keyboard-response","96","185525","0.0-1.0-129.0","0","0","18487","","null","","","null","14","NaN","","","","","","","","","","","","","","",""
"","S2","","html-keyboard-response","97","185685","0.0-1.0-130.0","0","0","18487","","null","","","null","14","","NaN","","","","","","","","","","","","","",""
"","response","","html-keyboard-response","98","186222","0.0-1.0-131.0-0.0","0","0","18487","","535","","","68","14","","","1","14","training","adjacent","CB","3","2","M.jpg","Q.jpg","0","0","1","",""
"","feedback","","html-keyboard-response","99","187227","0.0-1.0-132.0-0.0","0","0","18487","","null","","","null","14","","","","","","","","","","","","","","","",""
"","ITI","","html-keyboard-response","100","188234","0.0-1.0-135.0","0","0","18487","","null","","","null","14","","","","","","","","","","","","","","","NaN",""
"","S1","","html-keyboard-response","101","188394","0.0-1.0-137.0","0","0","18487","","null","","","null","15","","","","","","","","","","","","","","","",""
"","ISI","","html-keyboard-response","102","190405","0.0-1.0-138.0","0","0","18487","","null","","","null","15","NaN","","","","","","","","","","","","","","",""
"","S2","","html-keyboard-response","103","190564","0.0-1.0-139.0","0","0","18487","","null","","","null","15","","NaN","","","","","","","","","","","","","",""
"","response","","html-keyboard-response","104","192014","0.0-1.0-140.0-0.0","0","0","18487","","1447","","","68","15","","","1","15","training","adjacent","DC","4","3","N.jpg","M.jpg","0","0","1","",""
"","feedback","","html-keyboard-response","105","193019","0.0-1.0-141.0-0.0","0","0","18487","","null","","","null","15","","","","","","","","","","","","","","","",""
"","ITI","","html-keyboard-response","106","194027","0.0-1.0-144.0","0","0","18487","","null","","","null","15","","","","","","","","","","","","","","","NaN",""
"","S1","","html-keyboard-response","107","194186","0.0-1.0-146.0","0","0","18487","","null","","","null","16","","","","","","","","","","","","","","","",""
"","ISI","","html-keyboard-response","108","196197","0.0-1.0-147.0","0","0","18487","","null","","","null","16","NaN","","","","","","","","","","","","","","",""
"","S2","","html-keyboard-response","109","196358","0.0-1.0-148.0","0","0","18487","","null","","","null","16","","NaN","","","","","","","","","","","","","",""
"","response","","html-keyboard-response","110","196834","0.0-1.0-149.0-0.0","0","0","18487","","474","","","68","16","","","1","16","training","adjacent","CB","3","2","M.jpg","Q.jpg","0","0","1","",""
"","feedback","","html-keyboard-response","111","197845","0.0-1.0-150.0-0.0","0","0","18487","","null","","","null","16","","","","","","","","","","","","","","","",""
"","ITI","","html-keyboard-response","112","198854","0.0-1.0-153.0","0","0","18487","","null","","","null","16","","","","","","","","","","","","","","","NaN",""
"","S1","","html-keyboard-response","113","199013","0.0-1.0-155.0","0","0","18487","","null","","","null","17","","","","","","","","","","","","","","","",""
"","ISI","","html-keyboard-response","114","201019","0.0-1.0-156.0","0","0","18487","","null","","","null","17","NaN","","","","","","","","","","","","","","",""
"","S2","","html-keyboard-response","115","201178","0.0-1.0-157.0","0","0","18487","","null","","","null","17","","NaN","","","","","","","","","","","","","",""
"","response","","html-keyboard-response","116","201925","0.0-1.0-158.0-0.0","0","0","18487","","745","","","68","17","","","1","17","training","adjacent","ED","5","4","P.jpg","N.jpg","0","0","1","",""
"","feedback","","html-keyboard-response","117","202934","0.0-1.0-159.0-0.0","0","0","18487","","null","","","null","17","","","","","","","","","","","","","","","",""
"","ITI","","html-keyboard-response","118","203942","0.0-1.0-162.0","0","0","18487","","null","","","null","17","","","","","","","","","","","","","","","NaN",""
"","S1","","html-keyboard-response","119","204102","0.0-1.0-164.0","0","0","18487","","null","","","null","18","","","","","","","","","","","","","","","",""
"","ISI","","html-keyboard-response","120","206107","0.0-1.0-165.0","0","0","18487","","null","","","null","18","NaN","","","","","","","","","","","","","","",""
"","S2","","html-keyboard-response","121","206267","0.0-1.0-166.0","0","0","18487","","null","","","null","18","","NaN","","","","","","","","","","","","","",""
"","response","","html-keyboard-response","122","206688","0.0-1.0-167.0-0.0","0","0","18487","","419","","","68","18","","","1","18","training","adjacent","AB","1","2","L.jpg","Q.jpg","0","1","0","",""
"","feedback","","html-keyboard-response","123","207702","0.0-1.0-168.0-0.0","0","0","18487","","null","","","null","18","","","","","","","","","","","","","","","",""
"","time_out","","html-keyboard-response","124","209707","0.0-1.0-170.0-0.0","0","0","18487","","null","","","null","18","","","","","","","","","","","","","","","",""
"","ITI","","html-keyboard-response","125","210715","0.0-1.0-171.0","0","0","18487","","null","","","null","18","","","","","","","","","","","","","","","NaN",""
"","S1","","html-keyboard-response","126","210875","0.0-1.0-173.0","0","0","18487","","null","","","null","19","","","","","","","","","","","","","","","",""
"","ISI","","html-keyboard-response","127","212885","0.0-1.0-174.0","0","0","18487","","null","","","null","19","NaN","","","","","","","","","","","","","","",""
"","S2","","html-keyboard-response","128","213046","0.0-1.0-175.0","0","0","18487","","null","","","null","19","","NaN","","","","","","","","","","","","","",""
"","response","","html-keyboard-response","129","213616","0.0-1.0-176.0-0.0","0","0","18487","","568","","","68","19","","","1","19","training","adjacent","DC","4","3","N.jpg","M.jpg","0","0","1","",""
"","feedback","","html-keyboard-response","130","214630","0.0-1.0-177.0-0.0","0","0","18487","","null","","","null","19","","","","","","","","","","","","","","","",""
"","ITI","","html-keyboard-response","131","215637","0.0-1.0-180.0","0","0","18487","","null","","","null","19","","","","","","","","","","","","","","","NaN",""
"","S1","","html-keyboard-response","132","215799","0.0-1.0-182.0","0","0","18487","","null","","","null","20","","","","","","","","","","","","","","","",""
"","ISI","","html-keyboard-response","133","217806","0.0-1.0-183.0","0","0","18487","","null","","","null","20","NaN","","","","","","","","","","","","","","",""
"","S2","","html-keyboard-response","134","217963","0.0-1.0-184.0","0","0","18487","","null","","","null","20","","NaN","","","","","","","","","","","","","",""
"","response","","html-keyboard-response","135","218488","0.0-1.0-185.0-0.0","0","0","18487","","523","","","75","20","","","1","20","training","adjacent","CD","3","4","M.jpg","N.jpg","1","1","1","",""
"","feedback","","html-keyboard-response","136","219498","0.0-1.0-186.0-0.0","0","0","18487","","null","","","null","20","","","","","","","","","","","","","","","",""
"","ITI","","html-keyboard-response","137","220507","0.0-1.0-189.0","0","0","18487","","null","","","null","20","","","","","","","","","","","","","","","NaN",""
"","S1","","html-keyboard-response","138","220668","0.0-1.0-191.0","0","0","18487","","null","","","null","21","","","","","","","","","","","","","","","",""
"","ISI","","html-keyboard-response","139","222677","0.0-1.0-192.0","0","0","18487","","null","","","null","21","NaN","","","","","","","","","","","","","","",""
"","S2","","html-keyboard-response","140","222838","0.0-1.0-193.0","0","0","18487","","null","","","null","21","","NaN","","","","","","","","","","","","","",""
"","response","","html-keyboard-response","141","223449","0.0-1.0-194.0-0.0","0","0","18487","","609","","","68","21","","","1","21","training","adjacent","ED","5","4","P.jpg","N.jpg","0","0","1","",""
"","feedback","","html-keyboard-response","142","224459","0.0-1.0-195.0-0.0","0","0","18487","","null","","","null","21","","","","","","","","","","","","","","","",""
"","ITI","","html-keyboard-response","143","225468","0.0-1.0-198.0","0","0","18487","","null","","","null","21","","","","","","","","","","","","","","","NaN",""
"","S1","","html-keyboard-response","144","225628","0.0-1.0-200.0","0","0","18487","","null","","","null","22","","","","","","","","","","","","","","","",""
"","ISI","","html-keyboard-response","145","227638","0.0-1.0-201.0","0","0","18487","","null","","","null","22","NaN","","","","","","","","","","","","","","",""
"","S2","","html-keyboard-response","146","227797","0.0-1.0-202.0","0","0","18487","","null","","","null","22","","NaN","","","","","","","","","","","","","",""
"","response","","html-keyboard-response","147","228517","0.0-1.0-203.0-0.0","0","0","18487","","719","","","68","22","","","1","22","training","adjacent","ED","5","4","P.jpg","N.jpg","0","0","1","",""
"","feedback","","html-keyboard-response","148","229525","0.0-1.0-204.0-0.0","0","0","18487","","null","","","null","22","","","","","","","","","","","","","","","",""
"","ITI","","html-keyboard-response","149","230534","0.0-1.0-207.0","0","0","18487","","null","","","null","22","","","","","","","","","","","","","","","NaN",""
"","S1","","html-keyboard-response","150","230694","0.0-1.0-209.0","0","0","18487","","null","","","null","23","","","","","","","","","","","","","","","",""
"","ISI","","html-keyboard-response","151","232700","0.0-1.0-210.0","0","0","18487","","null","","","null","23","NaN","","","","","","","","","","","","","","",""
"","S2","","html-keyboard-response","152","232859","0.0-1.0-211.0","0","0","18487","","null","","","null","23","","NaN","","","","","","","","","","","","","",""
"","response","","html-keyboard-response","153","233540","0.0-1.0-212.0-0.0","0","0","18487","","678","","","75","23","","","1","23","training","adjacent","FE","6","5","O.jpg","P.jpg","1","0","0","",""
"","feedback","","html-keyboard-response","154","234550","0.0-1.0-213.0-0.0","0","0","18487","","null","","","null","23","","","","","","","","","","","","","","","",""
"","time_out","","html-keyboard-response","155","236556","0.0-1.0-215.0-0.0","0","0","18487","","null","","","null","23","","","","","","","","","","","","","","","",""
"","ITI","","html-keyboard-response","156","237564","0.0-1.0-216.0","0","0","18487","","null","","","null","23","","","","","","","","","","","","","","","NaN",""
"","S1","","html-keyboard-response","157","237724","0.0-1.0-218.0","0","0","18487","","null","","","null","24","","","","","","","","","","","","","","","",""
"","ISI","","html-keyboard-response","158","239734","0.0-1.0-219.0","0","0","18487","","null","","","null","24","NaN","","","","","","","","","","","","","","",""
"","S2","","html-keyboard-response","159","239895","0.0-1.0-220.0","0","0","18487","","null","","","null","24","","NaN","","","","","","","","","","","","","",""
"","response","","html-keyboard-response","160","240430","0.0-1.0-221.0-0.0","0","0","18487","","532","","","68","24","","","1","24","training","adjacent","GF","7","6","R.jpg","O.jpg","0","0","1","",""
"","feedback","","html-keyboard-response","161","241436","0.0-1.0-222.0-0.0","0","0","18487","","null","","","null","24","","","","","","","","","","","","","","","",""
"","ITI","","html-keyboard-response","162","242444","0.0-1.0-225.0","0","0","18487","","null","","","null","24","","","","","","","","","","","","","","","NaN",""
"","S1","","html-keyboard-response","163","242604","0.0-1.0-227.0","0","0","18487","","null","","","null","25","","","","","","","","","","","","","","","",""
"","ISI","","html-keyboard-response","164","244614","0.0-1.0-228.0","0","0","18487","","null","","","null","25","NaN","","","","","","","","","","","","","","",""
"","S2","","html-keyboard-response","165","244775","0.0-1.0-229.0","0","0","18487","","null","","","null","25","","NaN","","","","","","","","","","","","","",""
"","response","","html-keyboard-response","166","245592","0.0-1.0-230.0-0.0","0","0","18487","","814","","","75","25","","","1","25","training","adjacent","CD","3","4","M.jpg","N.jpg","1","1","1","",""
"","feedback","","html-keyboard-response","167","246599","0.0-1.0-231.0-0.0","0","0","18487","","null","","","null","25","","","","","","","","","","","","","","","",""
"","ITI","","html-keyboard-response","168","247607","0.0-1.0-234.0","0","0","18487","","null","","","null","25","","","","","","","","","","","","","","","NaN",""
"","S1","","html-keyboard-response","169","247767","0.0-1.0-236.0","0","0","18487","","null","","","null","26","","","","","","","","","","","","","","","",""
"","ISI","","html-keyboard-response","170","249771","0.0-1.0-237.0","0","0","18487","","null","","","null","26","NaN","","","","","","","","","","","","","","",""
"","S2","","html-keyboard-response","171","249932","0.0-1.0-238.0","0","0","18487","","null","","","null","26","","NaN","","","","","","","","","","","","","",""
"","response","","html-keyboard-response","172","250871","0.0-1.0-239.0-0.0","0","0","18487","","937","","","75","26","","","1","26","training","adjacent","EF","5","6","P.jpg","O.jpg","1","1","1","",""
"","feedback","","html-keyboard-response","173","251879","0.0-1.0-240.0-0.0","0","0","18487","","null","","","null","26","","","","","","","","","","","","","","","",""
"","ITI","","html-keyboard-response","174","252887","0.0-1.0-243.0","0","0","18487","","null","","","null","26","","","","","","","","","","","","","","","NaN",""
"","S1","","html-keyboard-response","175","253047","0.0-1.0-245.0","0","0","18487","","null","","","null","27","","","","","","","","","","","","","","","",""
"","ISI","","html-keyboard-response","176","255052","0.0-1.0-246.0","0","0","18487","","null","","","null","27","NaN","","","","","","","","","","","","","","",""
"","S2","","html-keyboard-response","177","255213","0.0-1.0-247.0","0","0","18487","","null","","","null","27","","NaN","","","","","","","","","","","","","",""
"","response","","html-keyboard-response","178","255657","0.0-1.0-248.0-0.0","0","0","18487","","441","","","75","27","","","1","27","training","adjacent","FG","6","7","O.jpg","R.jpg","1","1","1","",""
"","feedback","","html-keyboard-response","179","256668","0.0-1.0-249.0-0.0","0","0","18487","","null","","","null","27","","","","","","","","","","","","","","","",""
"","ITI","","html-keyboard-response","180","257676","0.0-1.0-252.0","0","0","18487","","null","","","null","27","","","","","","","","","","","","","","","NaN",""
"","S1","","html-keyboard-response","181","257836","0.0-1.0-254.0","0","0","18487","","null","","","null","28","","","","","","","","","","","","","","","",""
"","ISI","","html-keyboard-response","182","259847","0.0-1.0-255.0","0","0","18487","","null","","","null","28","NaN","","","","","","","","","","","","","","",""
"","S2","","html-keyboard-response","183","260007","0.0-1.0-256.0","0","0","18487","","null","","","null","28","","NaN","","","","","","","","","","","","","",""
"","response","","html-keyboard-response","184","260348","0.0-1.0-257.0-0.0","0","0","18487","","339","","","75","28","","","1","28","training","adjacent","FE","6","5","O.jpg","P.jpg","1","0","0","",""
"","feedback","","html-keyboard-response","185","261356","0.0-1.0-258.0-0.0","0","0","18487","","null","","","null","28","","","","","","","","","","","","","","","",""
"","time_out","","html-keyboard-response","186","263367","0.0-1.0-260.0-0.0","0","0","18487","","null","","","null","28","","","","","","","","","","","","","","","",""
"","ITI","","html-keyboard-response","187","264374","0.0-1.0-261.0","0","0","18487","","null","","","null","28","","","","","","","","","","","","","","","NaN",""
"","S1","","html-keyboard-response","188","264534","0.0-1.0-263.0","0","0","18487","","null","","","null","29","","","","","","","","","","","","","","","",""
"","ISI","","html-keyboard-response","189","266540","0.0-1.0-264.0","0","0","18487","","null","","","null","29","NaN","","","","","","","","","","","","","","",""
"","S2","","html-keyboard-response","190","266700","0.0-1.0-265.0","0","0","18487","","null","","","null","29","","NaN","","","","","","","","","","","","","",""
"","response","","html-keyboard-response","191","267196","0.0-1.0-266.0-0.0","0","0","18487","","494","","","68","29","","","1","29","training","adjacent","GF","7","6","R.jpg","O.jpg","0","0","1","",""
"","feedback","","html-keyboard-response","192","268205","0.0-1.0-267.0-0.0","0","0","18487","","null","","","null","29","","","","","","","","","","","","","","","",""
"","ITI","","html-keyboard-response","193","269212","0.0-1.0-270.0","0","0","18487","","null","","","null","29","","","","","","","","","","","","","","","NaN",""
"","S1","","html-keyboard-response","194","269372","0.0-1.0-272.0","0","0","18487","","null","","","null","30","","","","","","","","","","","","","","","",""
"","ISI","","html-keyboard-response","195","271383","0.0-1.0-273.0","0","0","18487","","null","","","null","30","NaN","","","","","","","","","","","","","","",""
"","S2","","html-keyboard-response","196","271544","0.0-1.0-274.0","0","0","18487","","null","","","null","30","","NaN","","","","","","","","","","","","","",""
"","response","","html-keyboard-response","197","271997","0.0-1.0-275.0-0.0","0","0","18487","","450","","","68","30","","","1","30","training","adjacent","DE","4","5","N.jpg","P.jpg","0","1","0","",""
"","feedback","","html-keyboard-response","198","273004","0.0-1.0-276.0-0.0","0","0","18487","","null","","","null","30","","","","","","","","","","","","","","","",""
"","time_out","","html-keyboard-response","199","275015","0.0-1.0-278.0-0.0","0","0","18487","","null","","","null","30","","","","","","","","","","","","","","","",""
"","ITI","","html-keyboard-response","200","276023","0.0-1.0-279.0","0","0","18487","","null","","","null","30","","","","","","","","","","","","","","","NaN",""
"","S1","","html-keyboard-response","201","276183","0.0-1.0-281.0","0","0","18487","","null","","","null","31","","","","","","","","","","","","","","","",""
"","ISI","","html-keyboard-response","202","278188","0.0-1.0-282.0","0","0","18487","","null","","","null","31","NaN","","","","","","","","","","","","","","",""
"","S2","","html-keyboard-response","203","278343","0.0-1.0-283.0","0","0","18487","","null","","","null","31","","NaN","","","","","","","","","","","","","",""
"","response","","html-keyboard-response","204","278862","0.0-1.0-284.0-0.0","0","0","18487","","517","","","75","31","","","1","31","training","adjacent","CD","3","4","M.jpg","N.jpg","1","1","1","",""
"","feedback","","html-keyboard-response","205","279869","0.0-1.0-285.0-0.0","0","0","18487","","null","","","null","31","","","","","","","","","","","","","","","",""
"","ITI","","html-keyboard-response","206","280877","0.0-1.0-288.0","0","0","18487","","null","","","null","31","","","","","","","","","","","","","","","NaN",""
"","S1","","html-keyboard-response","207","281037","0.0-1.0-290.0","0","0","18487","","null","","","null","32","","","","","","","","","","","","","","","",""
"","ISI","","html-keyboard-response","208","283047","0.0-1.0-291.0","0","0","18487","","null","","","null","32","NaN","","","","","","","","","","","","","","",""
"","S2","","html-keyboard-response","209","283208","0.0-1.0-292.0","0","0","18487","","null","","","null","32","","NaN","","","","","","","","","","","","","",""
"","response","","html-keyboard-response","210","283609","0.0-1.0-293.0-0.0","0","0","18487","","398","","","68","32","","","1","32","training","adjacent","GF","7","6","R.jpg","O.jpg","0","0","1","",""
"","feedback","","html-keyboard-response","211","284615","0.0-1.0-294.0-0.0","0","0","18487","","null","","","null","32","","","","","","","","","","","","","","","",""
"","ITI","","html-keyboard-response","212","285624","0.0-1.0-297.0","0","0","18487","","null","","","null","32","","","","","","","","","","","","","","","NaN",""
"","S1","","html-keyboard-response","213","285783","0.0-1.0-299.0","0","0","18487","","null","","","null","33","","","","","","","","","","","","","","","",""
"","ISI","","html-keyboard-response","214","287788","0.0-1.0-300.0","0","0","18487","","null","","","null","33","NaN","","","","","","","","","","","","","","",""
"","S2","","html-keyboard-response","215","287948","0.0-1.0-301.0","0","0","18487","","null","","","null","33","","NaN","","","","","","","","","","","","","",""
"","response","","html-keyboard-response","216","288584","0.0-1.0-302.0-0.0","0","0","18487","","633","","","68","33","","","1","33","training","adjacent","FE","6","5","O.jpg","P.jpg","0","0","1","",""
"","feedback","","html-keyboard-response","217","289592","0.0-1.0-303.0-0.0","0","0","18487","","null","","","null","33","","","","","","","","","","","","","","","",""
"","ITI","","html-keyboard-response","218","290599","0.0-1.0-306.0","0","0","18487","","null","","","null","33","","","","","","","","","","","","","","","NaN",""
"","S1","","html-keyboard-response","219","290760","0.0-1.0-308.0","0","0","18487","","null","","","null","34","","","","","","","","","","","","","","","",""
"","ISI","","html-keyboard-response","220","292765","0.0-1.0-309.0","0","0","18487","","null","","","null","34","NaN","","","","","","","","","","","","","","",""
"","S2","","html-keyboard-response","221","292925","0.0-1.0-310.0","0","0","18487","","null","","","null","34","","NaN","","","","","","","","","","","","","",""
"","response","","html-keyboard-response","222","293494","0.0-1.0-311.0-0.0","0","0","18487","","567","","","75","34","","","1","34","training","adjacent","FG","6","7","O.jpg","R.jpg","1","1","1","",""
"","feedback","","html-keyboard-response","223","294504","0.0-1.0-312.0-0.0","0","0","18487","","null","","","null","34","","","","","","","","","","","","","","","",""
"","ITI","","html-keyboard-response","224","295511","0.0-1.0-315.0","0","0","18487","","null","","","null","34","","","","","","","","","","","","","","","NaN",""
"","S1","","html-keyboard-response","225","295672","0.0-1.0-317.0","0","0","18487","","null","","","null","35","","","","","","","","","","","","","","","",""
"","ISI","","html-keyboard-response","226","297676","0.0-1.0-318.0","0","0","18487","","null","","","null","35","NaN","","","","","","","","","","","","","","",""
"","S2","","html-keyboard-response","227","297837","0.0-1.0-319.0","0","0","18487","","null","","","null","35","","NaN","","","","","","","","","","","","","",""
"","response","","html-keyboard-response","228","298324","0.0-1.0-320.0-0.0","0","0","18487","","484","","","68","35","","","1","35","training","adjacent","EF","5","6","P.jpg","O.jpg","0","1","0","",""
"","feedback","","html-keyboard-response","229","299336","0.0-1.0-321.0-0.0","0","0","18487","","null","","","null","35","","","","","","","","","","","","","","","",""
"","time_out","","html-keyboard-response","230","301341","0.0-1.0-323.0-0.0","0","0","18487","","null","","","null","35","","","","","","","","","","","","","","","",""
"","ITI","","html-keyboard-response","231","302349","0.0-1.0-324.0","0","0","18487","","null","","","null","35","","","","","","","","","","","","","","","NaN",""
"","S1","","html-keyboard-response","232","302509","0.0-1.0-326.0","0","0","18487","","null","","","null","36","","","","","","","","","","","","","","","",""
"","ISI","","html-keyboard-response","233","304520","0.0-1.0-327.0","0","0","18487","","null","","","null","36","NaN","","","","","","","","","","","","","","",""
"","S2","","html-keyboard-response","234","304679","0.0-1.0-328.0","0","0","18487","","null","","","null","36","","NaN","","","","","","","","","","","","","",""
"","response","","html-keyboard-response","235","305213","0.0-1.0-329.0-0.0","0","0","18487","","532","","","68","36","","","1","36","training","adjacent","EF","5","6","P.jpg","O.jpg","0","1","0","",""
"","feedback","","html-keyboard-response","236","306221","0.0-1.0-330.0-0.0","0","0","18487","","null","","","null","36","","","","","","","","","","","","","","","",""
"","time_out","","html-keyboard-response","237","308232","0.0-1.0-332.0-0.0","0","0","18487","","null","","","null","36","","","","","","","","","","","","","","","",""
"","ITI","","html-keyboard-response","238","309240","0.0-1.0-333.0","0","0","18487","","null","","","null","36","","","","","","","","","","","","","","","NaN",""
"","S1","","html-keyboard-response","239","309400","0.0-1.0-335.0","0","0","18487","","null","","","null","37","","","","","","","","","","","","","","","",""
"","ISI","","html-keyboard-response","240","311405","0.0-1.0-336.0","0","0","18487","","null","","","null","37","NaN","","","","","","","","","","","","","","",""
"","S2","","html-keyboard-response","241","311565","0.0-1.0-337.0","0","0","18487","","null","","","null","37","","NaN","","","","","","","","","","","","","",""
"","response","","html-keyboard-response","242","311995","0.0-1.0-338.0-0.0","0","0","18487","","428","","","75","37","","","1","37","training","adjacent","CD","3","4","M.jpg","N.jpg","1","1","1","",""
"","feedback","","html-keyboard-response","243","313005","0.0-1.0-339.0-0.0","0","0","18487","","null","","","null","37","","","","","","","","","","","","","","","",""
"","ITI","","html-keyboard-response","244","314013","0.0-1.0-342.0","0","0","18487","","null","","","null","37","","","","","","","","","","","","","","","NaN",""
"","S1","","html-keyboard-response","245","314173","0.0-1.0-344.0","0","0","18487","","null","","","null","38","","","","","","","","","","","","","","","",""
"","ISI","","html-keyboard-response","246","316184","0.0-1.0-345.0","0","0","18487","","null","","","null","38","NaN","","","","","","","","","","","","","","",""
"","S2","","html-keyboard-response","247","316344","0.0-1.0-346.0","0","0","18487","","null","","","null","38","","NaN","","","","","","","","","","","","","",""
"","response","","html-keyboard-response","248","316839","0.0-1.0-347.0-0.0","0","0","18487","","492","","","68","38","","","1","38","training","adjacent","CB","3","2","M.jpg","Q.jpg","0","0","1","",""
"","feedback","","html-keyboard-response","249","317847","0.0-1.0-348.0-0.0","0","0","18487","","null","","","null","38","","","","","","","","","","","","","","","",""
"","ITI","","html-keyboard-response","250","318856","0.0-1.0-351.0","0","0","18487","","null","","","null","38","","","","","","","","","","","","","","","NaN",""
"","S1","","html-keyboard-response","251","319016","0.0-1.0-353.0","0","0","18487","","null","","","null","39","","","","","","","","","","","","","","","",""
"","ISI","","html-keyboard-response","252","321022","0.0-1.0-354.0","0","0","18487","","null","","","null","39","NaN","","","","","","","","","","","","","","",""
"","S2","","html-keyboard-response","253","321182","0.0-1.0-355.0","0","0","18487","","null","","","null","39","","NaN","","","","","","","","","","","","","",""
"","response","","html-keyboard-response","254","321578","0.0-1.0-356.0-0.0","0","0","18487","","393","","","75","39","","","1","39","training","adjacent","DE","4","5","N.jpg","P.jpg","1","1","1","",""
"","feedback","","html-keyboard-response","255","322590","0.0-1.0-357.0-0.0","0","0","18487","","null","","","null","39","","","","","","","","","","","","","","","",""
"","ITI","","html-keyboard-response","256","323597","0.0-1.0-360.0","0","0","18487","","null","","","null","39","","","","","","","","","","","","","","","NaN",""
"","S1","","html-keyboard-response","257","323758","0.0-1.0-362.0","0","0","18487","","null","","","null","40","","","","","","","","","","","","","","","",""
"","ISI","","html-keyboard-response","258","325769","0.0-1.0-363.0","0","0","18487","","null","","","null","40","NaN","","","","","","","","","","","","","","",""
"","S2","","html-keyboard-response","259","325928","0.0-1.0-364.0","0","0","18487","","null","","","null","40","","NaN","","","","","","","","","","","","","",""
"","response","","html-keyboard-response","260","326201","0.0-1.0-365.0-0.0","0","0","18487","","271","","","75","40","","","1","40","training","adjacent","BA","2","1","Q.jpg","L.jpg","1","0","0","",""
"","feedback","","html-keyboard-response","261","327208","0.0-1.0-366.0-0.0","0","0","18487","","null","","","null","40","","","","","","","","","","","","","","","",""
"","time_out","","html-keyboard-response","262","329214","0.0-1.0-368.0-0.0","0","0","18487","","null","","","null","40","","","","","","","","","","","","","","","",""
"","ITI","","html-keyboard-response","263","330222","0.0-1.0-369.0","0","0","18487","","null","","","null","40","","","","","","","","","","","","","","","NaN",""
"","S1","","html-keyboard-response","264","330382","0.0-1.0-371.0","0","0","18487","","null","","","null","41","","","","","","","","","","","","","","","",""
"","ISI","","html-keyboard-response","265","332392","0.0-1.0-372.0","0","0","18487","","null","","","null","41","NaN","","","","","","","","","","","","","","",""
"","S2","","html-keyboard-response","266","332553","0.0-1.0-373.0","0","0","18487","","null","","","null","41","","NaN","","","","","","","","","","","","","",""
"","response","","html-keyboard-response","267","333103","0.0-1.0-374.0-0.0","0","0","18487","","548","","","68","41","","","1","41","training","adjacent","BC","2","3","Q.jpg","M.jpg","0","1","0","",""
"","feedback","","html-keyboard-response","268","334110","0.0-1.0-375.0-0.0","0","0","18487","","null","","","null","41","","","","","","","","","","","","","","","",""
"","time_out","","html-keyboard-response","269","336121","0.0-1.0-377.0-0.0","0","0","18487","","null","","","null","41","","","","","","","","","","","","","","","",""
"","ITI","","html-keyboard-response","270","337128","0.0-1.0-378.0","0","0","18487","","null","","","null","41","","","","","","","","","","","","","","","NaN",""
"","S1","","html-keyboard-response","271","337289","0.0-1.0-380.0","0","0","18487","","null","","","null","42","","","","","","","","","","","","","","","",""
"","ISI","","html-keyboard-response","272","339294","0.0-1.0-381.0","0","0","18487","","null","","","null","42","NaN","","","","","","","","","","","","","","",""
"","S2","","html-keyboard-response","273","339453","0.0-1.0-382.0","0","0","18487","","null","","","null","42","","NaN","","","","","","","","","","","","","",""
"","response","","html-keyboard-response","274","339803","0.0-1.0-383.0-0.0","0","0","18487","","348","","","75","42","","","1","42","training","adjacent","BA","2","1","Q.jpg","L.jpg","1","0","0","",""
"","feedback","","html-keyboard-response","275","340814","0.0-1.0-384.0-0.0","0","0","18487","","null","","","null","42","","","","","","","","","","","","","","","",""
"","time_out","","html-keyboard-response","276","342825","0.0-1.0-386.0-0.0","0","0","18487","","null","","","null","42","","","","","","","","","","","","","","","",""
"","ITI","","html-keyboard-response","277","343833","0.0-1.0-387.0","0","0","18487","","null","","","null","42","","","","","","","","","","","","","","","NaN",""
"","S1","","html-keyboard-response","278","343992","0.0-1.0-389.0","0","0","18487","","null","","","null","43","","","","","","","","","","","","","","","",""
"","ISI","","html-keyboard-response","279","345998","0.0-1.0-390.0","0","0","18487","","null","","","null","43","NaN","","","","","","","","","","","","","","",""
"","S2","","html-keyboard-response","280","346158","0.0-1.0-391.0","0","0","18487","","null","","","null","43","","NaN","","","","","","","","","","","","","",""
"","response","","html-keyboard-response","281","346603","0.0-1.0-392.0-0.0","0","0","18487","","443","","","68","43","","","1","43","training","adjacent","AB","1","2","L.jpg","Q.jpg","0","1","0","",""
"","feedback","","html-keyboard-response","282","347614","0.0-1.0-393.0-0.0","0","0","18487","","null","","","null","43","","","","","","","","","","","","","","","",""
"","time_out","","html-keyboard-response","283","349623","0.0-1.0-395.0-0.0","0","0","18487","","null","","","null","43","","","","","","","","","","","","","","","",""
"","ITI","","html-keyboard-response","284","350629","0.0-1.0-396.0","0","0","18487","","null","","","null","43","","","","","","","","","","","","","","","NaN",""
"","S1","","html-keyboard-response","285","350781","0.0-1.0-398.0","0","0","18487","","null","","","null","44","","","","","","","","","","","","","","","",""
"","ISI","","html-keyboard-response","286","352793","0.0-1.0-399.0","0","0","18487","","null","","","null","44","NaN","","","","","","","","","","","","","","",""
"","S2","","html-keyboard-response","287","352953","0.0-1.0-400.0","0","0","18487","","null","","","null","44","","NaN","","","","","","","","","","","","","",""
"","response","","html-keyboard-response","288","353508","0.0-1.0-401.0-0.0","0","0","18487","","552","","","68","44","","","1","44","training","adjacent","BC","2","3","Q.jpg","M.jpg","0","1","0","",""
"","feedback","","html-keyboard-response","289","354520","0.0-1.0-402.0-0.0","0","0","18487","","null","","","null","44","","","","","","","","","","","","","","","",""
"","time_out","","html-keyboard-response","290","356531","0.0-1.0-404.0-0.0","0","0","18487","","null","","","null","44","","","","","","","","","","","","","","","",""
"","ITI","","html-keyboard-response","291","357545","0.0-1.0-405.0","0","0","18487","","null","","","null","44","","","","","","","","","","","","","","","NaN",""
"","S1","","html-keyboard-response","292","357705","0.0-1.0-407.0","0","0","18487","","null","","","null","45","","","","","","","","","","","","","","","",""
"","ISI","","html-keyboard-response","293","359710","0.0-1.0-408.0","0","0","18487","","600","","","75","45","k","","","","","","","","","","","","","","",""
"","S2","","html-keyboard-response","294","359871","0.0-1.0-409.0","0","0","18487","","null","","","null","45","","NaN","","","","","","","","","","","","","",""
"","response","","html-keyboard-response","295","360191","0.0-1.0-410.0-0.0","0","0","18487","","318","","","75","45","","","1","45","training","adjacent","AB","1","2","L.jpg","Q.jpg","1","1","1","",""
"","feedback","","html-keyboard-response","296","361199","0.0-1.0-411.0-0.0","0","0","18487","","null","","","null","45","","","","","","","","","","","","","","","",""
"","ITI","","html-keyboard-response","297","362206","0.0-1.0-414.0","0","0","18487","","null","","","null","45","","","","","","","","","","","","","","","NaN",""
"","S1","","html-keyboard-response","298","362366","0.0-1.0-416.0","0","0","18487","","null","","","null","46","","","","","","","","","","","","","","","",""
"","ISI","","html-keyboard-response","299","364377","0.0-1.0-417.0","0","0","18487","","null","","","null","46","NaN","","","","","","","","","","","","","","",""
"","S2","","html-keyboard-response","300","364536","0.0-1.0-418.0","0","0","18487","","null","","","null","46","","NaN","","","","","","","","","","","","","",""
"","response","","html-keyboard-response","301","365164","0.0-1.0-419.0-0.0","0","0","18487","","625","","","68","46","","","1","46","training","adjacent","EF","5","6","P.jpg","O.jpg","0","1","0","",""
"","feedback","","html-keyboard-response","302","366175","0.0-1.0-420.0-0.0","0","0","18487","","null","","","null","46","","","","","","","","","","","","","","","",""
"","time_out","","html-keyboard-response","303","368185","0.0-1.0-422.0-0.0","0","0","18487","","null","","","null","46","","","","","","","","","","","","","","","",""
"","ITI","","html-keyboard-response","304","369194","0.0-1.0-423.0","0","0","18487","","null","","","null","46","","","","","","","","","","","","","","","NaN",""
"","S1","","html-keyboard-response","305","369354","0.0-1.0-425.0","0","0","18487","","null","","","null","47","","","","","","","","","","","","","","","",""
"","ISI","","html-keyboard-response","306","371359","0.0-1.0-426.0","0","0","18487","","null","","","null","47","NaN","","","","","","","","","","","","","","",""
"","S2","","html-keyboard-response","307","371519","0.0-1.0-427.0","0","0","18487","","null","","","null","47","","NaN","","","","","","","","","","","","","",""
"","response","","html-keyboard-response","308","371862","0.0-1.0-428.0-0.0","0","0","18487","","340","","","75","47","","","1","47","training","adjacent","FE","6","5","O.jpg","P.jpg","1","0","0","",""
"","feedback","","html-keyboard-response","309","372873","0.0-1.0-429.0-0.0","0","0","18487","","null","","","null","47","","","","","","","","","","","","","","","",""
"","time_out","","html-keyboard-response","310","374878","0.0-1.0-431.0-0.0","0","0","18487","","null","","","null","47","","","","","","","","","","","","","","","",""
"","ITI","","html-keyboard-response","311","375887","0.0-1.0-432.0","0","0","18487","","null","","","null","47","","","","","","","","","","","","","","","NaN",""
"","block_over","","html-keyboard-response","312","474401","0.0-1.0-433.0-0.0","0","0","18487","","98511","","","32","47","","","","","","","","","","","","","","","",""
"","S1","","html-keyboard-response","313","474564","0.0-1.0-434.0","0","0","18487","","null","","","null","48","","","","","","","","","","","","","","","",""
"","ISI","","html-keyboard-response","314","476568","0.0-1.0-435.0","0","0","18487","","null","","","null","48","NaN","","","","","","","","","","","","","","",""
"","S2","","html-keyboard-response","315","476732","0.0-1.0-436.0","0","0","18487","","null","","","null","48","","NaN","","","","","","","","","","","","","",""
"","response","","html-keyboard-response","316","477320","0.0-1.0-437.0-0.0","0","0","18487","","585","","","68","48","","","2","48","training","adjacent","GF","7","6","R.jpg","O.jpg","0","0","1","",""
"","feedback","","html-keyboard-response","317","478331","0.0-1.0-438.0-0.0","0","0","18487","","null","","","null","48","","","","","","","","","","","","","","","",""
"","ITI","","html-keyboard-response","318","479340","0.0-1.0-441.0","0","0","18487","","null","","","null","48","","","","","","","","","","","","","","","NaN",""
"","S1","","html-keyboard-response","319","479500","0.0-1.0-443.0","0","0","18487","","null","","","null","49","","","","","","","","","","","","","","","",""
"","ISI","","html-keyboard-response","320","481508","0.0-1.0-444.0","0","0","18487","","null","","","null","49","NaN","","","","","","","","","","","","","","",""
"","S2","","html-keyboard-response","321","481667","0.0-1.0-445.0","0","0","18487","","null","","","null","49","","NaN","","","","","","","","","","","","","",""
"","response","","html-keyboard-response","322","482414","0.0-1.0-446.0-0.0","0","0","18487","","744","","","75","49","","","2","49","training","adjacent","FG","6","7","O.jpg","R.jpg","1","1","1","",""
"","feedback","","html-keyboard-response","323","483428","0.0-1.0-447.0-0.0","0","0","18487","","null","","","null","49","","","","","","","","","","","","","","","",""
"","ITI","","html-keyboard-response","324","484436","0.0-1.0-450.0","0","0","18487","","null","","","null","49","","","","","","","","","","","","","","","NaN",""
"","S1","","html-keyboard-response","325","484596","0.0-1.0-452.0","0","0","18487","","null","","","null","50","","","","","","","","","","","","","","","",""
"","ISI","","html-keyboard-response","326","486603","0.0-1.0-453.0","0","0","18487","","null","","","null","50","NaN","","","","","","","","","","","","","","",""
"","S2","","html-keyboard-response","327","486764","0.0-1.0-454.0","0","0","18487","","null","","","null","50","","NaN","","","","","","","","","","","","","",""
"","response","","html-keyboard-response","328","487593","0.0-1.0-455.0-0.0","0","0","18487","","827","","","68","50","","","2","50","training","adjacent","DE","4","5","N.jpg","P.jpg","0","1","0","",""
"","feedback","","html-keyboard-response","329","488604","0.0-1.0-456.0-0.0","0","0","18487","","null","","","null","50","","","","","","","","","","","","","","","",""
"","time_out","","html-keyboard-response","330","490613","0.0-1.0-458.0-0.0","0","0","18487","","null","","","null","50","","","","","","","","","","","","","","","",""
"","ITI","","html-keyboard-response","331","491621","0.0-1.0-459.0","0","0","18487","","null","","","null","50","","","","","","","","","","","","","","","NaN",""
"","S1","","html-keyboard-response","332","491781","0.0-1.0-461.0","0","0","18487","","null","","","null","51","","","","","","","","","","","","","","","",""
"","ISI","","html-keyboard-response","333","493788","0.0-1.0-462.0","0","0","18487","","null","","","null","51","NaN","","","","","","","","","","","","","","",""
"","S2","","html-keyboard-response","334","493948","0.0-1.0-463.0","0","0","18487","","null","","","null","51","","NaN","","","","","","","","","","","","","",""
"","response","","html-keyboard-response","335","494461","0.0-1.0-464.0-0.0","0","0","18487","","511","","","75","51","","","2","51","training","adjacent","FG","6","7","O.jpg","R.jpg","1","1","1","",""
"","feedback","","html-keyboard-response","336","495468","0.0-1.0-465.0-0.0","0","0","18487","","null","","","null","51","","","","","","","","","","","","","","","",""
"","ITI","","html-keyboard-response","337","496476","0.0-1.0-468.0","0","0","18487","","null","","","null","51","","","","","","","","","","","","","","","NaN",""
"","S1","","html-keyboard-response","338","496636","0.0-1.0-470.0","0","0","18487","","null","","","null","52","","","","","","","","","","","","","","","",""
"","ISI","","html-keyboard-response","339","498645","0.0-1.0-471.0","0","0","18487","","null","","","null","52","NaN","","","","","","","","","","","","","","",""
"","S2","","html-keyboard-response","340","498805","0.0-1.0-472.0","0","0","18487","","null","","","null","52","","NaN","","","","","","","","","","","","","",""
"","response","","html-keyboard-response","341","499293","0.0-1.0-473.0-0.0","0","0","18487","","486","","","68","52","","","2","52","training","adjacent","EF","5","6","P.jpg","O.jpg","0","1","0","",""
"","feedback","","html-keyboard-response","342","500300","0.0-1.0-474.0-0.0","0","0","18487","","null","","","null","52","","","","","","","","","","","","","","","",""
"","time_out","","html-keyboard-response","343","502309","0.0-1.0-476.0-0.0","0","0","18487","","null","","","null","52","","","","","","","","","","","","","","","",""
"","ITI","","html-keyboard-response","344","503316","0.0-1.0-477.0","0","0","18487","","null","","","null","52","","","","","","","","","","","","","","","NaN",""
"","S1","","html-keyboard-response","345","503477","0.0-1.0-479.0","0","0","18487","","null","","","null","53","","","","","","","","","","","","","","","",""
"","ISI","","html-keyboard-response","346","505484","0.0-1.0-480.0","0","0","18487","","null","","","null","53","NaN","","","","","","","","","","","","","","",""
"","S2","","html-keyboard-response","347","505643","0.0-1.0-481.0","0","0","18487","","null","","","null","53","","NaN","","","","","","","","","","","","","",""
"","response","","html-keyboard-response","348","506338","0.0-1.0-482.0-0.0","0","0","18487","","693","","","68","53","","","2","53","training","adjacent","ED","5","4","P.jpg","N.jpg","0","0","1","",""
"","feedback","","html-keyboard-response","349","507349","0.0-1.0-483.0-0.0","0","0","18487","","null","","","null","53","","","","","","","","","","","","","","","",""
"","ITI","","html-keyboard-response","350","508357","0.0-1.0-486.0","0","0","18487","","null","","","null","53","","","","","","","","","","","","","","","NaN",""
"","S1","","html-keyboard-response","351","508513","0.0-1.0-488.0","0","0","18487","","null","","","null","54","","","","","","","","","","","","","","","",""
"","ISI","","html-keyboard-response","352","510524","0.0-1.0-489.0","0","0","18487","","null","","","null","54","NaN","","","","","","","","","","","","","","",""
"","S2","","html-keyboard-response","353","510684","0.0-1.0-490.0","0","0","18487","","null","","","null","54","","NaN","","","","","","","","","","","","","",""
"","response","","html-keyboard-response","354","511394","0.0-1.0-491.0-0.0","0","0","18487","","708","","","75","54","","","2","54","training","adjacent","BC","2","3","Q.jpg","M.jpg","1","1","1","",""
"","feedback","","html-keyboard-response","355","512405","0.0-1.0-492.0-0.0","0","0","18487","","null","","","null","54","","","","","","","","","","","","","","","",""
"","ITI","","html-keyboard-response","356","513413","0.0-1.0-495.0","0","0","18487","","null","","","null","54","","","","","","","","","","","","","","","NaN",""
"","S1","","html-keyboard-response","357","513568","0.0-1.0-497.0","0","0","18487","","null","","","null","55","","","","","","","","","","","","","","","",""
"","ISI","","html-keyboard-response","358","515573","0.0-1.0-498.0","0","0","18487","","null","","","null","55","NaN","","","","","","","","","","","","","","",""
"","S2","","html-keyboard-response","359","515733","0.0-1.0-499.0","0","0","18487","","null","","","null","55","","NaN","","","","","","","","","","","","","",""
"","response","","html-keyboard-response","360","516918","0.0-1.0-500.0-0.0","0","0","18487","","1183","","","68","55","","","2","55","training","adjacent","AB","1","2","L.jpg","Q.jpg","0","1","0","",""
"","feedback","","html-keyboard-response","361","517932","0.0-1.0-501.0-0.0","0","0","18487","","null","","","null","55","","","","","","","","","","","","","","","",""
"","time_out","","html-keyboard-response","362","519941","0.0-1.0-503.0-0.0","0","0","18487","","null","","","null","55","","","","","","","","","","","","","","","",""
"","ITI","","html-keyboard-response","363","520949","0.0-1.0-504.0","0","0","18487","","null","","","null","55","","","","","","","","","","","","","","","NaN",""
"","S1","","html-keyboard-response","364","521109","0.0-1.0-506.0","0","0","18487","","null","","","null","56","","","","","","","","","","","","","","","",""
"","ISI","","html-keyboard-response","365","523116","0.0-1.0-507.0","0","0","18487","","null","","","null","56","NaN","","","","","","","","","","","","","","",""
"","S2","","html-keyboard-response","366","523276","0.0-1.0-508.0","0","0","18487","","null","","","null","56","","NaN","","","","","","","","","","","","","",""
"","response","","html-keyboard-response","367","523957","0.0-1.0-509.0-0.0","0","0","18487","","679","","","75","56","","","2","56","training","adjacent","CB","3","2","M.jpg","Q.jpg","1","0","0","",""
"","feedback","","html-keyboard-response","368","524965","0.0-1.0-510.0-0.0","0","0","18487","","null","","","null","56","","","","","","","","","","","","","","","",""
"","time_out","","html-keyboard-response","369","526972","0.0-1.0-512.0-0.0","0","0","18487","","null","","","null","56","","","","","","","","","","","","","","","",""
"","ITI","","html-keyboard-response","370","527980","0.0-1.0-513.0","0","0","18487","","null","","","null","56","","","","","","","","","","","","","","","NaN",""
"","S1","","html-keyboard-response","371","528141","0.0-1.0-515.0","0","0","18487","","null","","","null","57","","","","","","","","","","","","","","","",""
"","ISI","","html-keyboard-response","372","530148","0.0-1.0-516.0","0","0","18487","","null","","","null","57","NaN","","","","","","","","","","","","","","",""
"","S2","","html-keyboard-response","373","530309","0.0-1.0-517.0","0","0","18487","","null","","","null","57","","NaN","","","","","","","","","","","","","",""
"","response","","html-keyboard-response","374","530819","0.0-1.0-518.0-0.0","0","0","18487","","507","","","68","57","","","2","57","training","adjacent","DC","4","3","N.jpg","M.jpg","0","0","1","",""
"","feedback","","html-keyboard-response","375","531830","0.0-1.0-519.0-0.0","0","0","18487","","null","","","null","57","","","","","","","","","","","","","","","",""
"","ITI","","html-keyboard-response","376","532837","0.0-1.0-522.0","0","0","18487","","null","","","null","57","","","","","","","","","","","","","","","NaN",""
"","S1","","html-keyboard-response","377","532997","0.0-1.0-524.0","0","0","18487","","null","","","null","58","","","","","","","","","","","","","","","",""
"","ISI","","html-keyboard-response","378","535005","0.0-1.0-525.0","0","0","18487","","null","","","null","58","NaN","","","","","","","","","","","","","","",""
"","S2","","html-keyboard-response","379","535165","0.0-1.0-526.0","0","0","18487","","null","","","null","58","","NaN","","","","","","","","","","","","","",""
"","response","","html-keyboard-response","380","535656","0.0-1.0-527.0-0.0","0","0","18487","","489","","","68","58","","","2","58","training","adjacent","CD","3","4","M.jpg","N.jpg","0","1","0","",""
"","feedback","","html-keyboard-response","381","536669","0.0-1.0-528.0-0.0","0","0","18487","","null","","","null","58","","","","","","","","","","","","","","","",""
"","time_out","","html-keyboard-response","382","538678","0.0-1.0-530.0-0.0","0","0","18487","","null","","","null","58","","","","","","","","","","","","","","","",""
"","ITI","","html-keyboard-response","383","539686","0.0-1.0-531.0","0","0","18487","","null","","","null","58","","","","","","","","","","","","","","","NaN",""
"","S1","","html-keyboard-response","384","539846","0.0-1.0-533.0","0","0","18487","","null","","","null","59","","","","","","","","","","","","","","","",""
"","ISI","","html-keyboard-response","385","541853","0.0-1.0-534.0","0","0","18487","","null","","","null","59","NaN","","","","","","","","","","","","","","",""
"","S2","","html-keyboard-response","386","542013","0.0-1.0-535.0","0","0","18487","","null","","","null","59","","NaN","","","","","","","","","","","","","",""
"","response","","html-keyboard-response","387","542370","0.0-1.0-536.0-0.0","0","0","18487","","355","","","68","59","","","2","59","training","adjacent","FE","6","5","O.jpg","P.jpg","0","0","1","",""
"","feedback","","html-keyboard-response","388","543382","0.0-1.0-537.0-0.0","0","0","18487","","null","","","null","59","","","","","","","","","","","","","","","",""
"","ITI","","html-keyboard-response","389","544390","0.0-1.0-540.0","0","0","18487","","null","","","null","59","","","","","","","","","","","","","","","NaN",""
"","S1","","html-keyboard-response","390","544549","0.0-1.0-542.0","0","0","18487","","null","","","null","60","","","","","","","","","","","","","","","",""
"","ISI","","html-keyboard-response","391","546557","0.0-1.0-543.0","0","0","18487","","null","","","null","60","NaN","","","","","","","","","","","","","","",""
"","S2","","html-keyboard-response","392","546717","0.0-1.0-544.0","0","0","18487","","null","","","null","60","","NaN","","","","","","","","","","","","","",""
"","response","","html-keyboard-response","393","547294","0.0-1.0-545.0-0.0","0","0","18487","","574","","","68","60","","","2","60","training","adjacent","FG","6","7","O.jpg","R.jpg","0","1","0","",""
"","feedback","","html-keyboard-response","394","548301","0.0-1.0-546.0-0.0","0","0","18487","","null","","","null","60","","","","","","","","","","","","","","","",""
"","time_out","","html-keyboard-response","395","550310","0.0-1.0-548.0-0.0","0","0","18487","","null","","","null","60","","","","","","","","","","","","","","","",""
"","ITI","","html-keyboard-response","396","551317","0.0-1.0-549.0","0","0","18487","","null","","","null","60","","","","","","","","","","","","","","","NaN",""
"","S1","","html-keyboard-response","397","551478","0.0-1.0-551.0","0","0","18487","","null","","","null","61","","","","","","","","","","","","","","","",""
"","ISI","","html-keyboard-response","398","553485","0.0-1.0-552.0","0","0","18487","","null","","","null","61","NaN","","","","","","","","","","","","","","",""
"","S2","","html-keyboard-response","399","553645","0.0-1.0-553.0","0","0","18487","","null","","","null","61","","NaN","","","","","","","","","","","","","",""
"","response","","html-keyboard-response","400","554097","0.0-1.0-554.0-0.0","0","0","18487","","448","","","68","61","","","2","61","training","adjacent","EF","5","6","P.jpg","O.jpg","0","1","0","",""
"","feedback","","html-keyboard-response","401","555110","0.0-1.0-555.0-0.0","0","0","18487","","null","","","null","61","","","","","","","","","","","","","","","",""
"","time_out","","html-keyboard-response","402","557118","0.0-1.0-557.0-0.0","0","0","18487","","null","","","null","61","","","","","","","","","","","","","","","",""
"","ITI","","html-keyboard-response","403","558125","0.0-1.0-558.0","0","0","18487","","null","","","null","61","","","","","","","","","","","","","","","NaN",""
"","S1","","html-keyboard-response","404","558285","0.0-1.0-560.0","0","0","18487","","null","","","null","62","","","","","","","","","","","","","","","",""
"","ISI","","html-keyboard-response","405","560294","0.0-1.0-561.0","0","0","18487","","null","","","null","62","NaN","","","","","","","","","","","","","","",""
"","S2","","html-keyboard-response","406","560454","0.0-1.0-562.0","0","0","18487","","null","","","null","62","","NaN","","","","","","","","","","","","","",""
"","response","","html-keyboard-response","407","561343","0.0-1.0-563.0-0.0","0","0","18487","","886","","","75","62","","","2","62","training","adjacent","ED","5","4","P.jpg","N.jpg","1","0","0","",""
"","feedback","","html-keyboard-response","408","562357","0.0-1.0-564.0-0.0","0","0","18487","","null","","","null","62","","","","","","","","","","","","","","","",""
"","time_out","","html-keyboard-response","409","564366","0.0-1.0-566.0-0.0","0","0","18487","","null","","","null","62","","","","","","","","","","","","","","","",""
"","ITI","","html-keyboard-response","410","565373","0.0-1.0-567.0","0","0","18487","","null","","","null","62","","","","","","","","","","","","","","","NaN",""
"","S1","","html-keyboard-response","411","565534","0.0-1.0-569.0","0","0","18487","","null","","","null","63","","","","","","","","","","","","","","","",""
"","ISI","","html-keyboard-response","412","567542","0.0-1.0-570.0","0","0","18487","","null","","","null","63","NaN","","","","","","","","","","","","","","",""
"","S2","","html-keyboard-response","413","567702","0.0-1.0-571.0","0","0","18487","","null","","","null","63","","NaN","","","","","","","","","","","","","",""
"","response","","html-keyboard-response","414","568372","0.0-1.0-572.0-0.0","0","0","18487","","668","","","75","63","","","2","63","training","adjacent","BA","2","1","Q.jpg","L.jpg","1","0","0","",""
"","feedback","","html-keyboard-response","415","569381","0.0-1.0-573.0-0.0","0","0","18487","","null","","","null","63","","","","","","","","","","","","","","","",""
"","time_out","","html-keyboard-response","416","571390","0.0-1.0-575.0-0.0","0","0","18487","","null","","","null","63","","","","","","","","","","","","","","","",""
"","ITI","","html-keyboard-response","417","572397","0.0-1.0-576.0","0","0","18487","","null","","","null","63","","","","","","","","","","","","","","","NaN",""
"","S1","","html-keyboard-response","418","572558","0.0-1.0-578.0","0","0","18487","","null","","","null","64","","","","","","","","","","","","","","","",""
"","ISI","","html-keyboard-response","419","574566","0.0-1.0-579.0","0","0","18487","","null","","","null","64","NaN","","","","","","","","","","","","","","",""
"","S2","","html-keyboard-response","420","574726","0.0-1.0-580.0","0","0","18487","","null","","","null","64","","NaN","","","","","","","","","","","","","",""
"","response","","html-keyboard-response","421","575218","0.0-1.0-581.0-0.0","0","0","18487","","489","","","75","64","","","2","64","training","adjacent","GF","7","6","R.jpg","O.jpg","1","0","0","",""
"","feedback","","html-keyboard-response","422","576230","0.0-1.0-582.0-0.0","0","0","18487","","null","","","null","64","","","","","","","","","","","","","","","",""
"","time_out","","html-keyboard-response","423","578238","0.0-1.0-584.0-0.0","0","0","18487","","null","","","null","64","","","","","","","","","","","","","","","",""
"","ITI","","html-keyboard-response","424","579246","0.0-1.0-585.0","0","0","18487","","null","","","null","64","","","","","","","","","","","","","","","NaN",""
"","S1","","html-keyboard-response","425","579406","0.0-1.0-587.0","0","0","18487","","null","","","null","65","","","","","","","","","","","","","","","",""
"","ISI","","html-keyboard-response","426","581415","0.0-1.0-588.0","0","0","18487","","null","","","null","65","NaN","","","","","","","","","","","","","","",""
"","S2","","html-keyboard-response","427","581575","0.0-1.0-589.0","0","0","18487","","null","","","null","65","","NaN","","","","","","","","","","","","","",""
"","response","","html-keyboard-response","428","582024","0.0-1.0-590.0-0.0","0","0","18487","","446","","","68","65","","","2","65","training","adjacent","ED","5","4","P.jpg","N.jpg","0","0","1","",""
"","feedback","","html-keyboard-response","429","583037","0.0-1.0-591.0-0.0","0","0","18487","","null","","","null","65","","","","","","","","","","","","","","","",""
"","ITI","","html-keyboard-response","430","584046","0.0-1.0-594.0","0","0","18487","","null","","","null","65","","","","","","","","","","","","","","","NaN",""
"","S1","","html-keyboard-response","431","584206","0.0-1.0-596.0","0","0","18487","","null","","","null","66","","","","","","","","","","","","","","","",""
"","ISI","","html-keyboard-response","432","586214","0.0-1.0-597.0","0","0","18487","","null","","","null","66","NaN","","","","","","","","","","","","","","",""
"","S2","","html-keyboard-response","433","586373","0.0-1.0-598.0","0","0","18487","","null","","","null","66","","NaN","","","","","","","","","","","","","",""
"","response","","html-keyboard-response","434","586973","0.0-1.0-599.0-0.0","0","0","18487","","598","","","75","66","","","2","66","training","adjacent","BA","2","1","Q.jpg","L.jpg","1","0","0","",""
"","feedback","","html-keyboard-response","435","587980","0.0-1.0-600.0-0.0","0","0","18487","","null","","","null","66","","","","","","","","","","","","","","","",""
"","time_out","","html-keyboard-response","436","589990","0.0-1.0-602.0-0.0","0","0","18487","","null","","","null","66","","","","","","","","","","","","","","","",""
"","ITI","","html-keyboard-response","437","590999","0.0-1.0-603.0","0","0","18487","","null","","","null","66","","","","","","","","","","","","","","","NaN",""
"","S1","","html-keyboard-response","438","591159","0.0-1.0-605.0","0","0","18487","","null","","","null","67","","","","","","","","","","","","","","","",""
"","ISI","","html-keyboard-response","439","593166","0.0-1.0-606.0","0","0","18487","","null","","","null","67","NaN","","","","","","","","","","","","","","",""
"","S2","","html-keyboard-response","440","593326","0.0-1.0-607.0","0","0","18487","","null","","","null","67","","NaN","","","","","","","","","","","","","",""
"","response","","html-keyboard-response","441","593984","0.0-1.0-608.0-0.0","0","0","18487","","655","","","68","67","","","2","67","training","adjacent","EF","5","6","P.jpg","O.jpg","0","1","0","",""
"","feedback","","html-keyboard-response","442","594995","0.0-1.0-609.0-0.0","0","0","18487","","null","","","null","67","","","","","","","","","","","","","","","",""
"","time_out","","html-keyboard-response","443","597007","0.0-1.0-611.0-0.0","0","0","18487","","null","","","null","67","","","","","","","","","","","","","","","",""
"","ITI","","html-keyboard-response","444","598014","0.0-1.0-612.0","0","0","18487","","null","","","null","67","","","","","","","","","","","","","","","NaN",""
"","S1","","html-keyboard-response","445","598174","0.0-1.0-614.0","0","0","18487","","null","","","null","68","","","","","","","","","","","","","","","",""
"","ISI","","html-keyboard-response","446","600183","0.0-1.0-615.0","0","0","18487","","null","","","null","68","NaN","","","","","","","","","","","","","","",""
"","S2","","html-keyboard-response","447","600342","0.0-1.0-616.0","0","0","18487","","null","","","null","68","","NaN","","","","","","","","","","","","","",""
"","response","","html-keyboard-response","448","600931","0.0-1.0-617.0-0.0","0","0","18487","","585","","","68","68","","","2","68","training","adjacent","EF","5","6","P.jpg","O.jpg","0","1","0","",""
"","feedback","","html-keyboard-response","449","601943","0.0-1.0-618.0-0.0","0","0","18487","","null","","","null","68","","","","","","","","","","","","","","","",""
"","time_out","","html-keyboard-response","450","603951","0.0-1.0-620.0-0.0","0","0","18487","","null","","","null","68","","","","","","","","","","","","","","","",""
"","ITI","","html-keyboard-response","451","604959","0.0-1.0-621.0","0","0","18487","","null","","","null","68","","","","","","","","","","","","","","","NaN",""
"","S1","","html-keyboard-response","452","605119","0.0-1.0-623.0","0","0","18487","","null","","","null","69","","","","","","","","","","","","","","","",""
"","ISI","","html-keyboard-response","453","607127","0.0-1.0-624.0","0","0","18487","","null","","","null","69","NaN","","","","","","","","","","","","","","",""
"","S2","","html-keyboard-response","454","607287","0.0-1.0-625.0","0","0","18487","","null","","","null","69","","NaN","","","","","","","","","","","","","",""
"","response","","html-keyboard-response","455","608334","0.0-1.0-626.0-0.0","0","0","18487","","1045","","","75","69","","","2","69","training","adjacent","BC","2","3","Q.jpg","M.jpg","1","1","1","",""
"","feedback","","html-keyboard-response","456","609343","0.0-1.0-627.0-0.0","0","0","18487","","null","","","null","69","","","","","","","","","","","","","","","",""
"","ITI","","html-keyboard-response","457","610350","0.0-1.0-630.0","0","0","18487","","null","","","null","69","","","","","","","","","","","","","","","NaN",""
"","S1","","html-keyboard-response","458","610511","0.0-1.0-632.0","0","0","18487","","null","","","null","70","","","","","","","","","","","","","","","",""
"","ISI","","html-keyboard-response","459","612519","0.0-1.0-633.0","0","0","18487","","null","","","null","70","NaN","","","","","","","","","","","","","","",""
"","S2","","html-keyboard-response","460","612679","0.0-1.0-634.0","0","0","18487","","null","","","null","70","","NaN","","","","","","","","","","","","","",""
"","response","","html-keyboard-response","461","613597","0.0-1.0-635.0-0.0","0","0","18487","","915","","","68","70","","","2","70","training","adjacent","FE","6","5","O.jpg","P.jpg","0","0","1","",""
"","feedback","","html-keyboard-response","462","614607","0.0-1.0-636.0-0.0","0","0","18487","","null","","","null","70","","","","","","","","","","","","","","","",""
"","ITI","","html-keyboard-response","463","615614","0.0-1.0-639.0","0","0","18487","","null","","","null","70","","","","","","","","","","","","","","","NaN",""
"","S1","","html-keyboard-response","464","615775","0.0-1.0-641.0","0","0","18487","","null","","","null","71","","","","","","","","","","","","","","","",""
"","ISI","","html-keyboard-response","465","617781","0.0-1.0-642.0","0","0","18487","","null","","","null","71","NaN","","","","","","","","","","","","","","",""
"","S2","","html-keyboard-response","466","617943","0.0-1.0-643.0","0","0","18487","","null","","","null","71","","NaN","","","","","","","","","","","","","",""
"","response","","html-keyboard-response","467","618964","0.0-1.0-644.0-0.0","0","0","18487","","1018","","","75","71","","","2","71","training","adjacent","GF","7","6","R.jpg","O.jpg","1","0","0","",""
"","feedback","","html-keyboard-response","468","619975","0.0-1.0-645.0-0.0","0","0","18487","","null","","","null","71","","","","","","","","","","","","","","","",""
"","time_out","","html-keyboard-response","469","621983","0.0-1.0-647.0-0.0","0","0","18487","","null","","","null","71","","","","","","","","","","","","","","","",""
"","ITI","","html-keyboard-response","470","622988","0.0-1.0-648.0","0","0","18487","","null","","","null","71","","","","","","","","","","","","","","","NaN",""
"","S1","","html-keyboard-response","471","623151","0.0-1.0-650.0","0","0","18487","","null","","","null","72","","","","","","","","","","","","","","","",""
"","ISI","","html-keyboard-response","472","625160","0.0-1.0-651.0","0","0","18487","","null","","","null","72","NaN","","","","","","","","","","","","","","",""
"","S2","","html-keyboard-response","473","625320","0.0-1.0-652.0","0","0","18487","","null","","","null","72","","NaN","","","","","","","","","","","","","",""
"","response","","html-keyboard-response","474","626143","0.0-1.0-653.0-0.0","0","0","18487","","821","","","68","72","","","2","72","training","adjacent","DE","4","5","N.jpg","P.jpg","0","1","0","",""
"","feedback","","html-keyboard-response","475","627151","0.0-1.0-654.0-0.0","0","0","18487","","null","","","null","72","","","","","","","","","","","","","","","",""
"","time_out","","html-keyboard-response","476","629158","0.0-1.0-656.0-0.0","0","0","18487","","null","","","null","72","","","","","","","","","","","","","","","",""
"","ITI","","html-keyboard-response","477","630168","0.0-1.0-657.0","0","0","18487","","null","","","null","72","","","","","","","","","","","","","","","NaN",""
"","S1","","html-keyboard-response","478","630328","0.0-1.0-659.0","0","0","18487","","null","","","null","73","","","","","","","","","","","","","","","",""
"","ISI","","html-keyboard-response","479","632335","0.0-1.0-660.0","0","0","18487","","null","","","null","73","NaN","","","","","","","","","","","","","","",""
"","S2","","html-keyboard-response","480","632495","0.0-1.0-661.0","0","0","18487","","null","","","null","73","","NaN","","","","","","","","","","","","","",""
"","response","","html-keyboard-response","481","633193","0.0-1.0-662.0-0.0","0","0","18487","","695","","","75","73","","","2","73","training","adjacent","CD","3","4","M.jpg","N.jpg","1","1","1","",""
"","feedback","","html-keyboard-response","482","634207","0.0-1.0-663.0-0.0","0","0","18487","","null","","","null","73","","","","","","","","","","","","","","","",""
"","ITI","","html-keyboard-response","483","635215","0.0-1.0-666.0","0","0","18487","","null","","","null","73","","","","","","","","","","","","","","","NaN",""
"","S1","","html-keyboard-response","484","635372","0.0-1.0-668.0","0","0","18487","","null","","","null","74","","","","","","","","","","","","","","","",""
"","ISI","","html-keyboard-response","485","637384","0.0-1.0-669.0","0","0","18487","","null","","","null","74","NaN","","","","","","","","","","","","","","",""
"","S2","","html-keyboard-response","486","637544","0.0-1.0-670.0","0","0","18487","","null","","","null","74","","NaN","","","","","","","","","","","","","",""
"","response","","html-keyboard-response","487","638175","0.0-1.0-671.0-0.0","0","0","18487","","629","","","75","74","","","2","74","training","adjacent","CB","3","2","M.jpg","Q.jpg","1","0","0","",""
"","feedback","","html-keyboard-response","488","639182","0.0-1.0-672.0-0.0","0","0","18487","","null","","","null","74","","","","","","","","","","","","","","","",""
"","time_out","","html-keyboard-response","489","641192","0.0-1.0-674.0-0.0","0","0","18487","","null","","","null","74","","","","","","","","","","","","","","","",""
"","ITI","","html-keyboard-response","490","642198","0.0-1.0-675.0","0","0","18487","","null","","","null","74","","","","","","","","","","","","","","","NaN",""
"","S1","","html-keyboard-response","491","642360","0.0-1.0-677.0","0","0","18487","","null","","","null","75","","","","","","","","","","","","","","","",""
"","ISI","","html-keyboard-response","492","644368","0.0-1.0-678.0","0","0","18487","","null","","","null","75","NaN","","","","","","","","","","","","","","",""
"","S2","","html-keyboard-response","493","644528","0.0-1.0-679.0","0","0","18487","","null","","","null","75","","NaN","","","","","","","","","","","","","",""
"","response","","html-keyboard-response","494","645012","0.0-1.0-680.0-0.0","0","0","18487","","482","","","75","75","","","2","75","training","adjacent","BC","2","3","Q.jpg","M.jpg","1","1","1","",""
"","feedback","","html-keyboard-response","495","646024","0.0-1.0-681.0-0.0","0","0","18487","","null","","","null","75","","","","","","","","","","","","","","","",""
"","ITI","","html-keyboard-response","496","647032","0.0-1.0-684.0","0","0","18487","","null","","","null","75","","","","","","","","","","","","","","","NaN",""
"","S1","","html-keyboard-response","497","647192","0.0-1.0-686.0","0","0","18487","","null","","","null","76","","","","","","","","","","","","","","","",""
"","ISI","","html-keyboard-response","498","649200","0.0-1.0-687.0","0","0","18487","","null","","","null","76","NaN","","","","","","","","","","","","","","",""
"","S2","","html-keyboard-response","499","649360","0.0-1.0-688.0","0","0","18487","","null","","","null","76","","NaN","","","","","","","","","","","","","",""
"","response","","html-keyboard-response","500","649933","0.0-1.0-689.0-0.0","0","0","18487","","571","","","68","76","","","2","76","training","adjacent","CD","3","4","M.jpg","N.jpg","0","1","0","",""
"","feedback","","html-keyboard-response","501","650944","0.0-1.0-690.0-0.0","0","0","18487","","null","","","null","76","","","","","","","","","","","","","","","",""
"","time_out","","html-keyboard-response","502","652952","0.0-1.0-692.0-0.0","0","0","18487","","null","","","null","76","","","","","","","","","","","","","","","",""
"","ITI","","html-keyboard-response","503","653959","0.0-1.0-693.0","0","0","18487","","null","","","null","76","","","","","","","","","","","","","","","NaN",""
"","S1","","html-keyboard-response","504","654120","0.0-1.0-695.0","0","0","18487","","null","","","null","77","","","","","","","","","","","","","","","",""
"","ISI","","html-keyboard-response","505","656128","0.0-1.0-696.0","0","0","18487","","null","","","null","77","NaN","","","","","","","","","","","","","","",""
"","S2","","html-keyboard-response","506","656287","0.0-1.0-697.0","0","0","18487","","null","","","null","77","","NaN","","","","","","","","","","","","","",""
"","response","","html-keyboard-response","507","656948","0.0-1.0-698.0-0.0","0","0","18487","","658","","","68","77","","","2","77","training","adjacent","BC","2","3","Q.jpg","M.jpg","0","1","0","",""
"","feedback","","html-keyboard-response","508","657960","0.0-1.0-699.0-0.0","0","0","18487","","null","","","null","77","","","","","","","","","","","","","","","",""
"","time_out","","html-keyboard-response","509","659968","0.0-1.0-701.0-0.0","0","0","18487","","null","","","null","77","","","","","","","","","","","","","","","",""
"","ITI","","html-keyboard-response","510","660975","0.0-1.0-702.0","0","0","18487","","null","","","null","77","","","","","","","","","","","","","","","NaN",""
"","S1","","html-keyboard-response","511","661133","0.0-1.0-704.0","0","0","18487","","null","","","null","78","","","","","","","","","","","","","","","",""
"","ISI","","html-keyboard-response","512","663141","0.0-1.0-705.0","0","0","18487","","null","","","null","78","NaN","","","","","","","","","","","","","","",""
"","S2","","html-keyboard-response","513","663304","0.0-1.0-706.0","0","0","18487","","null","","","null","78","","NaN","","","","","","","","","","","","","",""
"","response","","html-keyboard-response","514","664286","0.0-1.0-707.0-0.0","0","0","18487","","980","","","75","78","","","2","78","training","adjacent","FG","6","7","O.jpg","R.jpg","1","1","1","",""
"","feedback","","html-keyboard-response","515","665297","0.0-1.0-708.0-0.0","0","0","18487","","null","","","null","78","","","","","","","","","","","","","","","",""
"","ITI","","html-keyboard-response","516","666304","0.0-1.0-711.0","0","0","18487","","null","","","null","78","","","","","","","","","","","","","","","NaN",""
"","S1","","html-keyboard-response","517","666463","0.0-1.0-713.0","0","0","18487","","null","","","null","79","","","","","","","","","","","","","","","",""
"","ISI","","html-keyboard-response","518","668472","0.0-1.0-714.0","0","0","18487","","null","","","null","79","NaN","","","","","","","","","","","","","","",""
"","S2","","html-keyboard-response","519","668632","0.0-1.0-715.0","0","0","18487","","null","","","null","79","","NaN","","","","","","","","","","","","","",""
"","response","","html-keyboard-response","520","669362","0.0-1.0-716.0-0.0","0","0","18487","","728","","","75","79","","","2","79","training","adjacent","CD","3","4","M.jpg","N.jpg","1","1","1","",""
"","feedback","","html-keyboard-response","521","670376","0.0-1.0-717.0-0.0","0","0","18487","","null","","","null","79","","","","","","","","","","","","","","","",""
"","ITI","","html-keyboard-response","522","671385","0.0-1.0-720.0","0","0","18487","","null","","","null","79","","","","","","","","","","","","","","","NaN",""
"","S1","","html-keyboard-response","523","671545","0.0-1.0-722.0","0","0","18487","","null","","","null","80","","","","","","","","","","","","","","","",""
"","ISI","","html-keyboard-response","524","673552","0.0-1.0-723.0","0","0","18487","","null","","","null","80","NaN","","","","","","","","","","","","","","",""
"","S2","","html-keyboard-response","525","673712","0.0-1.0-724.0","0","0","18487","","null","","","null","80","","NaN","","","","","","","","","","","","","",""
"","response","","html-keyboard-response","526","674277","0.0-1.0-725.0-0.0","0","0","18487","","563","","","68","80","","","2","80","training","adjacent","AB","1","2","L.jpg","Q.jpg","0","1","0","",""
"","feedback","","html-keyboard-response","527","675289","0.0-1.0-726.0-0.0","0","0","18487","","null","","","null","80","","","","","","","","","","","","","","","",""
"","time_out","","html-keyboard-response","528","677295","0.0-1.0-728.0-0.0","0","0","18487","","null","","","null","80","","","","","","","","","","","","","","","",""
"","ITI","","html-keyboard-response","529","678304","0.0-1.0-729.0","0","0","18487","","null","","","null","80","","","","","","","","","","","","","","","NaN",""
"","S1","","html-keyboard-response","530","678464","0.0-1.0-731.0","0","0","18487","","null","","","null","81","","","","","","","","","","","","","","","",""
"","ISI","","html-keyboard-response","531","680473","0.0-1.0-732.0","0","0","18487","","null","","","null","81","NaN","","","","","","","","","","","","","","",""
"","S2","","html-keyboard-response","532","680633","0.0-1.0-733.0","0","0","18487","","null","","","null","81","","NaN","","","","","","","","","","","","","",""
"","response","","html-keyboard-response","533","681455","0.0-1.0-734.0-0.0","0","0","18487","","820","","","68","81","","","2","81","training","adjacent","DC","4","3","N.jpg","M.jpg","0","0","1","",""
"","feedback","","html-keyboard-response","534","682464","0.0-1.0-735.0-0.0","0","0","18487","","null","","","null","81","","","","","","","","","","","","","","","",""
"","ITI","","html-keyboard-response","535","683472","0.0-1.0-738.0","0","0","18487","","null","","","null","81","","","","","","","","","","","","","","","NaN",""
"","S1","","html-keyboard-response","536","683632","0.0-1.0-740.0","0","0","18487","","null","","","null","82","","","","","","","","","","","","","","","",""
"","ISI","","html-keyboard-response","537","685641","0.0-1.0-741.0","0","0","18487","","null","","","null","82","NaN","","","","","","","","","","","","","","",""
"","S2","","html-keyboard-response","538","685801","0.0-1.0-742.0","0","0","18487","","null","","","null","82","","NaN","","","","","","","","","","","","","",""
"","response","","html-keyboard-response","539","686679","0.0-1.0-743.0-0.0","0","0","18487","","876","","","68","82","","","2","82","training","adjacent","DC","4","3","N.jpg","M.jpg","0","0","1","",""
"","feedback","","html-keyboard-response","540","687688","0.0-1.0-744.0-0.0","0","0","18487","","null","","","null","82","","","","","","","","","","","","","","","",""
"","ITI","","html-keyboard-response","541","688641","0.0-1.0-747.0","0","0","18487","","null","","","null","82","","","","","","","","","","","","","","","NaN",""
"","S1","","html-keyboard-response","542","688802","0.0-1.0-749.0","0","0","18487","","null","","","null","83","","","","","","","","","","","","","","","",""
"","ISI","","html-keyboard-response","543","690810","0.0-1.0-750.0","0","0","18487","","null","","","null","83","NaN","","","","","","","","","","","","","","",""
"","S2","","html-keyboard-response","544","690970","0.0-1.0-751.0","0","0","18487","","null","","","null","83","","NaN","","","","","","","","","","","","","",""
"","response","","html-keyboard-response","545","691576","0.0-1.0-752.0-0.0","0","0","18487","","603","","","68","83","","","2","83","training","adjacent","FE","6","5","O.jpg","P.jpg","0","0","1","",""
"","feedback","","html-keyboard-response","546","692586","0.0-1.0-753.0-0.0","0","0","18487","","null","","","null","83","","","","","","","","","","","","","","","",""
"","ITI","","html-keyboard-response","547","693593","0.0-1.0-756.0","0","0","18487","","null","","","null","83","","","","","","","","","","","","","","","NaN",""
"","S1","","html-keyboard-response","548","693753","0.0-1.0-758.0","0","0","18487","","null","","","null","84","","","","","","","","","","","","","","","",""
"","ISI","","html-keyboard-response","549","695762","0.0-1.0-759.0","0","0","18487","","null","","","null","84","NaN","","","","","","","","","","","","","","",""
"","S2","","html-keyboard-response","550","695922","0.0-1.0-760.0","0","0","18487","","null","","","null","84","","NaN","","","","","","","","","","","","","",""
"","response","","html-keyboard-response","551","696487","0.0-1.0-761.0-0.0","0","0","18487","","563","","","68","84","","","2","84","training","adjacent","AB","1","2","L.jpg","Q.jpg","0","1","0","",""
"","feedback","","html-keyboard-response","552","697498","0.0-1.0-762.0-0.0","0","0","18487","","null","","","null","84","","","","","","","","","","","","","","","",""
"","time_out","","html-keyboard-response","553","699506","0.0-1.0-764.0-0.0","0","0","18487","","null","","","null","84","","","","","","","","","","","","","","","",""
"","ITI","","html-keyboard-response","554","700514","0.0-1.0-765.0","0","0","18487","","null","","","null","84","","","","","","","","","","","","","","","NaN",""
"","S1","","html-keyboard-response","555","700674","0.0-1.0-767.0","0","0","18487","","null","","","null","85","","","","","","","","","","","","","","","",""
"","ISI","","html-keyboard-response","556","702682","0.0-1.0-768.0","0","0","18487","","null","","","null","85","NaN","","","","","","","","","","","","","","",""
"","S2","","html-keyboard-response","557","702842","0.0-1.0-769.0","0","0","18487","","null","","","null","85","","NaN","","","","","","","","","","","","","",""
"","response","","html-keyboard-response","558","703388","0.0-1.0-770.0-0.0","0","0","18487","","544","","","68","85","","","2","85","training","adjacent","DE","4","5","N.jpg","P.jpg","0","1","0","",""
"","feedback","","html-keyboard-response","559","704401","0.0-1.0-771.0-0.0","0","0","18487","","null","","","null","85","","","","","","","","","","","","","","","",""
"","time_out","","html-keyboard-response","560","706409","0.0-1.0-773.0-0.0","0","0","18487","","null","","","null","85","","","","","","","","","","","","","","","",""
"","ITI","","html-keyboard-response","561","707417","0.0-1.0-774.0","0","0","18487","","null","","","null","85","","","","","","","","","","","","","","","NaN",""
"","S1","","html-keyboard-response","562","707578","0.0-1.0-776.0","0","0","18487","","null","","","null","86","","","","","","","","","","","","","","","",""
"","ISI","","html-keyboard-response","563","709586","0.0-1.0-777.0","0","0","18487","","null","","","null","86","NaN","","","","","","","","","","","","","","",""
"","S2","","html-keyboard-response","564","709745","0.0-1.0-778.0","0","0","18487","","null","","","null","86","","NaN","","","","","","","","","","","","","",""
"","response","","html-keyboard-response","565","710412","0.0-1.0-779.0-0.0","0","0","18487","","666","","","68","86","","","2","86","training","adjacent","FE","6","5","O.jpg","P.jpg","0","0","1","",""
"","feedback","","html-keyboard-response","566","711426","0.0-1.0-780.0-0.0","0","0","18487","","null","","","null","86","","","","","","","","","","","","","","","",""
"","ITI","","html-keyboard-response","567","712434","0.0-1.0-783.0","0","0","18487","","null","","","null","86","","","","","","","","","","","","","","","NaN",""
"","S1","","html-keyboard-response","568","712595","0.0-1.0-785.0","0","0","18487","","null","","","null","87","","","","","","","","","","","","","","","",""
"","ISI","","html-keyboard-response","569","714601","0.0-1.0-786.0","0","0","18487","","null","","","null","87","NaN","","","","","","","","","","","","","","",""
"","S2","","html-keyboard-response","570","714762","0.0-1.0-787.0","0","0","18487","","null","","","null","87","","NaN","","","","","","","","","","","","","",""
"","response","","html-keyboard-response","571","715161","0.0-1.0-788.0-0.0","0","0","18487","","397","","","68","87","","","2","87","training","adjacent","DC","4","3","N.jpg","M.jpg","0","0","1","",""
"","feedback","","html-keyboard-response","572","716169","0.0-1.0-789.0-0.0","0","0","18487","","null","","","null","87","","","","","","","","","","","","","","","",""
"","ITI","","html-keyboard-response","573","717177","0.0-1.0-792.0","0","0","18487","","null","","","null","87","","","","","","","","","","","","","","","NaN",""
"","S1","","html-keyboard-response","574","717338","0.0-1.0-794.0","0","0","18487","","null","","","null","88","","","","","","","","","","","","","","","",""
"","ISI","","html-keyboard-response","575","719347","0.0-1.0-795.0","0","0","18487","","null","","","null","88","NaN","","","","","","","","","","","","","","",""
"","S2","","html-keyboard-response","576","719507","0.0-1.0-796.0","0","0","18487","","null","","","null","88","","NaN","","","","","","","","","","","","","",""
"","response","","html-keyboard-response","577","720831","0.0-1.0-797.0-0.0","0","0","18487","","1322","","","75","88","","","2","88","training","adjacent","GF","7","6","R.jpg","O.jpg","1","0","0","",""
"","feedback","","html-keyboard-response","578","721842","0.0-1.0-798.0-0.0","0","0","18487","","null","","","null","88","","","","","","","","","","","","","","","",""
"","time_out","","html-keyboard-response","579","723850","0.0-1.0-800.0-0.0","0","0","18487","","null","","","null","88","","","","","","","","","","","","","","","",""
"","ITI","","html-keyboard-response","580","724859","0.0-1.0-801.0","0","0","18487","","null","","","null","88","","","","","","","","","","","","","","","NaN",""
"","S1","","html-keyboard-response","581","725018","0.0-1.0-803.0","0","0","18487","","null","","","null","89","","","","","","","","","","","","","","","",""
"","ISI","","html-keyboard-response","582","727027","0.0-1.0-804.0","0","0","18487","","null","","","null","89","NaN","","","","","","","","","","","","","","",""
