"success","ttype","start_time","trial_type","trial_index","time_elapsed","internal_node_id","warning","missed_checkup","PID","view_history","rt","responses","repeat_instructions","key_press","index","keypress_isi","keypress_S2","block","trial_num","phase","group_type","pair_type","S1_stim","S2_stim","S1_img","S2_img","S1_chosen","S1_higher","accuracy","keypress_iti","total_bonus_tally"
"true","full_screen","d04062023hr1744","fullscreen","0","11399","0.0-0.0","0","0","45177","","","","","","","","","","","","","","","","","","","","","",""
"","instructions","","instructions","1","49818","0.0-1.0-0.0-0.0","0","0","45177","[{""page_index"":0,""viewing_time"":6295},{""page_index"":1,""viewing_time"":21852},{""page_index"":2,""viewing_time"":7684},{""page_index"":3,""viewing_time"":2584}]","38416","","","","","","","","","","","","","","","","","","","",""
"","comprehension_check","","survey-multi-choice","2","102089","0.0-1.0-0.0-1.0","0","0","45177","","52267","{""Q0"":""True"",""Q1"":""K"",""Q2"":""Only when the screen 'MAKE A CHOICE' is shown"",""Q3"":""Green mark"",""Q4"":""either D or K""}","1","","","","","","","","","","","","","","","","","",""
"","missed_instruction_checkup","","html-keyboard-response","3","104632","0.0-1.0-0.0-2.0-0.0","0","1","45177","","2532","","","32","","","","","","","","","","","","","","","","",""
"","instructions","","instructions","4","128211","0.0-1.0-0.1-0.1","0","0","45177","[{""page_index"":0,""viewing_time"":5439},{""page_index"":1,""viewing_time"":13785},{""page_index"":2,""viewing_time"":3434},{""page_index"":3,""viewing_time"":916}]","23575","","","","","","","","","","","","","","","","","","","",""
"","comprehension_check","","survey-multi-choice","5","143482","0.0-1.0-0.1-1.1","0","0","45177","","15266","{""Q0"":""True"",""Q1"":""K"",""Q2"":""Once the second image appears and while the screen 'MAKE A CHOICE' is shown"",""Q3"":""Green mark"",""Q4"":""either D or K""}","0","","","","","","","","","","","","","","","","","",""
"","start_exp","","html-keyboard-response","6","145851","0.0-1.0-1.0","0","0","45177","","2367","","","32","","","","","","","","","","","","","","","","",""
"","S1","","html-keyboard-response","7","146012","0.0-1.0-2.0","0","0","45177","","null","","","null","0","","","","","","","","","","","","","","","",""
"","ISI","","html-keyboard-response","8","148020","0.0-1.0-3.0","0","0","45177","","null","","","null","0","NaN","","","","","","","","","","","","","","",""
"","S2","","html-keyboard-response","9","148179","0.0-1.0-4.0","0","0","45177","","null","","","null","0","","NaN","","","","","","","","","","","","","",""
"","response","","html-keyboard-response","10","150040","0.0-1.0-5.0-0.0","0","0","45177","","null","","","null","0","","","1","0","training","adjacent","FG","6","7","R.jpg","N.jpg","NaN","1","0","",""
"","too_slow_prompt","","html-keyboard-response","11","151049","0.0-1.0-7.0-0.0","1","0","45177","","null","","","null","","","","","","","","","","","","","","","","",""
"","time_out","","html-keyboard-response","12","153062","0.0-1.0-8.0-0.0","0","0","45177","","null","","","null","0","","","","","","","","","","","","","","","",""
"","ITI","","html-keyboard-response","13","154075","0.0-1.0-9.0","0","0","45177","","null","","","null","0","","","","","","","","","","","","","","","NaN",""
"","S1","","html-keyboard-response","14","154234","0.0-1.0-11.0","0","0","45177","","null","","","null","1","","","","","","","","","","","","","","","",""
"","ISI","","html-keyboard-response","15","156244","0.0-1.0-12.0","0","0","45177","","null","","","null","1","NaN","","","","","","","","","","","","","","",""
"","S2","","html-keyboard-response","16","156402","0.0-1.0-13.0","0","0","45177","","null","","","null","1","","NaN","","","","","","","","","","","","","",""
"","response","","html-keyboard-response","17","157084","0.0-1.0-14.0-0.0","0","0","45177","","680","","","68","1","","","1","1","training","adjacent","CD","3","4","P.jpg","M.jpg","0","1","0","",""
"","feedback","","html-keyboard-response","18","158089","0.0-1.0-15.0-0.0","0","0","45177","","null","","","null","1","","","","","","","","","","","","","","","",""
"","time_out","","html-keyboard-response","19","160100","0.0-1.0-17.0-0.0","0","0","45177","","null","","","null","1","","","","","","","","","","","","","","","",""
"","ITI","","html-keyboard-response","20","161106","0.0-1.0-18.0","0","0","45177","","null","","","null","1","","","","","","","","","","","","","","","NaN",""
"","S1","","html-keyboard-response","21","161268","0.0-1.0-20.0","0","0","45177","","null","","","null","2","","","","","","","","","","","","","","","",""
"","ISI","","html-keyboard-response","22","163275","0.0-1.0-21.0","0","0","45177","","null","","","null","2","NaN","","","","","","","","","","","","","","",""
"","S2","","html-keyboard-response","23","163434","0.0-1.0-22.0","0","0","45177","","null","","","null","2","","NaN","","","","","","","","","","","","","",""
"","response","","html-keyboard-response","24","164103","0.0-1.0-23.0-0.0","0","0","45177","","667","","","75","2","","","1","2","training","adjacent","FG","6","7","R.jpg","N.jpg","1","1","1","",""
"","feedback","","html-keyboard-response","25","165114","0.0-1.0-24.0-0.0","0","0","45177","","null","","","null","2","","","","","","","","","","","","","","","",""
"","ITI","","html-keyboard-response","26","166123","0.0-1.0-27.0","0","0","45177","","null","","","null","2","","","","","","","","","","","","","","","NaN",""
"","S1","","html-keyboard-response","27","166283","0.0-1.0-29.0","0","0","45177","","null","","","null","3","","","","","","","","","","","","","","","",""
"","ISI","","html-keyboard-response","28","168294","0.0-1.0-30.0","0","0","45177","","null","","","null","3","NaN","","","","","","","","","","","","","","",""
"","S2","","html-keyboard-response","29","168448","0.0-1.0-31.0","0","0","45177","","null","","","null","3","","NaN","","","","","","","","","","","","","",""
"","response","","html-keyboard-response","30","169653","0.0-1.0-32.0-0.0","0","0","45177","","1203","","","68","3","","","1","3","training","adjacent","BA","2","1","L.jpg","Q.jpg","0","0","1","",""
"","feedback","","html-keyboard-response","31","170659","0.0-1.0-33.0-0.0","0","0","45177","","null","","","null","3","","","","","","","","","","","","","","","",""
"","ITI","","html-keyboard-response","32","171664","0.0-1.0-36.0","0","0","45177","","null","","","null","3","","","","","","","","","","","","","","","NaN",""
"","S1","","html-keyboard-response","33","171821","0.0-1.0-38.0","0","0","45177","","null","","","null","4","","","","","","","","","","","","","","","",""
"","ISI","","html-keyboard-response","34","173826","0.0-1.0-39.0","0","0","45177","","null","","","null","4","NaN","","","","","","","","","","","","","","",""
"","S2","","html-keyboard-response","35","173986","0.0-1.0-40.0","0","0","45177","","null","","","null","4","","NaN","","","","","","","","","","","","","",""
"","response","","html-keyboard-response","36","174386","0.0-1.0-41.0-0.0","0","0","45177","","398","","","75","4","","","1","4","training","adjacent","AB","1","2","Q.jpg","L.jpg","1","1","1","",""
"","feedback","","html-keyboard-response","37","175396","0.0-1.0-42.0-0.0","0","0","45177","","null","","","null","4","","","","","","","","","","","","","","","",""
"","ITI","","html-keyboard-response","38","176402","0.0-1.0-45.0","0","0","45177","","null","","","null","4","","","","","","","","","","","","","","","NaN",""
"","S1","","html-keyboard-response","39","176564","0.0-1.0-47.0","0","0","45177","","null","","","null","5","","","","","","","","","","","","","","","",""
"","ISI","","html-keyboard-response","40","178571","0.0-1.0-48.0","0","0","45177","","null","","","null","5","NaN","","","","","","","","","","","","","","",""
"","S2","","html-keyboard-response","41","178728","0.0-1.0-49.0","0","0","45177","","null","","","null","5","","NaN","","","","","","","","","","","","","",""
"","response","","html-keyboard-response","42","178897","0.0-1.0-50.0-0.0","0","0","45177","","167","","","68","5","","","1","5","training","adjacent","AB","1","2","Q.jpg","L.jpg","0","1","0","",""
"","feedback","","html-keyboard-response","43","179909","0.0-1.0-51.0-0.0","0","0","45177","","null","","","null","5","","","","","","","","","","","","","","","",""
"","time_out","","html-keyboard-response","44","181916","0.0-1.0-53.0-0.0","0","0","45177","","null","","","null","5","","","","","","","","","","","","","","","",""
"","ITI","","html-keyboard-response","45","182921","0.0-1.0-54.0","0","0","45177","","null","","","null","5","","","","","","","","","","","","","","","NaN",""
"","S1","","html-keyboard-response","46","183083","0.0-1.0-56.0","0","0","45177","","null","","","null","6","","","","","","","","","","","","","","","",""
"","ISI","","html-keyboard-response","47","185091","0.0-1.0-57.0","0","0","45177","","654","","","75","6","k","","","","","","","","","","","","","","",""
"","S2","","html-keyboard-response","48","185248","0.0-1.0-58.0","0","0","45177","","null","","","null","6","","NaN","","","","","","","","","","","","","",""
"","response","","html-keyboard-response","49","185699","0.0-1.0-59.0-0.0","0","0","45177","","450","","","75","6","","","1","6","training","adjacent","GF","7","6","N.jpg","R.jpg","1","0","0","",""
"","feedback","","html-keyboard-response","50","186709","0.0-1.0-60.0-0.0","0","0","45177","","null","","","null","6","","","","","","","","","","","","","","","",""
"","time_out","","html-keyboard-response","51","188713","0.0-1.0-62.0-0.0","0","0","45177","","null","","","null","6","","","","","","","","","","","","","","","",""
"","ITI","","html-keyboard-response","52","189723","0.0-1.0-63.0","0","0","45177","","null","","","null","6","","","","","","","","","","","","","","","NaN",""
"","S1","","html-keyboard-response","53","189881","0.0-1.0-65.0","0","0","45177","","null","","","null","7","","","","","","","","","","","","","","","",""
"","ISI","","html-keyboard-response","54","191896","0.0-1.0-66.0","0","0","45177","","null","","","null","7","NaN","","","","","","","","","","","","","","",""
"","S2","","html-keyboard-response","55","192063","0.0-1.0-67.0","0","0","45177","","null","","","null","7","","NaN","","","","","","","","","","","","","",""
"","response","","html-keyboard-response","56","192249","0.0-1.0-68.0-0.0","0","0","45177","","184","","","75","7","","","1","7","training","adjacent","FE","6","5","R.jpg","O.jpg","1","0","0","",""
"","feedback","","html-keyboard-response","57","193263","0.0-1.0-69.0-0.0","0","0","45177","","null","","","null","7","","","","","","","","","","","","","","","",""
"","time_out","","html-keyboard-response","58","195277","0.0-1.0-71.0-0.0","0","0","45177","","null","","","null","7","","","","","","","","","","","","","","","",""
"","ITI","","html-keyboard-response","59","196283","0.0-1.0-72.0","0","0","45177","","null","","","null","7","","","","","","","","","","","","","","","NaN",""
"","S1","","html-keyboard-response","60","196446","0.0-1.0-74.0","0","0","45177","","null","","","null","8","","","","","","","","","","","","","","","",""
"","ISI","","html-keyboard-response","61","198449","0.0-1.0-75.0","0","0","45177","","null","","","null","8","NaN","","","","","","","","","","","","","","",""
"","S2","","html-keyboard-response","62","198612","0.0-1.0-76.0","0","0","45177","","null","","","null","8","","NaN","","","","","","","","","","","","","",""
"","response","","html-keyboard-response","63","198883","0.0-1.0-77.0-0.0","0","0","45177","","269","","","75","8","","","1","8","training","adjacent","BC","2","3","L.jpg","P.jpg","1","1","1","",""
"","feedback","","html-keyboard-response","64","199892","0.0-1.0-78.0-0.0","0","0","45177","","null","","","null","8","","","","","","","","","","","","","","","",""
"","ITI","","html-keyboard-response","65","200902","0.0-1.0-81.0","0","0","45177","","null","","","null","8","","","","","","","","","","","","","","","NaN",""
"","S1","","html-keyboard-response","66","201063","0.0-1.0-83.0","0","0","45177","","null","","","null","9","","","","","","","","","","","","","","","",""
"","ISI","","html-keyboard-response","67","203077","0.0-1.0-84.0","0","0","45177","","null","","","null","9","NaN","","","","","","","","","","","","","","",""
"","S2","","html-keyboard-response","68","203235","0.0-1.0-85.0","0","0","45177","","null","","","null","9","","NaN","","","","","","","","","","","","","",""
"","response","","html-keyboard-response","69","203318","0.0-1.0-86.0-0.0","0","0","45177","","81","","","68","9","","","1","9","training","adjacent","GF","7","6","N.jpg","R.jpg","0","0","1","",""
"","feedback","","html-keyboard-response","70","204326","0.0-1.0-87.0-0.0","0","0","45177","","null","","","null","9","","","","","","","","","","","","","","","",""
"","ITI","","html-keyboard-response","71","205330","0.0-1.0-90.0","0","0","45177","","null","","","null","9","","","","","","","","","","","","","","","NaN",""
"","S1","","html-keyboard-response","72","205492","0.0-1.0-92.0","0","0","45177","","null","","","null","10","","","","","","","","","","","","","","","",""
"","ISI","","html-keyboard-response","73","207502","0.0-1.0-93.0","0","0","45177","","null","","","null","10","NaN","","","","","","","","","","","","","","",""
"","S2","","html-keyboard-response","74","207664","0.0-1.0-94.0","0","0","45177","","null","","","null","10","","NaN","","","","","","","","","","","","","",""
"","response","","html-keyboard-response","75","207823","0.0-1.0-95.0-0.0","0","0","45177","","158","","","68","10","","","1","10","training","adjacent","DC","4","3","M.jpg","P.jpg","0","0","1","",""
"","feedback","","html-keyboard-response","76","208834","0.0-1.0-96.0-0.0","0","0","45177","","null","","","null","10","","","","","","","","","","","","","","","",""
"","ITI","","html-keyboard-response","77","209846","0.0-1.0-99.0","0","0","45177","","null","","","null","10","","","","","","","","","","","","","","","NaN",""
"","S1","","html-keyboard-response","78","210002","0.0-1.0-101.0","0","0","45177","","null","","","null","11","","","","","","","","","","","","","","","",""
"","ISI","","html-keyboard-response","79","212012","0.0-1.0-102.0","0","0","45177","","249","","","68","11","d","","","","","","","","","","","","","","",""
"","S2","","html-keyboard-response","80","212172","0.0-1.0-103.0","0","0","45177","","null","","","null","11","","NaN","","","","","","","","","","","","","",""
"","response","","html-keyboard-response","81","212866","0.0-1.0-104.0-0.0","0","0","45177","","692","","","68","11","","","1","11","training","adjacent","DC","4","3","M.jpg","P.jpg","0","0","1","",""
"","feedback","","html-keyboard-response","82","213876","0.0-1.0-105.0-0.0","0","0","45177","","null","","","null","11","","","","","","","","","","","","","","","",""
"","ITI","","html-keyboard-response","83","214884","0.0-1.0-108.0","0","0","45177","","null","","","null","11","","","","","","","","","","","","","","","NaN",""
"","S1","","html-keyboard-response","84","215035","0.0-1.0-110.0","0","0","45177","","null","","","null","12","","","","","","","","","","","","","","","",""
"","ISI","","html-keyboard-response","85","217043","0.0-1.0-111.0","0","0","45177","","478","","","68","12","d","","","","","","","","","","","","","","",""
"","S2","","html-keyboard-response","86","217203","0.0-1.0-112.0","0","0","45177","","null","","","null","12","","NaN","","","","","","","","","","","","","",""
"","response","","html-keyboard-response","87","217267","0.0-1.0-113.0-0.0","0","0","45177","","62","","","68","12","","","1","12","training","adjacent","DE","4","5","M.jpg","O.jpg","0","1","0","",""
"","feedback","","html-keyboard-response","88","218276","0.0-1.0-114.0-0.0","0","0","45177","","null","","","null","12","","","","","","","","","","","","","","","",""
"","time_out","","html-keyboard-response","89","220283","0.0-1.0-116.0-0.0","0","0","45177","","null","","","null","12","","","","","","","","","","","","","","","",""
"","ITI","","html-keyboard-response","90","221294","0.0-1.0-117.0","0","0","45177","","null","","","null","12","","","","","","","","","","","","","","","NaN",""
"","S1","","html-keyboard-response","91","221450","0.0-1.0-119.0","0","0","45177","","null","","","null","13","","","","","","","","","","","","","","","",""
"","ISI","","html-keyboard-response","92","223459","0.0-1.0-120.0","0","0","45177","","172","","","75","13","k","","","","","","","","","","","","","","",""
"","S2","","html-keyboard-response","93","223620","0.0-1.0-121.0","0","0","45177","","null","","","null","13","","NaN","","","","","","","","","","","","","",""
"","response","","html-keyboard-response","94","223978","0.0-1.0-122.0-0.0","0","0","45177","","356","","","75","13","","","1","13","training","adjacent","DE","4","5","M.jpg","O.jpg","1","1","1","",""
"","feedback","","html-keyboard-response","95","224985","0.0-1.0-123.0-0.0","0","0","45177","","null","","","null","13","","","","","","","","","","","","","","","",""
"","ITI","","html-keyboard-response","96","225994","0.0-1.0-126.0","0","0","45177","","null","","","null","13","","","","","","","","","","","","","","","NaN",""
"","S1","","html-keyboard-response","97","226157","0.0-1.0-128.0","0","0","45177","","null","","","null","14","","","","","","","","","","","","","","","",""
"","ISI","","html-keyboard-response","98","228166","0.0-1.0-129.0","0","0","45177","","null","","","null","14","NaN","","","","","","","","","","","","","","",""
"","S2","","html-keyboard-response","99","228327","0.0-1.0-130.0","0","0","45177","","null","","","null","14","","NaN","","","","","","","","","","","","","",""
"","response","","html-keyboard-response","100","228864","0.0-1.0-131.0-0.0","0","0","45177","","535","","","68","14","","","1","14","training","adjacent","EF","5","6","O.jpg","R.jpg","0","1","0","",""
"","feedback","","html-keyboard-response","101","229877","0.0-1.0-132.0-0.0","0","0","45177","","null","","","null","14","","","","","","","","","","","","","","","",""
"","time_out","","html-keyboard-response","102","231885","0.0-1.0-134.0-0.0","0","0","45177","","null","","","null","14","","","","","","","","","","","","","","","",""
"","ITI","","html-keyboard-response","103","232894","0.0-1.0-135.0","0","0","45177","","null","","","null","14","","","","","","","","","","","","","","","NaN",""
"","S1","","html-keyboard-response","104","233052","0.0-1.0-137.0","0","0","45177","","null","","","null","15","","","","","","","","","","","","","","","",""
"","ISI","","html-keyboard-response","105","235064","0.0-1.0-138.0","0","0","45177","","null","","","null","15","NaN","","","","","","","","","","","","","","",""
"","S2","","html-keyboard-response","106","235219","0.0-1.0-139.0","0","0","45177","","null","","","null","15","","NaN","","","","","","","","","","","","","",""
"","response","","html-keyboard-response","107","235686","0.0-1.0-140.0-0.0","0","0","45177","","465","","","75","15","","","1","15","training","adjacent","DC","4","3","M.jpg","P.jpg","1","0","0","",""
"","feedback","","html-keyboard-response","108","236695","0.0-1.0-141.0-0.0","0","0","45177","","null","","","null","15","","","","","","","","","","","","","","","",""
"","time_out","","html-keyboard-response","109","238703","0.0-1.0-143.0-0.0","0","0","45177","","null","","","null","15","","","","","","","","","","","","","","","",""
"","ITI","","html-keyboard-response","110","239709","0.0-1.0-144.0","0","0","45177","","null","","","null","15","","","","","","","","","","","","","","","NaN",""
"","S1","","html-keyboard-response","111","239869","0.0-1.0-146.0","0","0","45177","","null","","","null","16","","","","","","","","","","","","","","","",""
"","ISI","","html-keyboard-response","112","241877","0.0-1.0-147.0","0","0","45177","","null","","","null","16","NaN","","","","","","","","","","","","","","",""
"","S2","","html-keyboard-response","113","242037","0.0-1.0-148.0","0","0","45177","","null","","","null","16","","NaN","","","","","","","","","","","","","",""
"","response","","html-keyboard-response","114","243335","0.0-1.0-149.0-0.0","0","0","45177","","1296","","","75","16","","","1","16","training","adjacent","CB","3","2","P.jpg","L.jpg","1","0","0","",""
"","feedback","","html-keyboard-response","115","244347","0.0-1.0-150.0-0.0","0","0","45177","","null","","","null","16","","","","","","","","","","","","","","","",""
"","time_out","","html-keyboard-response","116","246357","0.0-1.0-152.0-0.0","0","0","45177","","null","","","null","16","","","","","","","","","","","","","","","",""
"","ITI","","html-keyboard-response","117","247384","0.0-1.0-153.0","0","0","45177","","null","","","null","16","","","","","","","","","","","","","","","NaN",""
"","S1","","html-keyboard-response","118","247544","0.0-1.0-155.0","0","0","45177","","null","","","null","17","","","","","","","","","","","","","","","",""
"","ISI","","html-keyboard-response","119","249547","0.0-1.0-156.0","0","0","45177","","null","","","null","17","NaN","","","","","","","","","","","","","","",""
"","S2","","html-keyboard-response","120","249712","0.0-1.0-157.0","0","0","45177","","null","","","null","17","","NaN","","","","","","","","","","","","","",""
"","response","","html-keyboard-response","121","250828","0.0-1.0-158.0-0.0","0","0","45177","","1114","","","68","17","","","1","17","training","adjacent","BA","2","1","L.jpg","Q.jpg","0","0","1","",""
"","feedback","","html-keyboard-response","122","251834","0.0-1.0-159.0-0.0","0","0","45177","","null","","","null","17","","","","","","","","","","","","","","","",""
"","ITI","","html-keyboard-response","123","252847","0.0-1.0-162.0","0","0","45177","","null","","","null","17","","","","","","","","","","","","","","","NaN",""
"","S1","","html-keyboard-response","124","253006","0.0-1.0-164.0","0","0","45177","","null","","","null","18","","","","","","","","","","","","","","","",""
"","ISI","","html-keyboard-response","125","255013","0.0-1.0-165.0","0","0","45177","","null","","","null","18","NaN","","","","","","","","","","","","","","",""
"","S2","","html-keyboard-response","126","255172","0.0-1.0-166.0","0","0","45177","","null","","","null","18","","NaN","","","","","","","","","","","","","",""
"","response","","html-keyboard-response","127","256235","0.0-1.0-167.0-0.0","0","0","45177","","1061","","","68","18","","","1","18","training","adjacent","FG","6","7","R.jpg","N.jpg","0","1","0","",""
"","feedback","","html-keyboard-response","128","257247","0.0-1.0-168.0-0.0","0","0","45177","","null","","","null","18","","","","","","","","","","","","","","","",""
"","time_out","","html-keyboard-response","129","259253","0.0-1.0-170.0-0.0","0","0","45177","","null","","","null","18","","","","","","","","","","","","","","","",""
"","ITI","","html-keyboard-response","130","260261","0.0-1.0-171.0","0","0","45177","","null","","","null","18","","","","","","","","","","","","","","","NaN",""
"","S1","","html-keyboard-response","131","260418","0.0-1.0-173.0","0","0","45177","","null","","","null","19","","","","","","","","","","","","","","","",""
"","ISI","","html-keyboard-response","132","262429","0.0-1.0-174.0","0","0","45177","","null","","","null","19","NaN","","","","","","","","","","","","","","",""
"","S2","","html-keyboard-response","133","262590","0.0-1.0-175.0","0","0","45177","","null","","","null","19","","NaN","","","","","","","","","","","","","",""
"","response","","html-keyboard-response","134","263583","0.0-1.0-176.0-0.0","0","0","45177","","991","","","75","19","","","1","19","training","adjacent","ED","5","4","O.jpg","M.jpg","1","0","0","",""
"","feedback","","html-keyboard-response","135","264587","0.0-1.0-177.0-0.0","0","0","45177","","null","","","null","19","","","","","","","","","","","","","","","",""
"","time_out","","html-keyboard-response","136","266598","0.0-1.0-179.0-0.0","0","0","45177","","null","","","null","19","","","","","","","","","","","","","","","",""
"","ITI","","html-keyboard-response","137","267606","0.0-1.0-180.0","0","0","45177","","null","","","null","19","","","","","","","","","","","","","","","NaN",""
"","S1","","html-keyboard-response","138","267763","0.0-1.0-182.0","0","0","45177","","null","","","null","20","","","","","","","","","","","","","","","",""
"","ISI","","html-keyboard-response","139","269771","0.0-1.0-183.0","0","0","45177","","null","","","null","20","NaN","","","","","","","","","","","","","","",""
"","S2","","html-keyboard-response","140","269933","0.0-1.0-184.0","0","0","45177","","null","","","null","20","","NaN","","","","","","","","","","","","","",""
"","response","","html-keyboard-response","141","270537","0.0-1.0-185.0-0.0","0","0","45177","","602","","","75","20","","","1","20","training","adjacent","AB","1","2","Q.jpg","L.jpg","1","1","1","",""
"","feedback","","html-keyboard-response","142","271547","0.0-1.0-186.0-0.0","0","0","45177","","null","","","null","20","","","","","","","","","","","","","","","",""
"","ITI","","html-keyboard-response","143","272557","0.0-1.0-189.0","0","0","45177","","null","","","null","20","","","","","","","","","","","","","","","NaN",""
"","S1","","html-keyboard-response","144","272719","0.0-1.0-191.0","0","0","45177","","null","","","null","21","","","","","","","","","","","","","","","",""
"","ISI","","html-keyboard-response","145","274728","0.0-1.0-192.0","0","0","45177","","null","","","null","21","NaN","","","","","","","","","","","","","","",""
"","S2","","html-keyboard-response","146","274886","0.0-1.0-193.0","0","0","45177","","null","","","null","21","","NaN","","","","","","","","","","","","","",""
"","response","","html-keyboard-response","147","276711","0.0-1.0-194.0-0.0","0","0","45177","","1823","","","68","21","","","1","21","training","adjacent","CB","3","2","P.jpg","L.jpg","0","0","1","",""
"","feedback","","html-keyboard-response","148","277718","0.0-1.0-195.0-0.0","0","0","45177","","null","","","null","21","","","","","","","","","","","","","","","",""
"","ITI","","html-keyboard-response","149","278727","0.0-1.0-198.0","0","0","45177","","null","","","null","21","","","","","","","","","","","","","","","NaN",""
"","S1","","html-keyboard-response","150","278886","0.0-1.0-200.0","0","0","45177","","null","","","null","22","","","","","","","","","","","","","","","",""
"","ISI","","html-keyboard-response","151","280894","0.0-1.0-201.0","0","0","45177","","null","","","null","22","NaN","","","","","","","","","","","","","","",""
"","S2","","html-keyboard-response","152","281053","0.0-1.0-202.0","0","0","45177","","null","","","null","22","","NaN","","","","","","","","","","","","","",""
"","response","","html-keyboard-response","153","281931","0.0-1.0-203.0-0.0","0","0","45177","","877","","","68","22","","","1","22","training","adjacent","ED","5","4","O.jpg","M.jpg","0","0","1","",""
"","feedback","","html-keyboard-response","154","282944","0.0-1.0-204.0-0.0","0","0","45177","","null","","","null","22","","","","","","","","","","","","","","","",""
"","ITI","","html-keyboard-response","155","283948","0.0-1.0-207.0","0","0","45177","","null","","","null","22","","","","","","","","","","","","","","","NaN",""
"","S1","","html-keyboard-response","156","284110","0.0-1.0-209.0","0","0","45177","","null","","","null","23","","","","","","","","","","","","","","","",""
"","ISI","","html-keyboard-response","157","286118","0.0-1.0-210.0","0","0","45177","","null","","","null","23","NaN","","","","","","","","","","","","","","",""
"","S2","","html-keyboard-response","158","286280","0.0-1.0-211.0","0","0","45177","","null","","","null","23","","NaN","","","","","","","","","","","","","",""
"","response","","html-keyboard-response","159","287449","0.0-1.0-212.0-0.0","0","0","45177","","1167","","","68","23","","","1","23","training","adjacent","BA","2","1","L.jpg","Q.jpg","0","0","1","",""
"","feedback","","html-keyboard-response","160","288460","0.0-1.0-213.0-0.0","0","0","45177","","null","","","null","23","","","","","","","","","","","","","","","",""
"","ITI","","html-keyboard-response","161","289468","0.0-1.0-216.0","0","0","45177","","null","","","null","23","","","","","","","","","","","","","","","NaN",""
"","S1","","html-keyboard-response","162","289630","0.0-1.0-218.0","0","0","45177","","null","","","null","24","","","","","","","","","","","","","","","",""
"","ISI","","html-keyboard-response","163","291637","0.0-1.0-219.0","0","0","45177","","null","","","null","24","NaN","","","","","","","","","","","","","","",""
"","S2","","html-keyboard-response","164","291797","0.0-1.0-220.0","0","0","45177","","null","","","null","24","","NaN","","","","","","","","","","","","","",""
"","response","","html-keyboard-response","165","292876","0.0-1.0-221.0-0.0","0","0","45177","","1078","","","68","24","","","1","24","training","adjacent","CD","3","4","P.jpg","M.jpg","0","1","0","",""
"","feedback","","html-keyboard-response","166","293885","0.0-1.0-222.0-0.0","0","0","45177","","null","","","null","24","","","","","","","","","","","","","","","",""
"","time_out","","html-keyboard-response","167","295895","0.0-1.0-224.0-0.0","0","0","45177","","null","","","null","24","","","","","","","","","","","","","","","",""
"","ITI","","html-keyboard-response","168","296904","0.0-1.0-225.0","0","0","45177","","null","","","null","24","","","","","","","","","","","","","","","NaN",""
"","S1","","html-keyboard-response","169","297063","0.0-1.0-227.0","0","0","45177","","null","","","null","25","","","","","","","","","","","","","","","",""
"","ISI","","html-keyboard-response","170","299069","0.0-1.0-228.0","0","0","45177","","null","","","null","25","NaN","","","","","","","","","","","","","","",""
"","S2","","html-keyboard-response","171","299230","0.0-1.0-229.0","0","0","45177","","null","","","null","25","","NaN","","","","","","","","","","","","","",""
"","response","","html-keyboard-response","172","300039","0.0-1.0-230.0-0.0","0","0","45177","","807","","","75","25","","","1","25","training","adjacent","DE","4","5","M.jpg","O.jpg","1","1","1","",""
"","feedback","","html-keyboard-response","173","301045","0.0-1.0-231.0-0.0","0","0","45177","","null","","","null","25","","","","","","","","","","","","","","","",""
"","ITI","","html-keyboard-response","174","302055","0.0-1.0-234.0","0","0","45177","","null","","","null","25","","","","","","","","","","","","","","","NaN",""
"","S1","","html-keyboard-response","175","302214","0.0-1.0-236.0","0","0","45177","","null","","","null","26","","","","","","","","","","","","","","","",""
"","ISI","","html-keyboard-response","176","304224","0.0-1.0-237.0","0","0","45177","","null","","","null","26","NaN","","","","","","","","","","","","","","",""
"","S2","","html-keyboard-response","177","304384","0.0-1.0-238.0","0","0","45177","","null","","","null","26","","NaN","","","","","","","","","","","","","",""
"","response","","html-keyboard-response","178","305336","0.0-1.0-239.0-0.0","0","0","45177","","950","","","75","26","","","1","26","training","adjacent","FE","6","5","R.jpg","O.jpg","1","0","0","",""
"","feedback","","html-keyboard-response","179","306347","0.0-1.0-240.0-0.0","0","0","45177","","null","","","null","26","","","","","","","","","","","","","","","",""
"","time_out","","html-keyboard-response","180","308361","0.0-1.0-242.0-0.0","0","0","45177","","null","","","null","26","","","","","","","","","","","","","","","",""
"","ITI","","html-keyboard-response","181","309373","0.0-1.0-243.0","0","0","45177","","null","","","null","26","","","","","","","","","","","","","","","NaN",""
"","S1","","html-keyboard-response","182","309532","0.0-1.0-245.0","0","0","45177","","null","","","null","27","","","","","","","","","","","","","","","",""
"","ISI","","html-keyboard-response","183","311544","0.0-1.0-246.0","0","0","45177","","null","","","null","27","NaN","","","","","","","","","","","","","","",""
"","S2","","html-keyboard-response","184","311704","0.0-1.0-247.0","0","0","45177","","null","","","null","27","","NaN","","","","","","","","","","","","","",""
"","response","","html-keyboard-response","185","312949","0.0-1.0-248.0-0.0","0","0","45177","","1242","","","75","27","","","1","27","training","adjacent","ED","5","4","O.jpg","M.jpg","1","0","0","",""
"","feedback","","html-keyboard-response","186","313957","0.0-1.0-249.0-0.0","0","0","45177","","null","","","null","27","","","","","","","","","","","","","","","",""
"","time_out","","html-keyboard-response","187","315966","0.0-1.0-251.0-0.0","0","0","45177","","null","","","null","27","","","","","","","","","","","","","","","",""
"","ITI","","html-keyboard-response","188","316974","0.0-1.0-252.0","0","0","45177","","null","","","null","27","","","","","","","","","","","","","","","NaN",""
"","S1","","html-keyboard-response","189","317135","0.0-1.0-254.0","0","0","45177","","null","","","null","28","","","","","","","","","","","","","","","",""
"","ISI","","html-keyboard-response","190","319147","0.0-1.0-255.0","0","0","45177","","null","","","null","28","NaN","","","","","","","","","","","","","","",""
"","S2","","html-keyboard-response","191","319308","0.0-1.0-256.0","0","0","45177","","null","","","null","28","","NaN","","","","","","","","","","","","","",""
"","response","","html-keyboard-response","192","320322","0.0-1.0-257.0-0.0","0","0","45177","","1012","","","68","28","","","1","28","training","adjacent","EF","5","6","O.jpg","R.jpg","0","1","0","",""
"","feedback","","html-keyboard-response","193","321334","0.0-1.0-258.0-0.0","0","0","45177","","null","","","null","28","","","","","","","","","","","","","","","",""
"","time_out","","html-keyboard-response","194","323345","0.0-1.0-260.0-0.0","0","0","45177","","null","","","null","28","","","","","","","","","","","","","","","",""
"","ITI","","html-keyboard-response","195","324351","0.0-1.0-261.0","0","0","45177","","null","","","null","28","","","","","","","","","","","","","","","NaN",""
"","S1","","html-keyboard-response","196","324504","0.0-1.0-263.0","0","0","45177","","null","","","null","29","","","","","","","","","","","","","","","",""
"","ISI","","html-keyboard-response","197","326508","0.0-1.0-264.0","0","0","45177","","null","","","null","29","NaN","","","","","","","","","","","","","","",""
"","S2","","html-keyboard-response","198","326669","0.0-1.0-265.0","0","0","45177","","null","","","null","29","","NaN","","","","","","","","","","","","","",""
"","response","","html-keyboard-response","199","327295","0.0-1.0-266.0-0.0","0","0","45177","","623","","","75","29","","","1","29","training","adjacent","EF","5","6","O.jpg","R.jpg","1","1","1","",""
"","feedback","","html-keyboard-response","200","328304","0.0-1.0-267.0-0.0","0","0","45177","","null","","","null","29","","","","","","","","","","","","","","","",""
"","ITI","","html-keyboard-response","201","329309","0.0-1.0-270.0","0","0","45177","","null","","","null","29","","","","","","","","","","","","","","","NaN",""
"","S1","","html-keyboard-response","202","329471","0.0-1.0-272.0","0","0","45177","","null","","","null","30","","","","","","","","","","","","","","","",""
"","ISI","","html-keyboard-response","203","331480","0.0-1.0-273.0","0","0","45177","","null","","","null","30","NaN","","","","","","","","","","","","","","",""
"","S2","","html-keyboard-response","204","331640","0.0-1.0-274.0","0","0","45177","","null","","","null","30","","NaN","","","","","","","","","","","","","",""
"","response","","html-keyboard-response","205","332289","0.0-1.0-275.0-0.0","0","0","45177","","647","","","75","30","","","1","30","training","adjacent","CB","3","2","P.jpg","L.jpg","1","0","0","",""
"","feedback","","html-keyboard-response","206","333294","0.0-1.0-276.0-0.0","0","0","45177","","null","","","null","30","","","","","","","","","","","","","","","",""
"","time_out","","html-keyboard-response","207","335305","0.0-1.0-278.0-0.0","0","0","45177","","null","","","null","30","","","","","","","","","","","","","","","",""
"","ITI","","html-keyboard-response","208","336310","0.0-1.0-279.0","0","0","45177","","null","","","null","30","","","","","","","","","","","","","","","NaN",""
"","S1","","html-keyboard-response","209","336472","0.0-1.0-281.0","0","0","45177","","null","","","null","31","","","","","","","","","","","","","","","",""
"","ISI","","html-keyboard-response","210","338481","0.0-1.0-282.0","0","0","45177","","null","","","null","31","NaN","","","","","","","","","","","","","","",""
"","S2","","html-keyboard-response","211","338639","0.0-1.0-283.0","0","0","45177","","null","","","null","31","","NaN","","","","","","","","","","","","","",""
"","response","","html-keyboard-response","212","338936","0.0-1.0-284.0-0.0","0","0","45177","","295","","","75","31","","","1","31","training","adjacent","CD","3","4","P.jpg","M.jpg","1","1","1","",""
"","feedback","","html-keyboard-response","213","339947","0.0-1.0-285.0-0.0","0","0","45177","","null","","","null","31","","","","","","","","","","","","","","","",""
"","ITI","","html-keyboard-response","214","340959","0.0-1.0-288.0","0","0","45177","","null","","","null","31","","","","","","","","","","","","","","","NaN",""
"","S1","","html-keyboard-response","215","341116","0.0-1.0-290.0","0","0","45177","","null","","","null","32","","","","","","","","","","","","","","","",""
"","ISI","","html-keyboard-response","216","343128","0.0-1.0-291.0","0","0","45177","","null","","","null","32","NaN","","","","","","","","","","","","","","",""
"","S2","","html-keyboard-response","217","343287","0.0-1.0-292.0","0","0","45177","","null","","","null","32","","NaN","","","","","","","","","","","","","",""
"","response","","html-keyboard-response","218","343870","0.0-1.0-293.0-0.0","0","0","45177","","582","","","75","32","","","1","32","training","adjacent","CD","3","4","P.jpg","M.jpg","1","1","1","",""
"","feedback","","html-keyboard-response","219","344880","0.0-1.0-294.0-0.0","0","0","45177","","null","","","null","32","","","","","","","","","","","","","","","",""
"","ITI","","html-keyboard-response","220","345888","0.0-1.0-297.0","0","0","45177","","null","","","null","32","","","","","","","","","","","","","","","NaN",""
"","S1","","html-keyboard-response","221","346047","0.0-1.0-299.0","0","0","45177","","null","","","null","33","","","","","","","","","","","","","","","",""
"","ISI","","html-keyboard-response","222","348053","0.0-1.0-300.0","0","0","45177","","null","","","null","33","NaN","","","","","","","","","","","","","","",""
"","S2","","html-keyboard-response","223","348215","0.0-1.0-301.0","0","0","45177","","null","","","null","33","","NaN","","","","","","","","","","","","","",""
"","response","","html-keyboard-response","224","349075","0.0-1.0-302.0-0.0","0","0","45177","","858","","","75","33","","","1","33","training","adjacent","GF","7","6","N.jpg","R.jpg","1","0","0","",""
"","feedback","","html-keyboard-response","225","350087","0.0-1.0-303.0-0.0","0","0","45177","","null","","","null","33","","","","","","","","","","","","","","","",""
"","time_out","","html-keyboard-response","226","352093","0.0-1.0-305.0-0.0","0","0","45177","","null","","","null","33","","","","","","","","","","","","","","","",""
"","ITI","","html-keyboard-response","227","353105","0.0-1.0-306.0","0","0","45177","","null","","","null","33","","","","","","","","","","","","","","","NaN",""
"","S1","","html-keyboard-response","228","353262","0.0-1.0-308.0","0","0","45177","","null","","","null","34","","","","","","","","","","","","","","","",""
"","ISI","","html-keyboard-response","229","355269","0.0-1.0-309.0","0","0","45177","","1415","","","68","34","d","","","","","","","","","","","","","","",""
"","S2","","html-keyboard-response","230","355275","0.0-1.0-310.0","0","0","45177","","4","","","68","34","","d","1","34","training","adjacent","DC","4","3","M.jpg","P.jpg","0","0","1","",""
"","feedback","","html-keyboard-response","231","356279","0.0-1.0-312.0-0.0","0","0","45177","","null","","","null","34","","","","","","","","","","","","","","","",""
"","ITI","","html-keyboard-response","232","357288","0.0-1.0-315.0","0","0","45177","","null","","","null","34","","","","","","","","","","","","","","","NaN",""
"","S1","","html-keyboard-response","233","357448","0.0-1.0-317.0","0","0","45177","","null","","","null","35","","","","","","","","","","","","","","","",""
"","ISI","","html-keyboard-response","234","359454","0.0-1.0-318.0","0","0","45177","","null","","","null","35","NaN","","","","","","","","","","","","","","",""
"","S2","","html-keyboard-response","235","359615","0.0-1.0-319.0","0","0","45177","","null","","","null","35","","NaN","","","","","","","","","","","","","",""
"","response","","html-keyboard-response","236","360170","0.0-1.0-320.0-0.0","0","0","45177","","552","","","68","35","","","1","35","training","adjacent","BC","2","3","L.jpg","P.jpg","0","1","0","",""
"","feedback","","html-keyboard-response","237","361177","0.0-1.0-321.0-0.0","0","0","45177","","null","","","null","35","","","","","","","","","","","","","","","",""
"","time_out","","html-keyboard-response","238","363185","0.0-1.0-323.0-0.0","0","0","45177","","null","","","null","35","","","","","","","","","","","","","","","",""
"","ITI","","html-keyboard-response","239","364192","0.0-1.0-324.0","0","0","45177","","null","","","null","35","","","","","","","","","","","","","","","NaN",""
"","S1","","html-keyboard-response","240","364350","0.0-1.0-326.0","0","0","45177","","null","","","null","36","","","","","","","","","","","","","","","",""
"","ISI","","html-keyboard-response","241","366364","0.0-1.0-327.0","0","0","45177","","null","","","null","36","NaN","","","","","","","","","","","","","","",""
"","S2","","html-keyboard-response","242","366527","0.0-1.0-328.0","0","0","45177","","null","","","null","36","","NaN","","","","","","","","","","","","","",""
"","response","","html-keyboard-response","243","367083","0.0-1.0-329.0-0.0","0","0","45177","","553","","","68","36","","","1","36","training","adjacent","BC","2","3","L.jpg","P.jpg","0","1","0","",""
"","feedback","","html-keyboard-response","244","368094","0.0-1.0-330.0-0.0","0","0","45177","","null","","","null","36","","","","","","","","","","","","","","","",""
"","time_out","","html-keyboard-response","245","370105","0.0-1.0-332.0-0.0","0","0","45177","","null","","","null","36","","","","","","","","","","","","","","","",""
"","ITI","","html-keyboard-response","246","371114","0.0-1.0-333.0","0","0","45177","","null","","","null","36","","","","","","","","","","","","","","","NaN",""
"","S1","","html-keyboard-response","247","371270","0.0-1.0-335.0","0","0","45177","","null","","","null","37","","","","","","","","","","","","","","","",""
"","ISI","","html-keyboard-response","248","373282","0.0-1.0-336.0","0","0","45177","","null","","","null","37","NaN","","","","","","","","","","","","","","",""
"","S2","","html-keyboard-response","249","373441","0.0-1.0-337.0","0","0","45177","","null","","","null","37","","NaN","","","","","","","","","","","","","",""
"","response","","html-keyboard-response","250","374017","0.0-1.0-338.0-0.0","0","0","45177","","575","","","68","37","","","1","37","training","adjacent","FG","6","7","R.jpg","N.jpg","0","1","0","",""
"","feedback","","html-keyboard-response","251","375024","0.0-1.0-339.0-0.0","0","0","45177","","null","","","null","37","","","","","","","","","","","","","","","",""
"","time_out","","html-keyboard-response","252","377033","0.0-1.0-341.0-0.0","0","0","45177","","null","","","null","37","","","","","","","","","","","","","","","",""
"","ITI","","html-keyboard-response","253","378039","0.0-1.0-342.0","0","0","45177","","null","","","null","37","","","","","","","","","","","","","","","NaN",""
"","S1","","html-keyboard-response","254","378199","0.0-1.0-344.0","0","0","45177","","null","","","null","38","","","","","","","","","","","","","","","",""
"","ISI","","html-keyboard-response","255","380208","0.0-1.0-345.0","0","0","45177","","null","","","null","38","NaN","","","","","","","","","","","","","","",""
"","S2","","html-keyboard-response","256","380367","0.0-1.0-346.0","0","0","45177","","null","","","null","38","","NaN","","","","","","","","","","","","","",""
"","response","","html-keyboard-response","257","380939","0.0-1.0-347.0-0.0","0","0","45177","","570","","","75","38","","","1","38","training","adjacent","GF","7","6","N.jpg","R.jpg","1","0","0","",""
"","feedback","","html-keyboard-response","258","381946","0.0-1.0-348.0-0.0","0","0","45177","","null","","","null","38","","","","","","","","","","","","","","","",""
"","time_out","","html-keyboard-response","259","383952","0.0-1.0-350.0-0.0","0","0","45177","","null","","","null","38","","","","","","","","","","","","","","","",""
"","ITI","","html-keyboard-response","260","384963","0.0-1.0-351.0","0","0","45177","","null","","","null","38","","","","","","","","","","","","","","","NaN",""
"","S1","","html-keyboard-response","261","385119","0.0-1.0-353.0","0","0","45177","","null","","","null","39","","","","","","","","","","","","","","","",""
"","ISI","","html-keyboard-response","262","387128","0.0-1.0-354.0","0","0","45177","","null","","","null","39","NaN","","","","","","","","","","","","","","",""
"","S2","","html-keyboard-response","263","387290","0.0-1.0-355.0","0","0","45177","","null","","","null","39","","NaN","","","","","","","","","","","","","",""
"","response","","html-keyboard-response","264","387901","0.0-1.0-356.0-0.0","0","0","45177","","610","","","68","39","","","1","39","training","adjacent","DE","4","5","M.jpg","O.jpg","0","1","0","",""
"","feedback","","html-keyboard-response","265","388912","0.0-1.0-357.0-0.0","0","0","45177","","null","","","null","39","","","","","","","","","","","","","","","",""
"","time_out","","html-keyboard-response","266","390919","0.0-1.0-359.0-0.0","0","0","45177","","null","","","null","39","","","","","","","","","","","","","","","",""
"","ITI","","html-keyboard-response","267","391930","0.0-1.0-360.0","0","0","45177","","null","","","null","39","","","","","","","","","","","","","","","NaN",""
"","S1","","html-keyboard-response","268","392089","0.0-1.0-362.0","0","0","45177","","null","","","null","40","","","","","","","","","","","","","","","",""
"","ISI","","html-keyboard-response","269","394094","0.0-1.0-363.0","0","0","45177","","null","","","null","40","NaN","","","","","","","","","","","","","","",""
"","S2","","html-keyboard-response","270","394256","0.0-1.0-364.0","0","0","45177","","null","","","null","40","","NaN","","","","","","","","","","","","","",""
"","response","","html-keyboard-response","271","395085","0.0-1.0-365.0-0.0","0","0","45177","","827","","","68","40","","","1","40","training","adjacent","FE","6","5","R.jpg","O.jpg","0","0","1","",""
"","feedback","","html-keyboard-response","272","396097","0.0-1.0-366.0-0.0","0","0","45177","","null","","","null","40","","","","","","","","","","","","","","","",""
"","ITI","","html-keyboard-response","273","397106","0.0-1.0-369.0","0","0","45177","","null","","","null","40","","","","","","","","","","","","","","","NaN",""
"","S1","","html-keyboard-response","274","397268","0.0-1.0-371.0","0","0","45177","","null","","","null","41","","","","","","","","","","","","","","","",""
"","ISI","","html-keyboard-response","275","399281","0.0-1.0-372.0","0","0","45177","","null","","","null","41","NaN","","","","","","","","","","","","","","",""
"","S2","","html-keyboard-response","276","399440","0.0-1.0-373.0","0","0","45177","","null","","","null","41","","NaN","","","","","","","","","","","","","",""
"","response","","html-keyboard-response","277","401296","0.0-1.0-374.0-0.0","0","0","45177","","null","","","null","41","","","1","41","training","adjacent","AB","1","2","Q.jpg","L.jpg","NaN","1","0","",""
"","too_slow_prompt","","html-keyboard-response","278","402306","0.0-1.0-376.0-0.0","1","0","45177","","null","","","null","","","","","","","","","","","","","","","","",""
"","time_out","","html-keyboard-response","279","404311","0.0-1.0-377.0-0.0","0","0","45177","","null","","","null","41","","","","","","","","","","","","","","","",""
"","ITI","","html-keyboard-response","280","405320","0.0-1.0-378.0","0","0","45177","","null","","","null","41","","","","","","","","","","","","","","","NaN",""
"","S1","","html-keyboard-response","281","405482","0.0-1.0-380.0","0","0","45177","","null","","","null","42","","","","","","","","","","","","","","","",""
"","ISI","","html-keyboard-response","282","407487","0.0-1.0-381.0","0","0","45177","","null","","","null","42","NaN","","","","","","","","","","","","","","",""
"","S2","","html-keyboard-response","283","407650","0.0-1.0-382.0","0","0","45177","","null","","","null","42","","NaN","","","","","","","","","","","","","",""
"","response","","html-keyboard-response","284","408135","0.0-1.0-383.0-0.0","0","0","45177","","482","","","68","42","","","1","42","training","adjacent","EF","5","6","O.jpg","R.jpg","0","1","0","",""
"","feedback","","html-keyboard-response","285","409150","0.0-1.0-384.0-0.0","0","0","45177","","null","","","null","42","","","","","","","","","","","","","","","",""
"","time_out","","html-keyboard-response","286","411161","0.0-1.0-386.0-0.0","0","0","45177","","null","","","null","42","","","","","","","","","","","","","","","",""
"","ITI","","html-keyboard-response","287","412168","0.0-1.0-387.0","0","0","45177","","null","","","null","42","","","","","","","","","","","","","","","NaN",""
"","S1","","html-keyboard-response","288","412329","0.0-1.0-389.0","0","0","45177","","null","","","null","43","","","","","","","","","","","","","","","",""
"","ISI","","html-keyboard-response","289","414336","0.0-1.0-390.0","0","0","45177","","null","","","null","43","NaN","","","","","","","","","","","","","","",""
"","S2","","html-keyboard-response","290","414495","0.0-1.0-391.0","0","0","45177","","null","","","null","43","","NaN","","","","","","","","","","","","","",""
"","response","","html-keyboard-response","291","415075","0.0-1.0-392.0-0.0","0","0","45177","","579","","","68","43","","","1","43","training","adjacent","FE","6","5","R.jpg","O.jpg","0","0","1","",""
"","feedback","","html-keyboard-response","292","416083","0.0-1.0-393.0-0.0","0","0","45177","","null","","","null","43","","","","","","","","","","","","","","","",""
"","ITI","","html-keyboard-response","293","417091","0.0-1.0-396.0","0","0","45177","","null","","","null","43","","","","","","","","","","","","","","","NaN",""
"","S1","","html-keyboard-response","294","417249","0.0-1.0-398.0","0","0","45177","","null","","","null","44","","","","","","","","","","","","","","","",""
"","ISI","","html-keyboard-response","295","419256","0.0-1.0-399.0","0","0","45177","","null","","","null","44","NaN","","","","","","","","","","","","","","",""
"","S2","","html-keyboard-response","296","419417","0.0-1.0-400.0","0","0","45177","","null","","","null","44","","NaN","","","","","","","","","","","","","",""
"","response","","html-keyboard-response","297","419676","0.0-1.0-401.0-0.0","0","0","45177","","258","","","68","44","","","1","44","training","adjacent","ED","5","4","O.jpg","M.jpg","0","0","1","",""
"","feedback","","html-keyboard-response","298","420688","0.0-1.0-402.0-0.0","0","0","45177","","null","","","null","44","","","","","","","","","","","","","","","",""
"","ITI","","html-keyboard-response","299","421697","0.0-1.0-405.0","0","0","45177","","null","","","null","44","","","","","","","","","","","","","","","NaN",""
"","S1","","html-keyboard-response","300","421857","0.0-1.0-407.0","0","0","45177","","null","","","null","45","","","","","","","","","","","","","","","",""
"","ISI","","html-keyboard-response","301","423863","0.0-1.0-408.0","0","0","45177","","null","","","null","45","NaN","","","","","","","","","","","","","","",""
"","S2","","html-keyboard-response","302","424028","0.0-1.0-409.0","0","0","45177","","null","","","null","45","","NaN","","","","","","","","","","","","","",""
"","response","","html-keyboard-response","303","424512","0.0-1.0-410.0-0.0","0","0","45177","","481","","","68","45","","","1","45","training","adjacent","BA","2","1","L.jpg","Q.jpg","0","0","1","",""
"","feedback","","html-keyboard-response","304","425519","0.0-1.0-411.0-0.0","0","0","45177","","null","","","null","45","","","","","","","","","","","","","","","",""
"","ITI","","html-keyboard-response","305","426529","0.0-1.0-414.0","0","0","45177","","null","","","null","45","","","","","","","","","","","","","","","NaN",""
"","S1","","html-keyboard-response","306","426690","0.0-1.0-416.0","0","0","45177","","null","","","null","46","","","","","","","","","","","","","","","",""
"","ISI","","html-keyboard-response","307","428699","0.0-1.0-417.0","0","0","45177","","null","","","null","46","NaN","","","","","","","","","","","","","","",""
"","S2","","html-keyboard-response","308","428855","0.0-1.0-418.0","0","0","45177","","null","","","null","46","","NaN","","","","","","","","","","","","","",""
"","response","","html-keyboard-response","309","429675","0.0-1.0-419.0-0.0","0","0","45177","","819","","","68","46","","","1","46","training","adjacent","CB","3","2","P.jpg","L.jpg","0","0","1","",""
"","feedback","","html-keyboard-response","310","430682","0.0-1.0-420.0-0.0","0","0","45177","","null","","","null","46","","","","","","","","","","","","","","","",""
"","ITI","","html-keyboard-response","311","431688","0.0-1.0-423.0","0","0","45177","","null","","","null","46","","","","","","","","","","","","","","","NaN",""
"","S1","","html-keyboard-response","312","431850","0.0-1.0-425.0","0","0","45177","","null","","","null","47","","","","","","","","","","","","","","","",""
"","ISI","","html-keyboard-response","313","433858","0.0-1.0-426.0","0","0","45177","","null","","","null","47","NaN","","","","","","","","","","","","","","",""
"","S2","","html-keyboard-response","314","434016","0.0-1.0-427.0","0","0","45177","","null","","","null","47","","NaN","","","","","","","","","","","","","",""
"","response","","html-keyboard-response","315","434858","0.0-1.0-428.0-0.0","0","0","45177","","841","","","68","47","","","1","47","training","adjacent","BC","2","3","L.jpg","P.jpg","0","1","0","",""
"","feedback","","html-keyboard-response","316","435867","0.0-1.0-429.0-0.0","0","0","45177","","null","","","null","47","","","","","","","","","","","","","","","",""
"","time_out","","html-keyboard-response","317","437870","0.0-1.0-431.0-0.0","0","0","45177","","null","","","null","47","","","","","","","","","","","","","","","",""
"","ITI","","html-keyboard-response","318","438882","0.0-1.0-432.0","0","0","45177","","null","","","null","47","","","","","","","","","","","","","","","NaN",""
"","block_over","","html-keyboard-response","319","444374","0.0-1.0-433.0-0.0","0","0","45177","","5490","","","32","47","","","","","","","","","","","","","","","",""
"","S1","","html-keyboard-response","320","444531","0.0-1.0-434.0","0","0","45177","","null","","","null","48","","","","","","","","","","","","","","","",""
"","ISI","","html-keyboard-response","321","446538","0.0-1.0-435.0","0","0","45177","","613","","","75","48","k","","","","","","","","","","","","","","",""
"","S2","","html-keyboard-response","322","446698","0.0-1.0-436.0","0","0","45177","","null","","","null","48","","NaN","","","","","","","","","","","","","",""
"","response","","html-keyboard-response","323","447117","0.0-1.0-437.0-0.0","0","0","45177","","417","","","75","48","","","2","48","training","adjacent","DE","4","5","M.jpg","O.jpg","1","1","1","",""
"","feedback","","html-keyboard-response","324","448131","0.0-1.0-438.0-0.0","0","0","45177","","null","","","null","48","","","","","","","","","","","","","","","",""
"","ITI","","html-keyboard-response","325","449139","0.0-1.0-441.0","0","0","45177","","null","","","null","48","","","","","","","","","","","","","","","NaN",""
"","S1","","html-keyboard-response","326","449296","0.0-1.0-443.0","0","0","45177","","null","","","null","49","","","","","","","","","","","","","","","",""
"","ISI","","html-keyboard-response","327","451309","0.0-1.0-444.0","0","0","45177","","null","","","null","49","NaN","","","","","","","","","","","","","","",""
"","S2","","html-keyboard-response","328","451468","0.0-1.0-445.0","0","0","45177","","null","","","null","49","","NaN","","","","","","","","","","","","","",""
"","response","","html-keyboard-response","329","451989","0.0-1.0-446.0-0.0","0","0","45177","","519","","","75","49","","","2","49","training","adjacent","FG","6","7","R.jpg","N.jpg","1","1","1","",""
"","feedback","","html-keyboard-response","330","453002","0.0-1.0-447.0-0.0","0","0","45177","","null","","","null","49","","","","","","","","","","","","","","","",""
"","ITI","","html-keyboard-response","331","454012","0.0-1.0-450.0","0","0","45177","","null","","","null","49","","","","","","","","","","","","","","","NaN",""
"","S1","","html-keyboard-response","332","454169","0.0-1.0-452.0","0","0","45177","","null","","","null","50","","","","","","","","","","","","","","","",""
"","ISI","","html-keyboard-response","333","456178","0.0-1.0-453.0","0","0","45177","","null","","","null","50","NaN","","","","","","","","","","","","","","",""
"","S2","","html-keyboard-response","334","456340","0.0-1.0-454.0","0","0","45177","","null","","","null","50","","NaN","","","","","","","","","","","","","",""
"","response","","html-keyboard-response","335","457142","0.0-1.0-455.0-0.0","0","0","45177","","801","","","75","50","","","2","50","training","adjacent","BC","2","3","L.jpg","P.jpg","1","1","1","",""
"","feedback","","html-keyboard-response","336","458154","0.0-1.0-456.0-0.0","0","0","45177","","null","","","null","50","","","","","","","","","","","","","","","",""
"","ITI","","html-keyboard-response","337","459162","0.0-1.0-459.0","0","0","45177","","null","","","null","50","","","","","","","","","","","","","","","NaN",""
"","S1","","html-keyboard-response","338","459324","0.0-1.0-461.0","0","0","45177","","null","","","null","51","","","","","","","","","","","","","","","",""
"","ISI","","html-keyboard-response","339","461330","0.0-1.0-462.0","0","0","45177","","null","","","null","51","NaN","","","","","","","","","","","","","","",""
"","S2","","html-keyboard-response","340","461492","0.0-1.0-463.0","0","0","45177","","null","","","null","51","","NaN","","","","","","","","","","","","","",""
"","response","","html-keyboard-response","341","461911","0.0-1.0-464.0-0.0","0","0","45177","","417","","","75","51","","","2","51","training","adjacent","CD","3","4","P.jpg","M.jpg","1","1","1","",""
"","feedback","","html-keyboard-response","342","462924","0.0-1.0-465.0-0.0","0","0","45177","","null","","","null","51","","","","","","","","","","","","","","","",""
"","ITI","","html-keyboard-response","343","463930","0.0-1.0-468.0","0","0","45177","","null","","","null","51","","","","","","","","","","","","","","","NaN",""
"","S1","","html-keyboard-response","344","464088","0.0-1.0-470.0","0","0","45177","","null","","","null","52","","","","","","","","","","","","","","","",""
"","ISI","","html-keyboard-response","345","466099","0.0-1.0-471.0","0","0","45177","","null","","","null","52","NaN","","","","","","","","","","","","","","",""
"","S2","","html-keyboard-response","346","466258","0.0-1.0-472.0","0","0","45177","","null","","","null","52","","NaN","","","","","","","","","","","","","",""
"","response","","html-keyboard-response","347","466992","0.0-1.0-473.0-0.0","0","0","45177","","732","","","75","52","","","2","52","training","adjacent","DC","4","3","M.jpg","P.jpg","1","0","0","",""
"","feedback","","html-keyboard-response","348","468002","0.0-1.0-474.0-0.0","0","0","45177","","null","","","null","52","","","","","","","","","","","","","","","",""
"","time_out","","html-keyboard-response","349","470009","0.0-1.0-476.0-0.0","0","0","45177","","null","","","null","52","","","","","","","","","","","","","","","",""
"","ITI","","html-keyboard-response","350","471018","0.0-1.0-477.0","0","0","45177","","null","","","null","52","","","","","","","","","","","","","","","NaN",""
"","S1","","html-keyboard-response","351","471181","0.0-1.0-479.0","0","0","45177","","null","","","null","53","","","","","","","","","","","","","","","",""
"","ISI","","html-keyboard-response","352","473187","0.0-1.0-480.0","0","0","45177","","352","","","68","53","d","","","","","","","","","","","","","","",""
"","S2","","html-keyboard-response","353","473350","0.0-1.0-481.0","0","0","45177","","null","","","null","53","","NaN","","","","","","","","","","","","","",""
"","response","","html-keyboard-response","354","474110","0.0-1.0-482.0-0.0","0","0","45177","","759","","","68","53","","","2","53","training","adjacent","CD","3","4","P.jpg","M.jpg","0","1","0","",""
"","feedback","","html-keyboard-response","355","475114","0.0-1.0-483.0-0.0","0","0","45177","","null","","","null","53","","","","","","","","","","","","","","","",""
"","time_out","","html-keyboard-response","356","477123","0.0-1.0-485.0-0.0","0","0","45177","","null","","","null","53","","","","","","","","","","","","","","","",""
"","ITI","","html-keyboard-response","357","478132","0.0-1.0-486.0","0","0","45177","","null","","","null","53","","","","","","","","","","","","","","","NaN",""
"","S1","","html-keyboard-response","358","478293","0.0-1.0-488.0","0","0","45177","","null","","","null","54","","","","","","","","","","","","","","","",""
"","ISI","","html-keyboard-response","359","480300","0.0-1.0-489.0","0","0","45177","","null","","","null","54","NaN","","","","","","","","","","","","","","",""
"","S2","","html-keyboard-response","360","480460","0.0-1.0-490.0","0","0","45177","","null","","","null","54","","NaN","","","","","","","","","","","","","",""
"","response","","html-keyboard-response","361","481154","0.0-1.0-491.0-0.0","0","0","45177","","692","","","75","54","","","2","54","training","adjacent","DE","4","5","M.jpg","O.jpg","1","1","1","",""
"","feedback","","html-keyboard-response","362","482165","0.0-1.0-492.0-0.0","0","0","45177","","null","","","null","54","","","","","","","","","","","","","","","",""
"","ITI","","html-keyboard-response","363","483172","0.0-1.0-495.0","0","0","45177","","null","","","null","54","","","","","","","","","","","","","","","NaN",""
"","S1","","html-keyboard-response","364","483331","0.0-1.0-497.0","0","0","45177","","null","","","null","55","","","","","","","","","","","","","","","",""
"","ISI","","html-keyboard-response","365","485340","0.0-1.0-498.0","0","0","45177","","null","","","null","55","NaN","","","","","","","","","","","","","","",""
"","S2","","html-keyboard-response","366","485500","0.0-1.0-499.0","0","0","45177","","null","","","null","55","","NaN","","","","","","","","","","","","","",""
"","response","","html-keyboard-response","367","486143","0.0-1.0-500.0-0.0","0","0","45177","","642","","","75","55","","","2","55","training","adjacent","ED","5","4","O.jpg","M.jpg","1","0","0","",""
"","feedback","","html-keyboard-response","368","487155","0.0-1.0-501.0-0.0","0","0","45177","","null","","","null","55","","","","","","","","","","","","","","","",""
"","time_out","","html-keyboard-response","369","489166","0.0-1.0-503.0-0.0","0","0","45177","","null","","","null","55","","","","","","","","","","","","","","","",""
"","ITI","","html-keyboard-response","370","490171","0.0-1.0-504.0","0","0","45177","","null","","","null","55","","","","","","","","","","","","","","","NaN",""
"","S1","","html-keyboard-response","371","490332","0.0-1.0-506.0","0","0","45177","","null","","","null","56","","","","","","","","","","","","","","","",""
"","ISI","","html-keyboard-response","372","492340","0.0-1.0-507.0","0","0","45177","","null","","","null","56","NaN","","","","","","","","","","","","","","",""
"","S2","","html-keyboard-response","373","492497","0.0-1.0-508.0","0","0","45177","","null","","","null","56","","NaN","","","","","","","","","","","","","",""
"","response","","html-keyboard-response","374","493397","0.0-1.0-509.0-0.0","0","0","45177","","897","","","68","56","","","2","56","training","adjacent","EF","5","6","O.jpg","R.jpg","0","1","0","",""
"","feedback","","html-keyboard-response","375","494403","0.0-1.0-510.0-0.0","0","0","45177","","null","","","null","56","","","","","","","","","","","","","","","",""
"","time_out","","html-keyboard-response","376","496411","0.0-1.0-512.0-0.0","0","0","45177","","null","","","null","56","","","","","","","","","","","","","","","",""
"","ITI","","html-keyboard-response","377","497417","0.0-1.0-513.0","0","0","45177","","null","","","null","56","","","","","","","","","","","","","","","NaN",""
"","S1","","html-keyboard-response","378","497578","0.0-1.0-515.0","0","0","45177","","null","","","null","57","","","","","","","","","","","","","","","",""
"","ISI","","html-keyboard-response","379","499587","0.0-1.0-516.0","0","0","45177","","null","","","null","57","NaN","","","","","","","","","","","","","","",""
"","S2","","html-keyboard-response","380","499749","0.0-1.0-517.0","0","0","45177","","null","","","null","57","","NaN","","","","","","","","","","","","","",""
"","response","","html-keyboard-response","381","501603","0.0-1.0-518.0-0.0","0","0","45177","","null","","","null","57","","","2","57","training","adjacent","CB","3","2","P.jpg","L.jpg","NaN","0","0","",""
"","too_slow_prompt","","html-keyboard-response","382","502612","0.0-1.0-520.0-0.0","1","0","45177","","null","","","null","","","","","","","","","","","","","","","","",""
"","time_out","","html-keyboard-response","383","504618","0.0-1.0-521.0-0.0","0","0","45177","","null","","","null","57","","","","","","","","","","","","","","","",""
"","ITI","","html-keyboard-response","384","505630","0.0-1.0-522.0","0","0","45177","","null","","","null","57","","","","","","","","","","","","","","","NaN",""
"","S1","","html-keyboard-response","385","505787","0.0-1.0-524.0","0","0","45177","","null","","","null","58","","","","","","","","","","","","","","","",""
"","ISI","","html-keyboard-response","386","507796","0.0-1.0-525.0","0","0","45177","","null","","","null","58","NaN","","","","","","","","","","","","","","",""
"","S2","","html-keyboard-response","387","507955","0.0-1.0-526.0","0","0","45177","","null","","","null","58","","NaN","","","","","","","","","","","","","",""
"","response","","html-keyboard-response","388","508367","0.0-1.0-527.0-0.0","0","0","45177","","410","","","75","58","","","2","58","training","adjacent","DC","4","3","M.jpg","P.jpg","1","0","0","",""
"","feedback","","html-keyboard-response","389","509379","0.0-1.0-528.0-0.0","0","0","45177","","null","","","null","58","","","","","","","","","","","","","","","",""
"","time_out","","html-keyboard-response","390","511389","0.0-1.0-530.0-0.0","0","0","45177","","null","","","null","58","","","","","","","","","","","","","","","",""
"","ITI","","html-keyboard-response","391","512397","0.0-1.0-531.0","0","0","45177","","null","","","null","58","","","","","","","","","","","","","","","NaN",""
"","S1","","html-keyboard-response","392","512554","0.0-1.0-533.0","0","0","45177","","null","","","null","59","","","","","","","","","","","","","","","",""
"","ISI","","html-keyboard-response","393","514566","0.0-1.0-534.0","0","0","45177","","null","","","null","59","NaN","","","","","","","","","","","","","","",""
"","S2","","html-keyboard-response","394","514724","0.0-1.0-535.0","0","0","45177","","null","","","null","59","","NaN","","","","","","","","","","","","","",""
"","response","","html-keyboard-response","395","515380","0.0-1.0-536.0-0.0","0","0","45177","","652","","","75","59","","","2","59","training","adjacent","ED","5","4","O.jpg","M.jpg","1","0","0","",""
"","feedback","","html-keyboard-response","396","516387","0.0-1.0-537.0-0.0","0","0","45177","","null","","","null","59","","","","","","","","","","","","","","","",""
"","time_out","","html-keyboard-response","397","518399","0.0-1.0-539.0-0.0","0","0","45177","","null","","","null","59","","","","","","","","","","","","","","","",""
"","ITI","","html-keyboard-response","398","519403","0.0-1.0-540.0","0","0","45177","","null","","","null","59","","","","","","","","","","","","","","","NaN",""
"","S1","","html-keyboard-response","399","519564","0.0-1.0-542.0","0","0","45177","","null","","","null","60","","","","","","","","","","","","","","","",""
"","ISI","","html-keyboard-response","400","521571","0.0-1.0-543.0","0","0","45177","","null","","","null","60","NaN","","","","","","","","","","","","","","",""
"","S2","","html-keyboard-response","401","521732","0.0-1.0-544.0","0","0","45177","","null","","","null","60","","NaN","","","","","","","","","","","","","",""
"","response","","html-keyboard-response","402","522368","0.0-1.0-545.0-0.0","0","0","45177","","633","","","75","60","","","2","60","training","adjacent","FE","6","5","R.jpg","O.jpg","1","0","0","",""
"","feedback","","html-keyboard-response","403","523380","0.0-1.0-546.0-0.0","0","0","45177","","null","","","null","60","","","","","","","","","","","","","","","",""
"","time_out","","html-keyboard-response","404","525390","0.0-1.0-548.0-0.0","0","0","45177","","null","","","null","60","","","","","","","","","","","","","","","",""
"","ITI","","html-keyboard-response","405","526396","0.0-1.0-549.0","0","0","45177","","null","","","null","60","","","","","","","","","","","","","","","NaN",""
"","S1","","html-keyboard-response","406","526556","0.0-1.0-551.0","0","0","45177","","null","","","null","61","","","","","","","","","","","","","","","",""
"","ISI","","html-keyboard-response","407","528565","0.0-1.0-552.0","0","0","45177","","null","","","null","61","NaN","","","","","","","","","","","","","","",""
"","S2","","html-keyboard-response","408","528724","0.0-1.0-553.0","0","0","45177","","null","","","null","61","","NaN","","","","","","","","","","","","","",""
"","response","","html-keyboard-response","409","529171","0.0-1.0-554.0-0.0","0","0","45177","","446","","","68","61","","","2","61","training","adjacent","ED","5","4","O.jpg","M.jpg","0","0","1","",""
"","feedback","","html-keyboard-response","410","530180","0.0-1.0-555.0-0.0","0","0","45177","","null","","","null","61","","","","","","","","","","","","","","","",""
"","ITI","","html-keyboard-response","411","531190","0.0-1.0-558.0","0","0","45177","","null","","","null","61","","","","","","","","","","","","","","","NaN",""
"","S1","","html-keyboard-response","412","531349","0.0-1.0-560.0","0","0","45177","","null","","","null","62","","","","","","","","","","","","","","","",""
"","ISI","","html-keyboard-response","413","533354","0.0-1.0-561.0","0","0","45177","","null","","","null","62","NaN","","","","","","","","","","","","","","",""
"","S2","","html-keyboard-response","414","533510","0.0-1.0-562.0","0","0","45177","","null","","","null","62","","NaN","","","","","","","","","","","","","",""
"","response","","html-keyboard-response","415","534153","0.0-1.0-563.0-0.0","0","0","45177","","640","","","75","62","","","2","62","training","adjacent","FG","6","7","R.jpg","N.jpg","1","1","1","",""
"","feedback","","html-keyboard-response","416","535166","0.0-1.0-564.0-0.0","0","0","45177","","null","","","null","62","","","","","","","","","","","","","","","",""
"","ITI","","html-keyboard-response","417","536171","0.0-1.0-567.0","0","0","45177","","null","","","null","62","","","","","","","","","","","","","","","NaN",""
"","S1","","html-keyboard-response","418","536334","0.0-1.0-569.0","0","0","45177","","null","","","null","63","","","","","","","","","","","","","","","",""
"","ISI","","html-keyboard-response","419","538340","0.0-1.0-570.0","0","0","45177","","null","","","null","63","NaN","","","","","","","","","","","","","","",""
"","S2","","html-keyboard-response","420","538500","0.0-1.0-571.0","0","0","45177","","null","","","null","63","","NaN","","","","","","","","","","","","","",""
"","response","","html-keyboard-response","421","539253","0.0-1.0-572.0-0.0","0","0","45177","","751","","","68","63","","","2","63","training","adjacent","DE","4","5","M.jpg","O.jpg","0","1","0","",""
"","feedback","","html-keyboard-response","422","540261","0.0-1.0-573.0-0.0","0","0","45177","","null","","","null","63","","","","","","","","","","","","","","","",""
"","time_out","","html-keyboard-response","423","542267","0.0-1.0-575.0-0.0","0","0","45177","","null","","","null","63","","","","","","","","","","","","","","","",""
"","ITI","","html-keyboard-response","424","543274","0.0-1.0-576.0","0","0","45177","","null","","","null","63","","","","","","","","","","","","","","","NaN",""
"","S1","","html-keyboard-response","425","543437","0.0-1.0-578.0","0","0","45177","","null","","","null","64","","","","","","","","","","","","","","","",""
"","ISI","","html-keyboard-response","426","545447","0.0-1.0-579.0","0","0","45177","","null","","","null","64","NaN","","","","","","","","","","","","","","",""
"","S2","","html-keyboard-response","427","545604","0.0-1.0-580.0","0","0","45177","","null","","","null","64","","NaN","","","","","","","","","","","","","",""
"","response","","html-keyboard-response","428","545693","0.0-1.0-581.0-0.0","0","0","45177","","87","","","75","64","","","2","64","training","adjacent","FE","6","5","R.jpg","O.jpg","1","0","0","",""
"","feedback","","html-keyboard-response","429","546700","0.0-1.0-582.0-0.0","0","0","45177","","null","","","null","64","","","","","","","","","","","","","","","",""
"","time_out","","html-keyboard-response","430","548711","0.0-1.0-584.0-0.0","0","0","45177","","null","","","null","64","","","","","","","","","","","","","","","",""
"","ITI","","html-keyboard-response","431","549717","0.0-1.0-585.0","0","0","45177","","null","","","null","64","","","","","","","","","","","","","","","NaN",""
"","S1","","html-keyboard-response","432","549875","0.0-1.0-587.0","0","0","45177","","null","","","null","65","","","","","","","","","","","","","","","",""
"","ISI","","html-keyboard-response","433","551885","0.0-1.0-588.0","0","0","45177","","null","","","null","65","NaN","","","","","","","","","","","","","","",""
"","S2","","html-keyboard-response","434","552046","0.0-1.0-589.0","0","0","45177","","null","","","null","65","","NaN","","","","","","","","","","","","","",""
"","response","","html-keyboard-response","435","552286","0.0-1.0-590.0-0.0","0","0","45177","","238","","","68","65","","","2","65","training","adjacent","BC","2","3","L.jpg","P.jpg","0","1","0","",""
"","feedback","","html-keyboard-response","436","553292","0.0-1.0-591.0-0.0","0","0","45177","","null","","","null","65","","","","","","","","","","","","","","","",""
"","time_out","","html-keyboard-response","437","555298","0.0-1.0-593.0-0.0","0","0","45177","","null","","","null","65","","","","","","","","","","","","","","","",""
"","ITI","","html-keyboard-response","438","556310","0.0-1.0-594.0","0","0","45177","","null","","","null","65","","","","","","","","","","","","","","","NaN",""
"","S1","","html-keyboard-response","439","556471","0.0-1.0-596.0","0","0","45177","","null","","","null","66","","","","","","","","","","","","","","","",""
"","ISI","","html-keyboard-response","440","558476","0.0-1.0-597.0","0","0","45177","","null","","","null","66","NaN","","","","","","","","","","","","","","",""
"","S2","","html-keyboard-response","441","558635","0.0-1.0-598.0","0","0","45177","","null","","","null","66","","NaN","","","","","","","","","","","","","",""
"","response","","html-keyboard-response","442","559380","0.0-1.0-599.0-0.0","0","0","45177","","743","","","68","66","","","2","66","training","adjacent","EF","5","6","O.jpg","R.jpg","0","1","0","",""
"","feedback","","html-keyboard-response","443","560389","0.0-1.0-600.0-0.0","0","0","45177","","null","","","null","66","","","","","","","","","","","","","","","",""
"","time_out","","html-keyboard-response","444","562398","0.0-1.0-602.0-0.0","0","0","45177","","null","","","null","66","","","","","","","","","","","","","","","",""
"","ITI","","html-keyboard-response","445","563405","0.0-1.0-603.0","0","0","45177","","null","","","null","66","","","","","","","","","","","","","","","NaN",""
"","S1","","html-keyboard-response","446","563564","0.0-1.0-605.0","0","0","45177","","null","","","null","67","","","","","","","","","","","","","","","",""
"","ISI","","html-keyboard-response","447","565572","0.0-1.0-606.0","0","0","45177","","null","","","null","67","NaN","","","","","","","","","","","","","","",""
"","S2","","html-keyboard-response","448","565734","0.0-1.0-607.0","0","0","45177","","null","","","null","67","","NaN","","","","","","","","","","","","","",""
"","response","","html-keyboard-response","449","567095","0.0-1.0-608.0-0.0","0","0","45177","","1358","","","75","67","","","2","67","training","adjacent","FG","6","7","R.jpg","N.jpg","1","1","1","",""
"","feedback","","html-keyboard-response","450","568103","0.0-1.0-609.0-0.0","0","0","45177","","null","","","null","67","","","","","","","","","","","","","","","",""
"","ITI","","html-keyboard-response","451","569109","0.0-1.0-612.0","0","0","45177","","null","","","null","67","","","","","","","","","","","","","","","NaN",""
"","S1","","html-keyboard-response","452","569271","0.0-1.0-614.0","0","0","45177","","null","","","null","68","","","","","","","","","","","","","","","",""
"","ISI","","html-keyboard-response","453","571277","0.0-1.0-615.0","0","0","45177","","null","","","null","68","NaN","","","","","","","","","","","","","","",""
"","S2","","html-keyboard-response","454","571437","0.0-1.0-616.0","0","0","45177","","null","","","null","68","","NaN","","","","","","","","","","","","","",""
"","response","","html-keyboard-response","455","572567","0.0-1.0-617.0-0.0","0","0","45177","","1126","","","68","68","","","2","68","training","adjacent","BA","2","1","L.jpg","Q.jpg","0","0","1","",""
"","feedback","","html-keyboard-response","456","573572","0.0-1.0-618.0-0.0","0","0","45177","","null","","","null","68","","","","","","","","","","","","","","","",""
"","ITI","","html-keyboard-response","457","574582","0.0-1.0-621.0","0","0","45177","","null","","","null","68","","","","","","","","","","","","","","","NaN",""
"","S1","","html-keyboard-response","458","574739","0.0-1.0-623.0","0","0","45177","","null","","","null","69","","","","","","","","","","","","","","","",""
"","ISI","","html-keyboard-response","459","576746","0.0-1.0-624.0","0","0","45177","","null","","","null","69","NaN","","","","","","","","","","","","","","",""
"","S2","","html-keyboard-response","460","576913","0.0-1.0-625.0","0","0","45177","","null","","","null","69","","NaN","","","","","","","","","","","","","",""
"","response","","html-keyboard-response","461","577862","0.0-1.0-626.0-0.0","0","0","45177","","947","","","75","69","","","2","69","training","adjacent","GF","7","6","N.jpg","R.jpg","1","0","0","",""
"","feedback","","html-keyboard-response","462","578871","0.0-1.0-627.0-0.0","0","0","45177","","null","","","null","69","","","","","","","","","","","","","","","",""
"","time_out","","html-keyboard-response","463","580879","0.0-1.0-629.0-0.0","0","0","45177","","null","","","null","69","","","","","","","","","","","","","","","",""
"","ITI","","html-keyboard-response","464","581885","0.0-1.0-630.0","0","0","45177","","null","","","null","69","","","","","","","","","","","","","","","NaN",""
"","S1","","html-keyboard-response","465","582047","0.0-1.0-632.0","0","0","45177","","null","","","null","70","","","","","","","","","","","","","","","",""
"","ISI","","html-keyboard-response","466","584055","0.0-1.0-633.0","0","0","45177","","null","","","null","70","NaN","","","","","","","","","","","","","","",""
"","S2","","html-keyboard-response","467","584214","0.0-1.0-634.0","0","0","45177","","null","","","null","70","","NaN","","","","","","","","","","","","","",""
"","response","","html-keyboard-response","468","584793","0.0-1.0-635.0-0.0","0","0","45177","","577","","","68","70","","","2","70","training","adjacent","EF","5","6","O.jpg","R.jpg","0","1","0","",""
"","feedback","","html-keyboard-response","469","585805","0.0-1.0-636.0-0.0","0","0","45177","","null","","","null","70","","","","","","","","","","","","","","","",""
"","time_out","","html-keyboard-response","470","587815","0.0-1.0-638.0-0.0","0","0","45177","","null","","","null","70","","","","","","","","","","","","","","","",""
"","ITI","","html-keyboard-response","471","588822","0.0-1.0-639.0","0","0","45177","","null","","","null","70","","","","","","","","","","","","","","","NaN",""
"","S1","","html-keyboard-response","472","588979","0.0-1.0-641.0","0","0","45177","","null","","","null","71","","","","","","","","","","","","","","","",""
"","ISI","","html-keyboard-response","473","590989","0.0-1.0-642.0","0","0","45177","","null","","","null","71","NaN","","","","","","","","","","","","","","",""
"","S2","","html-keyboard-response","474","591152","0.0-1.0-643.0","0","0","45177","","null","","","null","71","","NaN","","","","","","","","","","","","","",""
"","response","","html-keyboard-response","475","592291","0.0-1.0-644.0-0.0","0","0","45177","","1137","","","75","71","","","2","71","training","adjacent","GF","7","6","N.jpg","R.jpg","1","0","0","",""
"","feedback","","html-keyboard-response","476","593303","0.0-1.0-645.0-0.0","0","0","45177","","null","","","null","71","","","","","","","","","","","","","","","",""
"","time_out","","html-keyboard-response","477","595310","0.0-1.0-647.0-0.0","0","0","45177","","null","","","null","71","","","","","","","","","","","","","","","",""
"","ITI","","html-keyboard-response","478","596316","0.0-1.0-648.0","0","0","45177","","null","","","null","71","","","","","","","","","","","","","","","NaN",""
"","S1","","html-keyboard-response","479","596480","0.0-1.0-650.0","0","0","45177","","null","","","null","72","","","","","","","","","","","","","","","",""
"","ISI","","html-keyboard-response","480","598486","0.0-1.0-651.0","0","0","45177","","null","","","null","72","NaN","","","","","","","","","","","","","","",""
"","S2","","html-keyboard-response","481","598648","0.0-1.0-652.0","0","0","45177","","null","","","null","72","","NaN","","","","","","","","","","","","","",""
"","response","","html-keyboard-response","482","599090","0.0-1.0-653.0-0.0","0","0","45177","","439","","","68","72","","","2","72","training","adjacent","BA","2","1","L.jpg","Q.jpg","0","0","1","",""
"","feedback","","html-keyboard-response","483","600101","0.0-1.0-654.0-0.0","0","0","45177","","null","","","null","72","","","","","","","","","","","","","","","",""
"","ITI","","html-keyboard-response","484","601111","0.0-1.0-657.0","0","0","45177","","null","","","null","72","","","","","","","","","","","","","","","NaN",""
"","S1","","html-keyboard-response","485","601272","0.0-1.0-659.0","0","0","45177","","null","","","null","73","","","","","","","","","","","","","","","",""
"","ISI","","html-keyboard-response","486","603276","0.0-1.0-660.0","0","0","45177","","null","","","null","73","NaN","","","","","","","","","","","","","","",""
"","S2","","html-keyboard-response","487","603439","0.0-1.0-661.0","0","0","45177","","null","","","null","73","","NaN","","","","","","","","","","","","","",""
"","response","","html-keyboard-response","488","604294","0.0-1.0-662.0-0.0","0","0","45177","","853","","","68","73","","","2","73","training","adjacent","DC","4","3","M.jpg","P.jpg","0","0","1","",""
"","feedback","","html-keyboard-response","489","605300","0.0-1.0-663.0-0.0","0","0","45177","","null","","","null","73","","","","","","","","","","","","","","","",""
"","ITI","","html-keyboard-response","490","606308","0.0-1.0-666.0","0","0","45177","","null","","","null","73","","","","","","","","","","","","","","","NaN",""
"","S1","","html-keyboard-response","491","606470","0.0-1.0-668.0","0","0","45177","","null","","","null","74","","","","","","","","","","","","","","","",""
"","ISI","","html-keyboard-response","492","608478","0.0-1.0-669.0","0","0","45177","","null","","","null","74","NaN","","","","","","","","","","","","","","",""
"","S2","","html-keyboard-response","493","608637","0.0-1.0-670.0","0","0","45177","","null","","","null","74","","NaN","","","","","","","","","","","","","",""
"","response","","html-keyboard-response","494","609696","0.0-1.0-671.0-0.0","0","0","45177","","1058","","","68","74","","","2","74","training","adjacent","BA","2","1","L.jpg","Q.jpg","0","0","1","",""
"","feedback","","html-keyboard-response","495","610702","0.0-1.0-672.0-0.0","0","0","45177","","null","","","null","74","","","","","","","","","","","","","","","",""
"","ITI","","html-keyboard-response","496","611712","0.0-1.0-675.0","0","0","45177","","null","","","null","74","","","","","","","","","","","","","","","NaN",""
"","S1","","html-keyboard-response","497","611868","0.0-1.0-677.0","0","0","45177","","null","","","null","75","","","","","","","","","","","","","","","",""
"","ISI","","html-keyboard-response","498","613877","0.0-1.0-678.0","0","0","45177","","null","","","null","75","NaN","","","","","","","","","","","","","","",""
"","S2","","html-keyboard-response","499","614039","0.0-1.0-679.0","0","0","45177","","null","","","null","75","","NaN","","","","","","","","","","","","","",""
"","response","","html-keyboard-response","500","614726","0.0-1.0-680.0-0.0","0","0","45177","","686","","","68","75","","","2","75","training","adjacent","FG","6","7","R.jpg","N.jpg","0","1","0","",""
"","feedback","","html-keyboard-response","501","615735","0.0-1.0-681.0-0.0","0","0","45177","","null","","","null","75","","","","","","","","","","","","","","","",""
"","time_out","","html-keyboard-response","502","617743","0.0-1.0-683.0-0.0","0","0","45177","","null","","","null","75","","","","","","","","","","","","","","","",""
"","ITI","","html-keyboard-response","503","618753","0.0-1.0-684.0","0","0","45177","","null","","","null","75","","","","","","","","","","","","","","","NaN",""
"","S1","","html-keyboard-response","504","618913","0.0-1.0-686.0","0","0","45177","","null","","","null","76","","","","","","","","","","","","","","","",""
"","ISI","","html-keyboard-response","505","620918","0.0-1.0-687.0","0","0","45177","","null","","","null","76","NaN","","","","","","","","","","","","","","",""
"","S2","","html-keyboard-response","506","621076","0.0-1.0-688.0","0","0","45177","","null","","","null","76","","NaN","","","","","","","","","","","","","",""
"","response","","html-keyboard-response","507","621573","0.0-1.0-689.0-0.0","0","0","45177","","493","","","75","76","","","2","76","training","adjacent","AB","1","2","Q.jpg","L.jpg","1","1","1","",""
"","feedback","","html-keyboard-response","508","622584","0.0-1.0-690.0-0.0","0","0","45177","","null","","","null","76","","","","","","","","","","","","","","","",""
"","ITI","","html-keyboard-response","509","623591","0.0-1.0-693.0","0","0","45177","","null","","","null","76","","","","","","","","","","","","","","","NaN",""
"","S1","","html-keyboard-response","510","623753","0.0-1.0-695.0","0","0","45177","","null","","","null","77","","","","","","","","","","","","","","","",""
"","ISI","","html-keyboard-response","511","625760","0.0-1.0-696.0","0","0","45177","","null","","","null","77","NaN","","","","","","","","","","","","","","",""
"","S2","","html-keyboard-response","512","625917","0.0-1.0-697.0","0","0","45177","","null","","","null","77","","NaN","","","","","","","","","","","","","",""
"","response","","html-keyboard-response","513","626534","0.0-1.0-698.0-0.0","0","0","45177","","613","","","75","77","","","2","77","training","adjacent","GF","7","6","N.jpg","R.jpg","1","0","0","",""
"","feedback","","html-keyboard-response","514","627541","0.0-1.0-699.0-0.0","0","0","45177","","null","","","null","77","","","","","","","","","","","","","","","",""
"","time_out","","html-keyboard-response","515","629550","0.0-1.0-701.0-0.0","0","0","45177","","null","","","null","77","","","","","","","","","","","","","","","",""
"","ITI","","html-keyboard-response","516","630560","0.0-1.0-702.0","0","0","45177","","null","","","null","77","","","","","","","","","","","","","","","NaN",""
"","S1","","html-keyboard-response","517","630718","0.0-1.0-704.0","0","0","45177","","null","","","null","78","","","","","","","","","","","","","","","",""
"","ISI","","html-keyboard-response","518","632727","0.0-1.0-705.0","0","0","45177","","null","","","null","78","NaN","","","","","","","","","","","","","","",""
"","S2","","html-keyboard-response","519","632887","0.0-1.0-706.0","0","0","45177","","null","","","null","78","","NaN","","","","","","","","","","","","","",""
"","response","","html-keyboard-response","520","633296","0.0-1.0-707.0-0.0","0","0","45177","","407","","","68","78","","","2","78","training","adjacent","CD","3","4","P.jpg","M.jpg","0","1","0","",""
"","feedback","","html-keyboard-response","521","634301","0.0-1.0-708.0-0.0","0","0","45177","","null","","","null","78","","","","","","","","","","","","","","","",""
"","time_out","","html-keyboard-response","522","636313","0.0-1.0-710.0-0.0","0","0","45177","","null","","","null","78","","","","","","","","","","","","","","","",""
"","ITI","","html-keyboard-response","523","637319","0.0-1.0-711.0","0","0","45177","","null","","","null","78","","","","","","","","","","","","","","","NaN",""
"","S1","","html-keyboard-response","524","637477","0.0-1.0-713.0","0","0","45177","","null","","","null","79","","","","","","","","","","","","","","","",""
"","ISI","","html-keyboard-response","525","639487","0.0-1.0-714.0","0","0","45177","","485","","","75","79","k","","","","","","","","","","","","","","",""
"","S2","","html-keyboard-response","526","639648","0.0-1.0-715.0","0","0","45177","","null","","","null","79","","NaN","","","","","","","","","","","","","",""
"","response","","html-keyboard-response","527","640078","0.0-1.0-716.0-0.0","0","0","45177","","427","","","75","79","","","2","79","training","adjacent","GF","7","6","N.jpg","R.jpg","1","0","0","",""
"","feedback","","html-keyboard-response","528","641087","0.0-1.0-717.0-0.0","0","0","45177","","null","","","null","79","","","","","","","","","","","","","","","",""
"","time_out","","html-keyboard-response","529","643095","0.0-1.0-719.0-0.0","0","0","45177","","null","","","null","79","","","","","","","","","","","","","","","",""
"","ITI","","html-keyboard-response","530","644103","0.0-1.0-720.0","0","0","45177","","null","","","null","79","","","","","","","","","","","","","","","NaN",""
"","S1","","html-keyboard-response","531","644266","0.0-1.0-722.0","0","0","45177","","null","","","null","80","","","","","","","","","","","","","","","",""
"","ISI","","html-keyboard-response","532","646272","0.0-1.0-723.0","0","0","45177","","null","","","null","80","NaN","","","","","","","","","","","","","","",""
"","S2","","html-keyboard-response","533","646435","0.0-1.0-724.0","0","0","45177","","null","","","null","80","","NaN","","","","","","","","","","","","","",""
"","response","","html-keyboard-response","534","646894","0.0-1.0-725.0-0.0","0","0","45177","","455","","","68","80","","","2","80","training","adjacent","AB","1","2","Q.jpg","L.jpg","0","1","0","",""
"","feedback","","html-keyboard-response","535","647900","0.0-1.0-726.0-0.0","0","0","45177","","null","","","null","80","","","","","","","","","","","","","","","",""
"","time_out","","html-keyboard-response","536","649914","0.0-1.0-728.0-0.0","0","0","45177","","null","","","null","80","","","","","","","","","","","","","","","",""
"","ITI","","html-keyboard-response","537","650925","0.0-1.0-729.0","0","0","45177","","null","","","null","80","","","","","","","","","","","","","","","NaN",""
"","S1","","html-keyboard-response","538","651088","0.0-1.0-731.0","0","0","45177","","null","","","null","81","","","","","","","","","","","","","","","",""
"","ISI","","html-keyboard-response","539","653096","0.0-1.0-732.0","0","0","45177","","1429","","","75","81","k","","","","","","","","","","","","","","",""
"","S2","","html-keyboard-response","540","653209","0.0-1.0-733.0","0","0","45177","","112","","","68","81","","d","2","81","training","adjacent","FE","6","5","R.jpg","O.jpg","0","0","1","",""
"","feedback","","html-keyboard-response","541","654214","0.0-1.0-735.0-0.0","0","0","45177","","null","","","null","81","","","","","","","","","","","","","","","",""
"","ITI","","html-keyboard-response","542","655221","0.0-1.0-738.0","0","0","45177","","null","","","null","81","","","","","","","","","","","","","","","NaN",""
"","S1","","html-keyboard-response","543","655383","0.0-1.0-740.0","0","0","45177","","null","","","null","82","","","","","","","","","","","","","","","",""
"","ISI","","html-keyboard-response","544","657392","0.0-1.0-741.0","0","0","45177","","null","","","null","82","NaN","","","","","","","","","","","","","","",""
"","S2","","html-keyboard-response","545","657554","0.0-1.0-742.0","0","0","45177","","null","","","null","82","","NaN","","","","","","","","","","","","","",""
"","response","","html-keyboard-response","546","658154","0.0-1.0-743.0-0.0","0","0","45177","","599","","","75","82","","","2","82","training","adjacent","FE","6","5","R.jpg","O.jpg","1","0","0","",""
"","feedback","","html-keyboard-response","547","659169","0.0-1.0-744.0-0.0","0","0","45177","","null","","","null","82","","","","","","","","","","","","","","","",""
"","time_out","","html-keyboard-response","548","661174","0.0-1.0-746.0-0.0","0","0","45177","","null","","","null","82","","","","","","","","","","","","","","","",""
"","ITI","","html-keyboard-response","549","662181","0.0-1.0-747.0","0","0","45177","","null","","","null","82","","","","","","","","","","","","","","","NaN",""
"","S1","","html-keyboard-response","550","662343","0.0-1.0-749.0","0","0","45177","","null","","","null","83","","","","","","","","","","","","","","","",""
"","ISI","","html-keyboard-response","551","664352","0.0-1.0-750.0","0","0","45177","","456","","","68","83","d","","","","","","","","","","","","","","",""
"","S2","","html-keyboard-response","552","664514","0.0-1.0-751.0","0","0","45177","","null","","","null","83","","NaN","","","","","","","","","","","","","",""
"","response","","html-keyboard-response","553","664865","0.0-1.0-752.0-0.0","0","0","45177","","349","","","68","83","","","2","83","training","adjacent","BA","2","1","L.jpg","Q.jpg","0","0","1","",""
"","feedback","","html-keyboard-response","554","665870","0.0-1.0-753.0-0.0","0","0","45177","","null","","","null","83","","","","","","","","","","","","","","","",""
"","ITI","","html-keyboard-response","555","666882","0.0-1.0-756.0","0","0","45177","","null","","","null","83","","","","","","","","","","","","","","","NaN",""
"","S1","","html-keyboard-response","556","667039","0.0-1.0-758.0","0","0","45177","","null","","","null","84","","","","","","","","","","","","","","","",""
"","ISI","","html-keyboard-response","557","669051","0.0-1.0-759.0","0","0","45177","","null","","","null","84","NaN","","","","","","","","","","","","","","",""
"","S2","","html-keyboard-response","558","669205","0.0-1.0-760.0","0","0","45177","","null","","","null","84","","NaN","","","","","","","","","","","","","",""
"","response","","html-keyboard-response","559","670303","0.0-1.0-761.0-0.0","0","0","45177","","1097","","","68","84","","","2","84","training","adjacent","DC","4","3","M.jpg","P.jpg","0","0","1","",""
"","feedback","","html-keyboard-response","560","671314","0.0-1.0-762.0-0.0","0","0","45177","","null","","","null","84","","","","","","","","","","","","","","","",""
"","ITI","","html-keyboard-response","561","672329","0.0-1.0-765.0","0","0","45177","","null","","","null","84","","","","","","","","","","","","","","","NaN",""
"","S1","","html-keyboard-response","562","672488","0.0-1.0-767.0","0","0","45177","","null","","","null","85","","","","","","","","","","","","","","","",""
"","ISI","","html-keyboard-response","563","674495","0.0-1.0-768.0","0","0","45177","","null","","","null","85","NaN","","","","","","","","","","","","","","",""
"","S2","","html-keyboard-response","564","674656","0.0-1.0-769.0","0","0","45177","","null","","","null","85","","NaN","","","","","","","","","","","","","",""
"","response","","html-keyboard-response","565","675369","0.0-1.0-770.0-0.0","0","0","45177","","711","","","68","85","","","2","85","training","adjacent","EF","5","6","O.jpg","R.jpg","0","1","0","",""
"","feedback","","html-keyboard-response","566","676375","0.0-1.0-771.0-0.0","0","0","45177","","null","","","null","85","","","","","","","","","","","","","","","",""
"","time_out","","html-keyboard-response","567","678385","0.0-1.0-773.0-0.0","0","0","45177","","null","","","null","85","","","","","","","","","","","","","","","",""
"","ITI","","html-keyboard-response","568","679394","0.0-1.0-774.0","0","0","45177","","null","","","null","85","","","","","","","","","","","","","","","NaN",""
"","S1","","html-keyboard-response","569","679550","0.0-1.0-776.0","0","0","45177","","null","","","null","86","","","","","","","","","","","","","","","",""
"","ISI","","html-keyboard-response","570","681558","0.0-1.0-777.0","0","0","45177","","null","","","null","86","NaN","","","","","","","","","","","","","","",""
"","S2","","html-keyboard-response","571","681721","0.0-1.0-778.0","0","0","45177","","null","","","null","86","","NaN","","","","","","","","","","","","","",""
"","response","","html-keyboard-response","572","682134","0.0-1.0-779.0-0.0","0","0","45177","","409","","","75","86","","","2","86","training","adjacent","DE","4","5","M.jpg","O.jpg","1","1","1","",""
"","feedback","","html-keyboard-response","573","683144","0.0-1.0-780.0-0.0","0","0","45177","","null","","","null","86","","","","","","","","","","","","","","","",""
"","ITI","","html-keyboard-response","574","684154","0.0-1.0-783.0","0","0","45177","","null","","","null","86","","","","","","","","","","","","","","","NaN",""
"","S1","","html-keyboard-response","575","684315","0.0-1.0-785.0","0","0","45177","","null","","","null","87","","","","","","","","","","","","","","","",""
"","ISI","","html-keyboard-response","576","686325","0.0-1.0-786.0","0","0","45177","","null","","","null","87","NaN","","","","","","","","","","","","","","",""
"","S2","","html-keyboard-response","577","686484","0.0-1.0-787.0","0","0","45177","","null","","","null","87","","NaN","","","","","","","","","","","","","",""
"","response","","html-keyboard-response","578","687404","0.0-1.0-788.0-0.0","0","0","45177","","917","","","75","87","","","2","87","training","adjacent","ED","5","4","O.jpg","M.jpg","1","0","0","",""
"","feedback","","html-keyboard-response","579","688416","0.0-1.0-789.0-0.0","0","0","45177","","null","","","null","87","","","","","","","","","","","","","","","",""
"","time_out","","html-keyboard-response","580","690423","0.0-1.0-791.0-0.0","0","0","45177","","null","","","null","87","","","","","","","","","","","","","","","",""
