"success","ttype","start_time","trial_type","trial_index","time_elapsed","internal_node_id","warning","missed_checkup","PID","view_history","rt","responses","repeat_instructions","key_press","index","keypress_isi","keypress_S2","block","trial_num","phase","group_type","pair_type","S1_stim","S2_stim","S1_img","S2_img","S1_chosen","S1_higher","accuracy","keypress_iti","total_bonus_tally"
"true","full_screen","d04062023hr2116","fullscreen","0","16546","0.0-0.0","0","0","50653","","","","","","","","","","","","","","","","","","","","","",""
"","instructions","","instructions","1","180540","0.0-1.0-0.0-0.0","0","0","50653","[{""page_index"":0,""viewing_time"":7219},{""page_index"":1,""viewing_time"":27802},{""page_index"":2,""viewing_time"":17851},{""page_index"":1,""viewing_time"":92153},{""page_index"":2,""viewing_time"":6293},{""page_index"":1,""viewing_time"":3212},{""page_index"":2,""viewing_time"":6747},{""page_index"":3,""viewing_time"":2711}]","163988","","","","","","","","","","","","","","","","","","","",""
"","comprehension_check","","survey-multi-choice","2","207056","0.0-1.0-0.0-1.0","0","0","50653","","26509","{""Q0"":""True"",""Q1"":""K"",""Q2"":""Only when the screen 'MAKE A CHOICE' is shown"",""Q3"":""Green mark"",""Q4"":""either D or K""}","1","","","","","","","","","","","","","","","","","",""
"","missed_instruction_checkup","","html-keyboard-response","3","209928","0.0-1.0-0.0-2.0-0.0","0","1","50653","","2865","","","32","","","","","","","","","","","","","","","","",""
"","instructions","","instructions","4","223947","0.0-1.0-0.1-0.1","0","0","50653","[{""page_index"":0,""viewing_time"":3098},{""page_index"":1,""viewing_time"":8966},{""page_index"":2,""viewing_time"":898},{""page_index"":3,""viewing_time"":1055}]","14017","","","","","","","","","","","","","","","","","","","",""
"","comprehension_check","","survey-multi-choice","5","243023","0.0-1.0-0.1-1.1","0","0","50653","","19067","{""Q0"":""True"",""Q1"":""K"",""Q2"":""Once the second image appears and while the screen 'MAKE A CHOICE' is shown"",""Q3"":""Green mark"",""Q4"":""either D or K""}","0","","","","","","","","","","","","","","","","","",""
"","start_exp","","html-keyboard-response","6","244752","0.0-1.0-1.0","0","0","50653","","1723","","","32","","","","","","","","","","","","","","","","",""
"","S1","","html-keyboard-response","7","244907","0.0-1.0-2.0","0","0","50653","","null","","","null","0","","","","","","","","","","","","","","","",""
"","ISI","","html-keyboard-response","8","246913","0.0-1.0-3.0","0","0","50653","","null","","","null","0","NaN","","","","","","","","","","","","","","",""
"","S2","","html-keyboard-response","9","247068","0.0-1.0-4.0","0","0","50653","","null","","","null","0","","NaN","","","","","","","","","","","","","",""
"","response","","html-keyboard-response","10","247784","0.0-1.0-5.0-0.0","0","0","50653","","709","","","75","0","","","1","0","training","adjacent","FE","6","5","M.jpg","O.jpg","1","0","0","",""
"","feedback","","html-keyboard-response","11","248790","0.0-1.0-6.0-0.0","0","0","50653","","null","","","null","0","","","","","","","","","","","","","","","",""
"","time_out","","html-keyboard-response","12","250795","0.0-1.0-8.0-0.0","0","0","50653","","null","","","null","0","","","","","","","","","","","","","","","",""
"","ITI","","html-keyboard-response","13","251800","0.0-1.0-9.0","0","0","50653","","null","","","null","0","","","","","","","","","","","","","","","NaN",""
"","S1","","html-keyboard-response","14","251956","0.0-1.0-11.0","0","0","50653","","null","","","null","1","","","","","","","","","","","","","","","",""
"","ISI","","html-keyboard-response","15","253961","0.0-1.0-12.0","0","0","50653","","null","","","null","1","NaN","","","","","","","","","","","","","","",""
"","S2","","html-keyboard-response","16","254115","0.0-1.0-13.0","0","0","50653","","null","","","null","1","","NaN","","","","","","","","","","","","","",""
"","response","","html-keyboard-response","17","254655","0.0-1.0-14.0-0.0","0","0","50653","","534","","","68","1","","","1","1","training","adjacent","CB","3","2","Q.jpg","R.jpg","0","0","1","",""
"","feedback","","html-keyboard-response","18","255660","0.0-1.0-15.0-0.0","0","0","50653","","null","","","null","1","","","","","","","","","","","","","","","",""
"","ITI","","html-keyboard-response","19","256665","0.0-1.0-18.0","0","0","50653","","null","","","null","1","","","","","","","","","","","","","","","NaN",""
"","S1","","html-keyboard-response","20","256820","0.0-1.0-20.0","0","0","50653","","null","","","null","2","","","","","","","","","","","","","","","",""
"","ISI","","html-keyboard-response","21","258825","0.0-1.0-21.0","0","0","50653","","null","","","null","2","NaN","","","","","","","","","","","","","","",""
"","S2","","html-keyboard-response","22","258980","0.0-1.0-22.0","0","0","50653","","null","","","null","2","","NaN","","","","","","","","","","","","","",""
"","response","","html-keyboard-response","23","259456","0.0-1.0-23.0-0.0","0","0","50653","","472","","","68","2","","","1","2","training","adjacent","BC","2","3","R.jpg","Q.jpg","0","1","0","",""
"","feedback","","html-keyboard-response","24","260460","0.0-1.0-24.0-0.0","0","0","50653","","null","","","null","2","","","","","","","","","","","","","","","",""
"","time_out","","html-keyboard-response","25","262466","0.0-1.0-26.0-0.0","0","0","50653","","null","","","null","2","","","","","","","","","","","","","","","",""
"","ITI","","html-keyboard-response","26","263470","0.0-1.0-27.0","0","0","50653","","null","","","null","2","","","","","","","","","","","","","","","NaN",""
"","S1","","html-keyboard-response","27","263625","0.0-1.0-29.0","0","0","50653","","null","","","null","3","","","","","","","","","","","","","","","",""
"","ISI","","html-keyboard-response","28","265630","0.0-1.0-30.0","0","0","50653","","null","","","null","3","NaN","","","","","","","","","","","","","","",""
"","S2","","html-keyboard-response","29","265785","0.0-1.0-31.0","0","0","50653","","null","","","null","3","","NaN","","","","","","","","","","","","","",""
"","response","","html-keyboard-response","30","266394","0.0-1.0-32.0-0.0","0","0","50653","","604","","","68","3","","","1","3","training","adjacent","ED","5","4","O.jpg","L.jpg","0","0","1","",""
"","feedback","","html-keyboard-response","31","267399","0.0-1.0-33.0-0.0","0","0","50653","","null","","","null","3","","","","","","","","","","","","","","","",""
"","ITI","","html-keyboard-response","32","268403","0.0-1.0-36.0","0","0","50653","","null","","","null","3","","","","","","","","","","","","","","","NaN",""
"","S1","","html-keyboard-response","33","268558","0.0-1.0-38.0","0","0","50653","","null","","","null","4","","","","","","","","","","","","","","","",""
"","ISI","","html-keyboard-response","34","270563","0.0-1.0-39.0","0","0","50653","","null","","","null","4","NaN","","","","","","","","","","","","","","",""
"","S2","","html-keyboard-response","35","270718","0.0-1.0-40.0","0","0","50653","","null","","","null","4","","NaN","","","","","","","","","","","","","",""
"","response","","html-keyboard-response","36","271060","0.0-1.0-41.0-0.0","0","0","50653","","338","","","68","4","","","1","4","training","adjacent","FG","6","7","M.jpg","P.jpg","0","1","0","",""
"","feedback","","html-keyboard-response","37","272065","0.0-1.0-42.0-0.0","0","0","50653","","null","","","null","4","","","","","","","","","","","","","","","",""
"","time_out","","html-keyboard-response","38","274070","0.0-1.0-44.0-0.0","0","0","50653","","null","","","null","4","","","","","","","","","","","","","","","",""
"","ITI","","html-keyboard-response","39","275074","0.0-1.0-45.0","0","0","50653","","null","","","null","4","","","","","","","","","","","","","","","NaN",""
"","S1","","html-keyboard-response","40","275229","0.0-1.0-47.0","0","0","50653","","null","","","null","5","","","","","","","","","","","","","","","",""
"","ISI","","html-keyboard-response","41","277233","0.0-1.0-48.0","0","0","50653","","null","","","null","5","NaN","","","","","","","","","","","","","","",""
"","S2","","html-keyboard-response","42","277389","0.0-1.0-49.0","0","0","50653","","null","","","null","5","","NaN","","","","","","","","","","","","","",""
"","response","","html-keyboard-response","43","277933","0.0-1.0-50.0-0.0","0","0","50653","","540","","","75","5","","","1","5","training","adjacent","CB","3","2","Q.jpg","R.jpg","1","0","0","",""
"","feedback","","html-keyboard-response","44","278938","0.0-1.0-51.0-0.0","0","0","50653","","null","","","null","5","","","","","","","","","","","","","","","",""
"","time_out","","html-keyboard-response","45","280943","0.0-1.0-53.0-0.0","0","0","50653","","null","","","null","5","","","","","","","","","","","","","","","",""
"","ITI","","html-keyboard-response","46","281947","0.0-1.0-54.0","0","0","50653","","null","","","null","5","","","","","","","","","","","","","","","NaN",""
"","S1","","html-keyboard-response","47","282103","0.0-1.0-56.0","0","0","50653","","null","","","null","6","","","","","","","","","","","","","","","",""
"","ISI","","html-keyboard-response","48","284107","0.0-1.0-57.0","0","0","50653","","null","","","null","6","NaN","","","","","","","","","","","","","","",""
"","S2","","html-keyboard-response","49","284262","0.0-1.0-58.0","0","0","50653","","null","","","null","6","","NaN","","","","","","","","","","","","","",""
"","response","","html-keyboard-response","50","284816","0.0-1.0-59.0-0.0","0","0","50653","","551","","","75","6","","","1","6","training","adjacent","FG","6","7","M.jpg","P.jpg","1","1","1","",""
"","feedback","","html-keyboard-response","51","285821","0.0-1.0-60.0-0.0","0","0","50653","","null","","","null","6","","","","","","","","","","","","","","","",""
"","ITI","","html-keyboard-response","52","286826","0.0-1.0-63.0","0","0","50653","","null","","","null","6","","","","","","","","","","","","","","","NaN",""
"","S1","","html-keyboard-response","53","286981","0.0-1.0-65.0","0","0","50653","","null","","","null","7","","","","","","","","","","","","","","","",""
"","ISI","","html-keyboard-response","54","288986","0.0-1.0-66.0","0","0","50653","","null","","","null","7","NaN","","","","","","","","","","","","","","",""
"","S2","","html-keyboard-response","55","289140","0.0-1.0-67.0","0","0","50653","","null","","","null","7","","NaN","","","","","","","","","","","","","",""
"","response","","html-keyboard-response","56","289663","0.0-1.0-68.0-0.0","0","0","50653","","517","","","68","7","","","1","7","training","adjacent","EF","5","6","O.jpg","M.jpg","0","1","0","",""
"","feedback","","html-keyboard-response","57","290669","0.0-1.0-69.0-0.0","0","0","50653","","null","","","null","7","","","","","","","","","","","","","","","",""
"","time_out","","html-keyboard-response","58","292674","0.0-1.0-71.0-0.0","0","0","50653","","null","","","null","7","","","","","","","","","","","","","","","",""
"","ITI","","html-keyboard-response","59","293678","0.0-1.0-72.0","0","0","50653","","null","","","null","7","","","","","","","","","","","","","","","NaN",""
"","S1","","html-keyboard-response","60","293834","0.0-1.0-74.0","0","0","50653","","null","","","null","8","","","","","","","","","","","","","","","",""
"","ISI","","html-keyboard-response","61","295840","0.0-1.0-75.0","0","0","50653","","null","","","null","8","NaN","","","","","","","","","","","","","","",""
"","S2","","html-keyboard-response","62","295994","0.0-1.0-76.0","0","0","50653","","null","","","null","8","","NaN","","","","","","","","","","","","","",""
"","response","","html-keyboard-response","63","296643","0.0-1.0-77.0-0.0","0","0","50653","","644","","","68","8","","","1","8","training","adjacent","FE","6","5","M.jpg","O.jpg","0","0","1","",""
"","feedback","","html-keyboard-response","64","297648","0.0-1.0-78.0-0.0","0","0","50653","","null","","","null","8","","","","","","","","","","","","","","","",""
"","ITI","","html-keyboard-response","65","298654","0.0-1.0-81.0","0","0","50653","","null","","","null","8","","","","","","","","","","","","","","","NaN",""
"","S1","","html-keyboard-response","66","298809","0.0-1.0-83.0","0","0","50653","","null","","","null","9","","","","","","","","","","","","","","","",""
"","ISI","","html-keyboard-response","67","300814","0.0-1.0-84.0","0","0","50653","","null","","","null","9","NaN","","","","","","","","","","","","","","",""
"","S2","","html-keyboard-response","68","300968","0.0-1.0-85.0","0","0","50653","","null","","","null","9","","NaN","","","","","","","","","","","","","",""
"","response","","html-keyboard-response","69","301375","0.0-1.0-86.0-0.0","0","0","50653","","402","","","75","9","","","1","9","training","adjacent","GF","7","6","P.jpg","M.jpg","1","0","0","",""
"","feedback","","html-keyboard-response","70","302380","0.0-1.0-87.0-0.0","0","0","50653","","null","","","null","9","","","","","","","","","","","","","","","",""
"","time_out","","html-keyboard-response","71","304385","0.0-1.0-89.0-0.0","0","0","50653","","null","","","null","9","","","","","","","","","","","","","","","",""
"","ITI","","html-keyboard-response","72","305389","0.0-1.0-90.0","0","0","50653","","null","","","null","9","","","","","","","","","","","","","","","NaN",""
"","S1","","html-keyboard-response","73","305545","0.0-1.0-92.0","0","0","50653","","null","","","null","10","","","","","","","","","","","","","","","",""
"","ISI","","html-keyboard-response","74","307548","0.0-1.0-93.0","0","0","50653","","null","","","null","10","NaN","","","","","","","","","","","","","","",""
"","S2","","html-keyboard-response","75","307704","0.0-1.0-94.0","0","0","50653","","null","","","null","10","","NaN","","","","","","","","","","","","","",""
"","response","","html-keyboard-response","76","308146","0.0-1.0-95.0-0.0","0","0","50653","","437","","","75","10","","","1","10","training","adjacent","CD","3","4","Q.jpg","L.jpg","1","1","1","",""
"","feedback","","html-keyboard-response","77","309152","0.0-1.0-96.0-0.0","0","0","50653","","null","","","null","10","","","","","","","","","","","","","","","",""
"","ITI","","html-keyboard-response","78","310157","0.0-1.0-99.0","0","0","50653","","null","","","null","10","","","","","","","","","","","","","","","NaN",""
"","S1","","html-keyboard-response","79","310313","0.0-1.0-101.0","0","0","50653","","null","","","null","11","","","","","","","","","","","","","","","",""
"","ISI","","html-keyboard-response","80","312317","0.0-1.0-102.0","0","0","50653","","null","","","null","11","NaN","","","","","","","","","","","","","","",""
"","S2","","html-keyboard-response","81","312471","0.0-1.0-103.0","0","0","50653","","null","","","null","11","","NaN","","","","","","","","","","","","","",""
"","response","","html-keyboard-response","82","312859","0.0-1.0-104.0-0.0","0","0","50653","","383","","","75","11","","","1","11","training","adjacent","AB","1","2","N.jpg","R.jpg","1","1","1","",""
"","feedback","","html-keyboard-response","83","313864","0.0-1.0-105.0-0.0","0","0","50653","","null","","","null","11","","","","","","","","","","","","","","","",""
"","ITI","","html-keyboard-response","84","314869","0.0-1.0-108.0","0","0","50653","","null","","","null","11","","","","","","","","","","","","","","","NaN",""
"","S1","","html-keyboard-response","85","315023","0.0-1.0-110.0","0","0","50653","","null","","","null","12","","","","","","","","","","","","","","","",""
"","ISI","","html-keyboard-response","86","317028","0.0-1.0-111.0","0","0","50653","","null","","","null","12","NaN","","","","","","","","","","","","","","",""
"","S2","","html-keyboard-response","87","317183","0.0-1.0-112.0","0","0","50653","","null","","","null","12","","NaN","","","","","","","","","","","","","",""
"","response","","html-keyboard-response","88","317908","0.0-1.0-113.0-0.0","0","0","50653","","721","","","75","12","","","1","12","training","adjacent","ED","5","4","O.jpg","L.jpg","1","0","0","",""
"","feedback","","html-keyboard-response","89","318913","0.0-1.0-114.0-0.0","0","0","50653","","null","","","null","12","","","","","","","","","","","","","","","",""
"","time_out","","html-keyboard-response","90","320919","0.0-1.0-116.0-0.0","0","0","50653","","null","","","null","12","","","","","","","","","","","","","","","",""
"","ITI","","html-keyboard-response","91","321923","0.0-1.0-117.0","0","0","50653","","null","","","null","12","","","","","","","","","","","","","","","NaN",""
"","S1","","html-keyboard-response","92","322078","0.0-1.0-119.0","0","0","50653","","null","","","null","13","","","","","","","","","","","","","","","",""
"","ISI","","html-keyboard-response","93","324083","0.0-1.0-120.0","0","0","50653","","null","","","null","13","NaN","","","","","","","","","","","","","","",""
"","S2","","html-keyboard-response","94","324237","0.0-1.0-121.0","0","0","50653","","null","","","null","13","","NaN","","","","","","","","","","","","","",""
"","response","","html-keyboard-response","95","324750","0.0-1.0-122.0-0.0","0","0","50653","","507","","","68","13","","","1","13","training","adjacent","BA","2","1","R.jpg","N.jpg","0","0","1","",""
"","feedback","","html-keyboard-response","96","325755","0.0-1.0-123.0-0.0","0","0","50653","","null","","","null","13","","","","","","","","","","","","","","","",""
"","ITI","","html-keyboard-response","97","326760","0.0-1.0-126.0","0","0","50653","","null","","","null","13","","","","","","","","","","","","","","","NaN",""
"","S1","","html-keyboard-response","98","326914","0.0-1.0-128.0","0","0","50653","","null","","","null","14","","","","","","","","","","","","","","","",""
"","ISI","","html-keyboard-response","99","328919","0.0-1.0-129.0","0","0","50653","","null","","","null","14","NaN","","","","","","","","","","","","","","",""
"","S2","","html-keyboard-response","100","329074","0.0-1.0-130.0","0","0","50653","","null","","","null","14","","NaN","","","","","","","","","","","","","",""
"","response","","html-keyboard-response","101","329699","0.0-1.0-131.0-0.0","0","0","50653","","619","","","68","14","","","1","14","training","adjacent","ED","5","4","O.jpg","L.jpg","0","0","1","",""
"","feedback","","html-keyboard-response","102","330703","0.0-1.0-132.0-0.0","0","0","50653","","null","","","null","14","","","","","","","","","","","","","","","",""
"","ITI","","html-keyboard-response","103","331709","0.0-1.0-135.0","0","0","50653","","null","","","null","14","","","","","","","","","","","","","","","NaN",""
"","S1","","html-keyboard-response","104","331864","0.0-1.0-137.0","0","0","50653","","null","","","null","15","","","","","","","","","","","","","","","",""
"","ISI","","html-keyboard-response","105","333869","0.0-1.0-138.0","0","0","50653","","null","","","null","15","NaN","","","","","","","","","","","","","","",""
"","S2","","html-keyboard-response","106","334025","0.0-1.0-139.0","0","0","50653","","null","","","null","15","","NaN","","","","","","","","","","","","","",""
"","response","","html-keyboard-response","107","334581","0.0-1.0-140.0-0.0","0","0","50653","","551","","","75","15","","","1","15","training","adjacent","GF","7","6","P.jpg","M.jpg","1","0","0","",""
"","feedback","","html-keyboard-response","108","335586","0.0-1.0-141.0-0.0","0","0","50653","","null","","","null","15","","","","","","","","","","","","","","","",""
"","time_out","","html-keyboard-response","109","337591","0.0-1.0-143.0-0.0","0","0","50653","","null","","","null","15","","","","","","","","","","","","","","","",""
"","ITI","","html-keyboard-response","110","338595","0.0-1.0-144.0","0","0","50653","","null","","","null","15","","","","","","","","","","","","","","","NaN",""
"","S1","","html-keyboard-response","111","338750","0.0-1.0-146.0","0","0","50653","","null","","","null","16","","","","","","","","","","","","","","","",""
"","ISI","","html-keyboard-response","112","340755","0.0-1.0-147.0","0","0","50653","","null","","","null","16","NaN","","","","","","","","","","","","","","",""
"","S2","","html-keyboard-response","113","340909","0.0-1.0-148.0","0","0","50653","","null","","","null","16","","NaN","","","","","","","","","","","","","",""
"","response","","html-keyboard-response","114","341492","0.0-1.0-149.0-0.0","0","0","50653","","580","","","68","16","","","1","16","training","adjacent","DE","4","5","L.jpg","O.jpg","0","1","0","",""
"","feedback","","html-keyboard-response","115","342497","0.0-1.0-150.0-0.0","0","0","50653","","null","","","null","16","","","","","","","","","","","","","","","",""
"","time_out","","html-keyboard-response","116","344502","0.0-1.0-152.0-0.0","0","0","50653","","null","","","null","16","","","","","","","","","","","","","","","",""
"","ITI","","html-keyboard-response","117","345506","0.0-1.0-153.0","0","0","50653","","null","","","null","16","","","","","","","","","","","","","","","NaN",""
"","S1","","html-keyboard-response","118","345661","0.0-1.0-155.0","0","0","50653","","null","","","null","17","","","","","","","","","","","","","","","",""
"","ISI","","html-keyboard-response","119","347666","0.0-1.0-156.0","0","0","50653","","null","","","null","17","NaN","","","","","","","","","","","","","","",""
"","S2","","html-keyboard-response","120","347820","0.0-1.0-157.0","0","0","50653","","null","","","null","17","","NaN","","","","","","","","","","","","","",""
"","response","","html-keyboard-response","121","348256","0.0-1.0-158.0-0.0","0","0","50653","","431","","","68","17","","","1","17","training","adjacent","DE","4","5","L.jpg","O.jpg","0","1","0","",""
"","feedback","","html-keyboard-response","122","349261","0.0-1.0-159.0-0.0","0","0","50653","","null","","","null","17","","","","","","","","","","","","","","","",""
"","time_out","","html-keyboard-response","123","351266","0.0-1.0-161.0-0.0","0","0","50653","","null","","","null","17","","","","","","","","","","","","","","","",""
"","ITI","","html-keyboard-response","124","352270","0.0-1.0-162.0","0","0","50653","","null","","","null","17","","","","","","","","","","","","","","","NaN",""
"","S1","","html-keyboard-response","125","352426","0.0-1.0-164.0","0","0","50653","","null","","","null","18","","","","","","","","","","","","","","","",""
"","ISI","","html-keyboard-response","126","354430","0.0-1.0-165.0","0","0","50653","","null","","","null","18","NaN","","","","","","","","","","","","","","",""
"","S2","","html-keyboard-response","127","354585","0.0-1.0-166.0","0","0","50653","","null","","","null","18","","NaN","","","","","","","","","","","","","",""
"","response","","html-keyboard-response","128","355049","0.0-1.0-167.0-0.0","0","0","50653","","459","","","68","18","","","1","18","training","adjacent","FG","6","7","M.jpg","P.jpg","0","1","0","",""
"","feedback","","html-keyboard-response","129","356054","0.0-1.0-168.0-0.0","0","0","50653","","null","","","null","18","","","","","","","","","","","","","","","",""
"","time_out","","html-keyboard-response","130","358058","0.0-1.0-170.0-0.0","0","0","50653","","null","","","null","18","","","","","","","","","","","","","","","",""
"","ITI","","html-keyboard-response","131","359063","0.0-1.0-171.0","0","0","50653","","null","","","null","18","","","","","","","","","","","","","","","NaN",""
"","S1","","html-keyboard-response","132","359218","0.0-1.0-173.0","0","0","50653","","null","","","null","19","","","","","","","","","","","","","","","",""
"","ISI","","html-keyboard-response","133","361222","0.0-1.0-174.0","0","0","50653","","null","","","null","19","NaN","","","","","","","","","","","","","","",""
"","S2","","html-keyboard-response","134","361378","0.0-1.0-175.0","0","0","50653","","null","","","null","19","","NaN","","","","","","","","","","","","","",""
"","response","","html-keyboard-response","135","361983","0.0-1.0-176.0-0.0","0","0","50653","","601","","","68","19","","","1","19","training","adjacent","FE","6","5","M.jpg","O.jpg","0","0","1","",""
"","feedback","","html-keyboard-response","136","362989","0.0-1.0-177.0-0.0","0","0","50653","","null","","","null","19","","","","","","","","","","","","","","","",""
"","ITI","","html-keyboard-response","137","363994","0.0-1.0-180.0","0","0","50653","","null","","","null","19","","","","","","","","","","","","","","","NaN",""
"","S1","","html-keyboard-response","138","364148","0.0-1.0-182.0","0","0","50653","","null","","","null","20","","","","","","","","","","","","","","","",""
"","ISI","","html-keyboard-response","139","366153","0.0-1.0-183.0","0","0","50653","","null","","","null","20","NaN","","","","","","","","","","","","","","",""
"","S2","","html-keyboard-response","140","366308","0.0-1.0-184.0","0","0","50653","","null","","","null","20","","NaN","","","","","","","","","","","","","",""
"","response","","html-keyboard-response","141","366883","0.0-1.0-185.0-0.0","0","0","50653","","571","","","75","20","","","1","20","training","adjacent","DC","4","3","L.jpg","Q.jpg","1","0","0","",""
"","feedback","","html-keyboard-response","142","367887","0.0-1.0-186.0-0.0","0","0","50653","","null","","","null","20","","","","","","","","","","","","","","","",""
"","time_out","","html-keyboard-response","143","369892","0.0-1.0-188.0-0.0","0","0","50653","","null","","","null","20","","","","","","","","","","","","","","","",""
"","ITI","","html-keyboard-response","144","370897","0.0-1.0-189.0","0","0","50653","","null","","","null","20","","","","","","","","","","","","","","","NaN",""
"","S1","","html-keyboard-response","145","371051","0.0-1.0-191.0","0","0","50653","","null","","","null","21","","","","","","","","","","","","","","","",""
"","ISI","","html-keyboard-response","146","373056","0.0-1.0-192.0","0","0","50653","","null","","","null","21","NaN","","","","","","","","","","","","","","",""
"","S2","","html-keyboard-response","147","373211","0.0-1.0-193.0","0","0","50653","","null","","","null","21","","NaN","","","","","","","","","","","","","",""
"","response","","html-keyboard-response","148","373769","0.0-1.0-194.0-0.0","0","0","50653","","553","","","75","21","","","1","21","training","adjacent","GF","7","6","P.jpg","M.jpg","1","0","0","",""
"","feedback","","html-keyboard-response","149","374774","0.0-1.0-195.0-0.0","0","0","50653","","null","","","null","21","","","","","","","","","","","","","","","",""
"","time_out","","html-keyboard-response","150","376779","0.0-1.0-197.0-0.0","0","0","50653","","null","","","null","21","","","","","","","","","","","","","","","",""
"","ITI","","html-keyboard-response","151","377783","0.0-1.0-198.0","0","0","50653","","null","","","null","21","","","","","","","","","","","","","","","NaN",""
"","S1","","html-keyboard-response","152","377938","0.0-1.0-200.0","0","0","50653","","null","","","null","22","","","","","","","","","","","","","","","",""
"","ISI","","html-keyboard-response","153","379943","0.0-1.0-201.0","0","0","50653","","null","","","null","22","NaN","","","","","","","","","","","","","","",""
"","S2","","html-keyboard-response","154","380098","0.0-1.0-202.0","0","0","50653","","null","","","null","22","","NaN","","","","","","","","","","","","","",""
"","response","","html-keyboard-response","155","380734","0.0-1.0-203.0-0.0","0","0","50653","","633","","","68","22","","","1","22","training","adjacent","CB","3","2","Q.jpg","R.jpg","0","0","1","",""
"","feedback","","html-keyboard-response","156","381740","0.0-1.0-204.0-0.0","0","0","50653","","null","","","null","22","","","","","","","","","","","","","","","",""
"","ITI","","html-keyboard-response","157","382745","0.0-1.0-207.0","0","0","50653","","null","","","null","22","","","","","","","","","","","","","","","NaN",""
"","S1","","html-keyboard-response","158","382899","0.0-1.0-209.0","0","0","50653","","null","","","null","23","","","","","","","","","","","","","","","",""
"","ISI","","html-keyboard-response","159","384903","0.0-1.0-210.0","0","0","50653","","null","","","null","23","NaN","","","","","","","","","","","","","","",""
"","S2","","html-keyboard-response","160","385059","0.0-1.0-211.0","0","0","50653","","null","","","null","23","","NaN","","","","","","","","","","","","","",""
"","response","","html-keyboard-response","161","385723","0.0-1.0-212.0-0.0","0","0","50653","","660","","","75","23","","","1","23","training","adjacent","DC","4","3","L.jpg","Q.jpg","1","0","0","",""
"","feedback","","html-keyboard-response","162","386729","0.0-1.0-213.0-0.0","0","0","50653","","null","","","null","23","","","","","","","","","","","","","","","",""
"","time_out","","html-keyboard-response","163","388734","0.0-1.0-215.0-0.0","0","0","50653","","null","","","null","23","","","","","","","","","","","","","","","",""
"","ITI","","html-keyboard-response","164","389739","0.0-1.0-216.0","0","0","50653","","null","","","null","23","","","","","","","","","","","","","","","NaN",""
"","S1","","html-keyboard-response","165","389894","0.0-1.0-218.0","0","0","50653","","null","","","null","24","","","","","","","","","","","","","","","",""
"","ISI","","html-keyboard-response","166","391898","0.0-1.0-219.0","0","0","50653","","null","","","null","24","NaN","","","","","","","","","","","","","","",""
"","S2","","html-keyboard-response","167","392053","0.0-1.0-220.0","0","0","50653","","null","","","null","24","","NaN","","","","","","","","","","","","","",""
"","response","","html-keyboard-response","168","393010","0.0-1.0-221.0-0.0","0","0","50653","","952","","","68","24","","","1","24","training","adjacent","AB","1","2","N.jpg","R.jpg","0","1","0","",""
"","feedback","","html-keyboard-response","169","394016","0.0-1.0-222.0-0.0","0","0","50653","","null","","","null","24","","","","","","","","","","","","","","","",""
"","time_out","","html-keyboard-response","170","396021","0.0-1.0-224.0-0.0","0","0","50653","","null","","","null","24","","","","","","","","","","","","","","","",""
"","ITI","","html-keyboard-response","171","397026","0.0-1.0-225.0","0","0","50653","","null","","","null","24","","","","","","","","","","","","","","","NaN",""
"","S1","","html-keyboard-response","172","397180","0.0-1.0-227.0","0","0","50653","","null","","","null","25","","","","","","","","","","","","","","","",""
"","ISI","","html-keyboard-response","173","399185","0.0-1.0-228.0","0","0","50653","","null","","","null","25","NaN","","","","","","","","","","","","","","",""
"","S2","","html-keyboard-response","174","399340","0.0-1.0-229.0","0","0","50653","","null","","","null","25","","NaN","","","","","","","","","","","","","",""
"","response","","html-keyboard-response","175","400131","0.0-1.0-230.0-0.0","0","0","50653","","787","","","75","25","","","1","25","training","adjacent","CB","3","2","Q.jpg","R.jpg","1","0","0","",""
"","feedback","","html-keyboard-response","176","401137","0.0-1.0-231.0-0.0","0","0","50653","","null","","","null","25","","","","","","","","","","","","","","","",""
"","time_out","","html-keyboard-response","177","403142","0.0-1.0-233.0-0.0","0","0","50653","","null","","","null","25","","","","","","","","","","","","","","","",""
"","ITI","","html-keyboard-response","178","404146","0.0-1.0-234.0","0","0","50653","","null","","","null","25","","","","","","","","","","","","","","","NaN",""
"","S1","","html-keyboard-response","179","404301","0.0-1.0-236.0","0","0","50653","","null","","","null","26","","","","","","","","","","","","","","","",""
"","ISI","","html-keyboard-response","180","406307","0.0-1.0-237.0","0","0","50653","","null","","","null","26","NaN","","","","","","","","","","","","","","",""
"","S2","","html-keyboard-response","181","406462","0.0-1.0-238.0","0","0","50653","","null","","","null","26","","NaN","","","","","","","","","","","","","",""
"","response","","html-keyboard-response","182","407025","0.0-1.0-239.0-0.0","0","0","50653","","560","","","68","26","","","1","26","training","adjacent","AB","1","2","N.jpg","R.jpg","0","1","0","",""
"","feedback","","html-keyboard-response","183","408031","0.0-1.0-240.0-0.0","0","0","50653","","null","","","null","26","","","","","","","","","","","","","","","",""
"","time_out","","html-keyboard-response","184","410036","0.0-1.0-242.0-0.0","0","0","50653","","null","","","null","26","","","","","","","","","","","","","","","",""
"","ITI","","html-keyboard-response","185","411040","0.0-1.0-243.0","0","0","50653","","null","","","null","26","","","","","","","","","","","","","","","NaN",""
"","S1","","html-keyboard-response","186","411195","0.0-1.0-245.0","0","0","50653","","null","","","null","27","","","","","","","","","","","","","","","",""
"","ISI","","html-keyboard-response","187","413200","0.0-1.0-246.0","0","0","50653","","null","","","null","27","NaN","","","","","","","","","","","","","","",""
"","S2","","html-keyboard-response","188","413354","0.0-1.0-247.0","0","0","50653","","null","","","null","27","","NaN","","","","","","","","","","","","","",""
"","response","","html-keyboard-response","189","414041","0.0-1.0-248.0-0.0","0","0","50653","","681","","","68","27","","","1","27","training","adjacent","DE","4","5","L.jpg","O.jpg","0","1","0","",""
"","feedback","","html-keyboard-response","190","415046","0.0-1.0-249.0-0.0","0","0","50653","","null","","","null","27","","","","","","","","","","","","","","","",""
"","time_out","","html-keyboard-response","191","417051","0.0-1.0-251.0-0.0","0","0","50653","","null","","","null","27","","","","","","","","","","","","","","","",""
"","ITI","","html-keyboard-response","192","418056","0.0-1.0-252.0","0","0","50653","","null","","","null","27","","","","","","","","","","","","","","","NaN",""
"","S1","","html-keyboard-response","193","418212","0.0-1.0-254.0","0","0","50653","","null","","","null","28","","","","","","","","","","","","","","","",""
"","ISI","","html-keyboard-response","194","420216","0.0-1.0-255.0","0","0","50653","","null","","","null","28","NaN","","","","","","","","","","","","","","",""
"","S2","","html-keyboard-response","195","420370","0.0-1.0-256.0","0","0","50653","","null","","","null","28","","NaN","","","","","","","","","","","","","",""
"","response","","html-keyboard-response","196","421116","0.0-1.0-257.0-0.0","0","0","50653","","740","","","75","28","","","1","28","training","adjacent","DC","4","3","L.jpg","Q.jpg","1","0","0","",""
"","feedback","","html-keyboard-response","197","422122","0.0-1.0-258.0-0.0","0","0","50653","","null","","","null","28","","","","","","","","","","","","","","","",""
"","time_out","","html-keyboard-response","198","424126","0.0-1.0-260.0-0.0","0","0","50653","","null","","","null","28","","","","","","","","","","","","","","","",""
"","ITI","","html-keyboard-response","199","425131","0.0-1.0-261.0","0","0","50653","","null","","","null","28","","","","","","","","","","","","","","","NaN",""
"","S1","","html-keyboard-response","200","425286","0.0-1.0-263.0","0","0","50653","","null","","","null","29","","","","","","","","","","","","","","","",""
"","ISI","","html-keyboard-response","201","427290","0.0-1.0-264.0","0","0","50653","","null","","","null","29","NaN","","","","","","","","","","","","","","",""
"","S2","","html-keyboard-response","202","427445","0.0-1.0-265.0","0","0","50653","","null","","","null","29","","NaN","","","","","","","","","","","","","",""
"","response","","html-keyboard-response","203","428797","0.0-1.0-266.0-0.0","0","0","50653","","1348","","","68","29","","","1","29","training","adjacent","BC","2","3","R.jpg","Q.jpg","0","1","0","",""
"","feedback","","html-keyboard-response","204","429802","0.0-1.0-267.0-0.0","0","0","50653","","null","","","null","29","","","","","","","","","","","","","","","",""
"","time_out","","html-keyboard-response","205","431806","0.0-1.0-269.0-0.0","0","0","50653","","null","","","null","29","","","","","","","","","","","","","","","",""
"","ITI","","html-keyboard-response","206","432809","0.0-1.0-270.0","0","0","50653","","null","","","null","29","","","","","","","","","","","","","","","NaN",""
"","S1","","html-keyboard-response","207","432964","0.0-1.0-272.0","0","0","50653","","null","","","null","30","","","","","","","","","","","","","","","",""
"","ISI","","html-keyboard-response","208","434968","0.0-1.0-273.0","0","0","50653","","null","","","null","30","NaN","","","","","","","","","","","","","","",""
"","S2","","html-keyboard-response","209","435123","0.0-1.0-274.0","0","0","50653","","null","","","null","30","","NaN","","","","","","","","","","","","","",""
"","response","","html-keyboard-response","210","435674","0.0-1.0-275.0-0.0","0","0","50653","","547","","","75","30","","","1","30","training","adjacent","EF","5","6","O.jpg","M.jpg","1","1","1","",""
"","feedback","","html-keyboard-response","211","436680","0.0-1.0-276.0-0.0","0","0","50653","","null","","","null","30","","","","","","","","","","","","","","","",""
"","ITI","","html-keyboard-response","212","437685","0.0-1.0-279.0","0","0","50653","","null","","","null","30","","","","","","","","","","","","","","","NaN",""
"","S1","","html-keyboard-response","213","437840","0.0-1.0-281.0","0","0","50653","","null","","","null","31","","","","","","","","","","","","","","","",""
"","ISI","","html-keyboard-response","214","439844","0.0-1.0-282.0","0","0","50653","","null","","","null","31","NaN","","","","","","","","","","","","","","",""
"","S2","","html-keyboard-response","215","439999","0.0-1.0-283.0","0","0","50653","","null","","","null","31","","NaN","","","","","","","","","","","","","",""
"","response","","html-keyboard-response","216","440645","0.0-1.0-284.0-0.0","0","0","50653","","641","","","68","31","","","1","31","training","adjacent","EF","5","6","O.jpg","M.jpg","0","1","0","",""
"","feedback","","html-keyboard-response","217","441650","0.0-1.0-285.0-0.0","0","0","50653","","null","","","null","31","","","","","","","","","","","","","","","",""
"","time_out","","html-keyboard-response","218","443655","0.0-1.0-287.0-0.0","0","0","50653","","null","","","null","31","","","","","","","","","","","","","","","",""
"","ITI","","html-keyboard-response","219","444660","0.0-1.0-288.0","0","0","50653","","null","","","null","31","","","","","","","","","","","","","","","NaN",""
"","S1","","html-keyboard-response","220","444815","0.0-1.0-290.0","0","0","50653","","null","","","null","32","","","","","","","","","","","","","","","",""
"","ISI","","html-keyboard-response","221","446819","0.0-1.0-291.0","0","0","50653","","null","","","null","32","NaN","","","","","","","","","","","","","","",""
"","S2","","html-keyboard-response","222","446974","0.0-1.0-292.0","0","0","50653","","null","","","null","32","","NaN","","","","","","","","","","","","","",""
"","response","","html-keyboard-response","223","447520","0.0-1.0-293.0-0.0","0","0","50653","","540","","","75","32","","","1","32","training","adjacent","ED","5","4","O.jpg","L.jpg","1","0","0","",""
"","feedback","","html-keyboard-response","224","448525","0.0-1.0-294.0-0.0","0","0","50653","","null","","","null","32","","","","","","","","","","","","","","","",""
"","time_out","","html-keyboard-response","225","450531","0.0-1.0-296.0-0.0","0","0","50653","","null","","","null","32","","","","","","","","","","","","","","","",""
"","ITI","","html-keyboard-response","226","451535","0.0-1.0-297.0","0","0","50653","","null","","","null","32","","","","","","","","","","","","","","","NaN",""
"","S1","","html-keyboard-response","227","451690","0.0-1.0-299.0","0","0","50653","","null","","","null","33","","","","","","","","","","","","","","","",""
"","ISI","","html-keyboard-response","228","453694","0.0-1.0-300.0","0","0","50653","","null","","","null","33","NaN","","","","","","","","","","","","","","",""
"","S2","","html-keyboard-response","229","453849","0.0-1.0-301.0","0","0","50653","","null","","","null","33","","NaN","","","","","","","","","","","","","",""
"","response","","html-keyboard-response","230","455703","0.0-1.0-302.0-0.0","0","0","50653","","null","","","null","33","","","1","33","training","adjacent","CD","3","4","Q.jpg","L.jpg","NaN","1","0","",""
"","too_slow_prompt","","html-keyboard-response","231","456709","0.0-1.0-304.0-0.0","1","0","50653","","null","","","null","","","","","","","","","","","","","","","","",""
"","time_out","","html-keyboard-response","232","458714","0.0-1.0-305.0-0.0","0","0","50653","","null","","","null","33","","","","","","","","","","","","","","","",""
"","ITI","","html-keyboard-response","233","459719","0.0-1.0-306.0","0","0","50653","","null","","","null","33","","","","","","","","","","","","","","","NaN",""
"","S1","","html-keyboard-response","234","459874","0.0-1.0-308.0","0","0","50653","","null","","","null","34","","","","","","","","","","","","","","","",""
"","ISI","","html-keyboard-response","235","461878","0.0-1.0-309.0","0","0","50653","","null","","","null","34","NaN","","","","","","","","","","","","","","",""
"","S2","","html-keyboard-response","236","462032","0.0-1.0-310.0","0","0","50653","","null","","","null","34","","NaN","","","","","","","","","","","","","",""
"","response","","html-keyboard-response","237","462456","0.0-1.0-311.0-0.0","0","0","50653","","420","","","75","34","","","1","34","training","adjacent","CD","3","4","Q.jpg","L.jpg","1","1","1","",""
"","feedback","","html-keyboard-response","238","463462","0.0-1.0-312.0-0.0","0","0","50653","","null","","","null","34","","","","","","","","","","","","","","","",""
"","ITI","","html-keyboard-response","239","464467","0.0-1.0-315.0","0","0","50653","","null","","","null","34","","","","","","","","","","","","","","","NaN",""
"","S1","","html-keyboard-response","240","464622","0.0-1.0-317.0","0","0","50653","","null","","","null","35","","","","","","","","","","","","","","","",""
"","ISI","","html-keyboard-response","241","466626","0.0-1.0-318.0","0","0","50653","","null","","","null","35","NaN","","","","","","","","","","","","","","",""
"","S2","","html-keyboard-response","242","466782","0.0-1.0-319.0","0","0","50653","","null","","","null","35","","NaN","","","","","","","","","","","","","",""
"","response","","html-keyboard-response","243","468082","0.0-1.0-320.0-0.0","0","0","50653","","1296","","","68","35","","","1","35","training","adjacent","FG","6","7","M.jpg","P.jpg","0","1","0","",""
"","feedback","","html-keyboard-response","244","469088","0.0-1.0-321.0-0.0","0","0","50653","","null","","","null","35","","","","","","","","","","","","","","","",""
"","time_out","","html-keyboard-response","245","471093","0.0-1.0-323.0-0.0","0","0","50653","","null","","","null","35","","","","","","","","","","","","","","","",""
"","ITI","","html-keyboard-response","246","472097","0.0-1.0-324.0","0","0","50653","","null","","","null","35","","","","","","","","","","","","","","","NaN",""
"","S1","","html-keyboard-response","247","472252","0.0-1.0-326.0","0","0","50653","","null","","","null","36","","","","","","","","","","","","","","","",""
"","ISI","","html-keyboard-response","248","474257","0.0-1.0-327.0","0","0","50653","","null","","","null","36","NaN","","","","","","","","","","","","","","",""
"","S2","","html-keyboard-response","249","474412","0.0-1.0-328.0","0","0","50653","","null","","","null","36","","NaN","","","","","","","","","","","","","",""
"","response","","html-keyboard-response","250","475171","0.0-1.0-329.0-0.0","0","0","50653","","755","","","75","36","","","1","36","training","adjacent","GF","7","6","P.jpg","M.jpg","1","0","0","",""
"","feedback","","html-keyboard-response","251","476177","0.0-1.0-330.0-0.0","0","0","50653","","null","","","null","36","","","","","","","","","","","","","","","",""
"","time_out","","html-keyboard-response","252","478182","0.0-1.0-332.0-0.0","0","0","50653","","null","","","null","36","","","","","","","","","","","","","","","",""
"","ITI","","html-keyboard-response","253","479186","0.0-1.0-333.0","0","0","50653","","null","","","null","36","","","","","","","","","","","","","","","NaN",""
"","S1","","html-keyboard-response","254","479342","0.0-1.0-335.0","0","0","50653","","null","","","null","37","","","","","","","","","","","","","","","",""
"","ISI","","html-keyboard-response","255","481345","0.0-1.0-336.0","0","0","50653","","null","","","null","37","NaN","","","","","","","","","","","","","","",""
"","S2","","html-keyboard-response","256","481501","0.0-1.0-337.0","0","0","50653","","null","","","null","37","","NaN","","","","","","","","","","","","","",""
"","response","","html-keyboard-response","257","482391","0.0-1.0-338.0-0.0","0","0","50653","","885","","","68","37","","","1","37","training","adjacent","EF","5","6","O.jpg","M.jpg","0","1","0","",""
"","feedback","","html-keyboard-response","258","483396","0.0-1.0-339.0-0.0","0","0","50653","","null","","","null","37","","","","","","","","","","","","","","","",""
"","time_out","","html-keyboard-response","259","485401","0.0-1.0-341.0-0.0","0","0","50653","","null","","","null","37","","","","","","","","","","","","","","","",""
"","ITI","","html-keyboard-response","260","486405","0.0-1.0-342.0","0","0","50653","","null","","","null","37","","","","","","","","","","","","","","","NaN",""
"","S1","","html-keyboard-response","261","486561","0.0-1.0-344.0","0","0","50653","","null","","","null","38","","","","","","","","","","","","","","","",""
"","ISI","","html-keyboard-response","262","488565","0.0-1.0-345.0","0","0","50653","","null","","","null","38","NaN","","","","","","","","","","","","","","",""
"","S2","","html-keyboard-response","263","488720","0.0-1.0-346.0","0","0","50653","","null","","","null","38","","NaN","","","","","","","","","","","","","",""
"","response","","html-keyboard-response","264","489317","0.0-1.0-347.0-0.0","0","0","50653","","592","","","75","38","","","1","38","training","adjacent","DE","4","5","L.jpg","O.jpg","1","1","1","",""
"","feedback","","html-keyboard-response","265","490323","0.0-1.0-348.0-0.0","0","0","50653","","null","","","null","38","","","","","","","","","","","","","","","",""
"","ITI","","html-keyboard-response","266","491329","0.0-1.0-351.0","0","0","50653","","null","","","null","38","","","","","","","","","","","","","","","NaN",""
"","S1","","html-keyboard-response","267","491483","0.0-1.0-353.0","0","0","50653","","null","","","null","39","","","","","","","","","","","","","","","",""
"","ISI","","html-keyboard-response","268","493488","0.0-1.0-354.0","0","0","50653","","null","","","null","39","NaN","","","","","","","","","","","","","","",""
"","S2","","html-keyboard-response","269","493643","0.0-1.0-355.0","0","0","50653","","null","","","null","39","","NaN","","","","","","","","","","","","","",""
"","response","","html-keyboard-response","270","494278","0.0-1.0-356.0-0.0","0","0","50653","","630","","","75","39","","","1","39","training","adjacent","AB","1","2","N.jpg","R.jpg","1","1","1","",""
"","feedback","","html-keyboard-response","271","495283","0.0-1.0-357.0-0.0","0","0","50653","","null","","","null","39","","","","","","","","","","","","","","","",""
"","ITI","","html-keyboard-response","272","496289","0.0-1.0-360.0","0","0","50653","","null","","","null","39","","","","","","","","","","","","","","","NaN",""
"","S1","","html-keyboard-response","273","496444","0.0-1.0-362.0","0","0","50653","","null","","","null","40","","","","","","","","","","","","","","","",""
"","ISI","","html-keyboard-response","274","498448","0.0-1.0-363.0","0","0","50653","","null","","","null","40","NaN","","","","","","","","","","","","","","",""
"","S2","","html-keyboard-response","275","498603","0.0-1.0-364.0","0","0","50653","","null","","","null","40","","NaN","","","","","","","","","","","","","",""
"","response","","html-keyboard-response","276","499043","0.0-1.0-365.0-0.0","0","0","50653","","437","","","68","40","","","1","40","training","adjacent","DC","4","3","L.jpg","Q.jpg","0","0","1","",""
"","feedback","","html-keyboard-response","277","500049","0.0-1.0-366.0-0.0","0","0","50653","","null","","","null","40","","","","","","","","","","","","","","","",""
"","ITI","","html-keyboard-response","278","501055","0.0-1.0-369.0","0","0","50653","","null","","","null","40","","","","","","","","","","","","","","","NaN",""
"","S1","","html-keyboard-response","279","501210","0.0-1.0-371.0","0","0","50653","","null","","","null","41","","","","","","","","","","","","","","","",""
"","ISI","","html-keyboard-response","280","503215","0.0-1.0-372.0","0","0","50653","","null","","","null","41","NaN","","","","","","","","","","","","","","",""
"","S2","","html-keyboard-response","281","503369","0.0-1.0-373.0","0","0","50653","","null","","","null","41","","NaN","","","","","","","","","","","","","",""
"","response","","html-keyboard-response","282","504507","0.0-1.0-374.0-0.0","0","0","50653","","1134","","","75","41","","","1","41","training","adjacent","CD","3","4","Q.jpg","L.jpg","1","1","1","",""
"","feedback","","html-keyboard-response","283","505514","0.0-1.0-375.0-0.0","0","0","50653","","null","","","null","41","","","","","","","","","","","","","","","",""
"","ITI","","html-keyboard-response","284","506518","0.0-1.0-378.0","0","0","50653","","null","","","null","41","","","","","","","","","","","","","","","NaN",""
"","S1","","html-keyboard-response","285","506674","0.0-1.0-380.0","0","0","50653","","null","","","null","42","","","","","","","","","","","","","","","",""
"","ISI","","html-keyboard-response","286","508678","0.0-1.0-381.0","0","0","50653","","null","","","null","42","NaN","","","","","","","","","","","","","","",""
"","S2","","html-keyboard-response","287","508833","0.0-1.0-382.0","0","0","50653","","null","","","null","42","","NaN","","","","","","","","","","","","","",""
"","response","","html-keyboard-response","288","508909","0.0-1.0-383.0-0.0","0","0","50653","","71","","","68","42","","","1","42","training","adjacent","BC","2","3","R.jpg","Q.jpg","0","1","0","",""
"","feedback","","html-keyboard-response","289","509915","0.0-1.0-384.0-0.0","0","0","50653","","null","","","null","42","","","","","","","","","","","","","","","",""
"","time_out","","html-keyboard-response","290","511920","0.0-1.0-386.0-0.0","0","0","50653","","null","","","null","42","","","","","","","","","","","","","","","",""
"","ITI","","html-keyboard-response","291","512925","0.0-1.0-387.0","0","0","50653","","null","","","null","42","","","","","","","","","","","","","","","NaN",""
"","S1","","html-keyboard-response","292","513079","0.0-1.0-389.0","0","0","50653","","null","","","null","43","","","","","","","","","","","","","","","",""
"","ISI","","html-keyboard-response","293","515084","0.0-1.0-390.0","0","0","50653","","254","","","75","43","k","","","","","","","","","","","","","","",""
"","S2","","html-keyboard-response","294","515240","0.0-1.0-391.0","0","0","50653","","null","","","null","43","","NaN","","","","","","","","","","","","","",""
"","response","","html-keyboard-response","295","515511","0.0-1.0-392.0-0.0","0","0","50653","","267","","","68","43","","","1","43","training","adjacent","BA","2","1","R.jpg","N.jpg","0","0","1","",""
"","feedback","","html-keyboard-response","296","516517","0.0-1.0-393.0-0.0","0","0","50653","","null","","","null","43","","","","","","","","","","","","","","","",""
"","ITI","","html-keyboard-response","297","517522","0.0-1.0-396.0","0","0","50653","","null","","","null","43","","","","","","","","","","","","","","","NaN",""
"","S1","","html-keyboard-response","298","517677","0.0-1.0-398.0","0","0","50653","","null","","","null","44","","","","","","","","","","","","","","","",""
"","ISI","","html-keyboard-response","299","519682","0.0-1.0-399.0","0","0","50653","","95","","","75","44","k","","","","","","","","","","","","","","",""
"","S2","","html-keyboard-response","300","519803","0.0-1.0-400.0","0","0","50653","","116","","","75","44","","k","1","44","training","adjacent","BC","2","3","R.jpg","Q.jpg","1","1","1","",""
"","feedback","","html-keyboard-response","301","520809","0.0-1.0-402.0-0.0","0","0","50653","","null","","","null","44","","","","","","","","","","","","","","","",""
"","ITI","","html-keyboard-response","302","521814","0.0-1.0-405.0","0","0","50653","","null","","","null","44","","","","","","","","","","","","","","","NaN",""
"","S1","","html-keyboard-response","303","521970","0.0-1.0-407.0","0","0","50653","","null","","","null","45","","","","","","","","","","","","","","","",""
"","ISI","","html-keyboard-response","304","523973","0.0-1.0-408.0","0","0","50653","","282","","","75","45","k","","","","","","","","","","","","","","",""
"","S2","","html-keyboard-response","305","524129","0.0-1.0-409.0","0","0","50653","","null","","","null","45","","NaN","","","","","","","","","","","","","",""
"","response","","html-keyboard-response","306","524834","0.0-1.0-410.0-0.0","0","0","50653","","701","","","68","45","","","1","45","training","adjacent","BA","2","1","R.jpg","N.jpg","0","0","1","",""
"","feedback","","html-keyboard-response","307","525840","0.0-1.0-411.0-0.0","0","0","50653","","null","","","null","45","","","","","","","","","","","","","","","",""
"","ITI","","html-keyboard-response","308","526845","0.0-1.0-414.0","0","0","50653","","null","","","null","45","","","","","","","","","","","","","","","NaN",""
"","S1","","html-keyboard-response","309","527000","0.0-1.0-416.0","0","0","50653","","null","","","null","46","","","","","","","","","","","","","","","",""
"","ISI","","html-keyboard-response","310","529005","0.0-1.0-417.0","0","0","50653","","299","","","75","46","k","","","","","","","","","","","","","","",""
"","S2","","html-keyboard-response","311","529160","0.0-1.0-418.0","0","0","50653","","null","","","null","46","","NaN","","","","","","","","","","","","","",""
"","response","","html-keyboard-response","312","529310","0.0-1.0-419.0-0.0","0","0","50653","","144","","","68","46","","","1","46","training","adjacent","BA","2","1","R.jpg","N.jpg","0","0","1","",""
"","feedback","","html-keyboard-response","313","530314","0.0-1.0-420.0-0.0","0","0","50653","","null","","","null","46","","","","","","","","","","","","","","","",""
"","ITI","","html-keyboard-response","314","531320","0.0-1.0-423.0","0","0","50653","","null","","","null","46","","","","","","","","","","","","","","","NaN",""
"","S1","","html-keyboard-response","315","531475","0.0-1.0-425.0","0","0","50653","","null","","","null","47","","","","","","","","","","","","","","","",""
"","ISI","","html-keyboard-response","316","533480","0.0-1.0-426.0","0","0","50653","","180","","","75","47","k","","","","","","","","","","","","","","",""
"","S2","","html-keyboard-response","317","533635","0.0-1.0-427.0","0","0","50653","","null","","","null","47","","NaN","","","","","","","","","","","","","",""
"","response","","html-keyboard-response","318","534351","0.0-1.0-428.0-0.0","0","0","50653","","711","","","75","47","","","1","47","training","adjacent","FE","6","5","M.jpg","O.jpg","1","0","0","",""
"","feedback","","html-keyboard-response","319","535357","0.0-1.0-429.0-0.0","0","0","50653","","null","","","null","47","","","","","","","","","","","","","","","",""
"","time_out","","html-keyboard-response","320","537362","0.0-1.0-431.0-0.0","0","0","50653","","null","","","null","47","","","","","","","","","","","","","","","",""
"","ITI","","html-keyboard-response","321","538366","0.0-1.0-432.0","0","0","50653","","null","","","null","47","","","","","","","","","","","","","","","NaN",""
"","block_over","","html-keyboard-response","322","611349","0.0-1.0-433.0-0.0","0","0","50653","","72974","","","32","47","","","","","","","","","","","","","","","",""
"","S1","","html-keyboard-response","323","611505","0.0-1.0-434.0","0","0","50653","","null","","","null","48","","","","","","","","","","","","","","","",""
"","ISI","","html-keyboard-response","324","613511","0.0-1.0-435.0","0","0","50653","","602","","","75","48","k","","","","","","","","","","","","","","",""
"","S2","","html-keyboard-response","325","613666","0.0-1.0-436.0","0","0","50653","","null","","","null","48","","NaN","","","","","","","","","","","","","",""
"","response","","html-keyboard-response","326","614099","0.0-1.0-437.0-0.0","0","0","50653","","428","","","75","48","","","2","48","training","adjacent","CB","3","2","Q.jpg","R.jpg","1","0","0","",""
"","feedback","","html-keyboard-response","327","615106","0.0-1.0-438.0-0.0","0","0","50653","","null","","","null","48","","","","","","","","","","","","","","","",""
"","time_out","","html-keyboard-response","328","617111","0.0-1.0-440.0-0.0","0","0","50653","","null","","","null","48","","","","","","","","","","","","","","","",""
"","ITI","","html-keyboard-response","329","618117","0.0-1.0-441.0","0","0","50653","","null","","","null","48","","","","","","","","","","","","","","","NaN",""
"","S1","","html-keyboard-response","330","618271","0.0-1.0-443.0","0","0","50653","","null","","","null","49","","","","","","","","","","","","","","","",""
"","ISI","","html-keyboard-response","331","620276","0.0-1.0-444.0","0","0","50653","","null","","","null","49","NaN","","","","","","","","","","","","","","",""
"","S2","","html-keyboard-response","332","620431","0.0-1.0-445.0","0","0","50653","","null","","","null","49","","NaN","","","","","","","","","","","","","",""
"","response","","html-keyboard-response","333","620968","0.0-1.0-446.0-0.0","0","0","50653","","533","","","68","49","","","2","49","training","adjacent","EF","5","6","O.jpg","M.jpg","0","1","0","",""
"","feedback","","html-keyboard-response","334","621975","0.0-1.0-447.0-0.0","0","0","50653","","null","","","null","49","","","","","","","","","","","","","","","",""
"","time_out","","html-keyboard-response","335","623980","0.0-1.0-449.0-0.0","0","0","50653","","null","","","null","49","","","","","","","","","","","","","","","",""
"","ITI","","html-keyboard-response","336","624985","0.0-1.0-450.0","0","0","50653","","null","","","null","49","","","","","","","","","","","","","","","NaN",""
"","S1","","html-keyboard-response","337","625139","0.0-1.0-452.0","0","0","50653","","null","","","null","50","","","","","","","","","","","","","","","",""
"","ISI","","html-keyboard-response","338","627145","0.0-1.0-453.0","0","0","50653","","null","","","null","50","NaN","","","","","","","","","","","","","","",""
"","S2","","html-keyboard-response","339","627299","0.0-1.0-454.0","0","0","50653","","null","","","null","50","","NaN","","","","","","","","","","","","","",""
"","response","","html-keyboard-response","340","627802","0.0-1.0-455.0-0.0","0","0","50653","","498","","","75","50","","","2","50","training","adjacent","FG","6","7","M.jpg","P.jpg","1","1","1","",""
"","feedback","","html-keyboard-response","341","628807","0.0-1.0-456.0-0.0","0","0","50653","","null","","","null","50","","","","","","","","","","","","","","","",""
"","ITI","","html-keyboard-response","342","629813","0.0-1.0-459.0","0","0","50653","","null","","","null","50","","","","","","","","","","","","","","","NaN",""
"","S1","","html-keyboard-response","343","629968","0.0-1.0-461.0","0","0","50653","","null","","","null","51","","","","","","","","","","","","","","","",""
"","ISI","","html-keyboard-response","344","631973","0.0-1.0-462.0","0","0","50653","","null","","","null","51","NaN","","","","","","","","","","","","","","",""
"","S2","","html-keyboard-response","345","632128","0.0-1.0-463.0","0","0","50653","","null","","","null","51","","NaN","","","","","","","","","","","","","",""
"","response","","html-keyboard-response","346","633084","0.0-1.0-464.0-0.0","0","0","50653","","950","","","75","51","","","2","51","training","adjacent","DE","4","5","L.jpg","O.jpg","1","1","1","",""
"","feedback","","html-keyboard-response","347","634089","0.0-1.0-465.0-0.0","0","0","50653","","null","","","null","51","","","","","","","","","","","","","","","",""
"","ITI","","html-keyboard-response","348","635095","0.0-1.0-468.0","0","0","50653","","null","","","null","51","","","","","","","","","","","","","","","NaN",""
"","S1","","html-keyboard-response","349","635250","0.0-1.0-470.0","0","0","50653","","null","","","null","52","","","","","","","","","","","","","","","",""
"","ISI","","html-keyboard-response","350","637254","0.0-1.0-471.0","0","0","50653","","null","","","null","52","NaN","","","","","","","","","","","","","","",""
"","S2","","html-keyboard-response","351","637410","0.0-1.0-472.0","0","0","50653","","null","","","null","52","","NaN","","","","","","","","","","","","","",""
"","response","","html-keyboard-response","352","637956","0.0-1.0-473.0-0.0","0","0","50653","","543","","","75","52","","","2","52","training","adjacent","ED","5","4","O.jpg","L.jpg","1","0","0","",""
"","feedback","","html-keyboard-response","353","638963","0.0-1.0-474.0-0.0","0","0","50653","","null","","","null","52","","","","","","","","","","","","","","","",""
"","time_out","","html-keyboard-response","354","640967","0.0-1.0-476.0-0.0","0","0","50653","","null","","","null","52","","","","","","","","","","","","","","","",""
"","ITI","","html-keyboard-response","355","641973","0.0-1.0-477.0","0","0","50653","","null","","","null","52","","","","","","","","","","","","","","","NaN",""
"","S1","","html-keyboard-response","356","642127","0.0-1.0-479.0","0","0","50653","","null","","","null","53","","","","","","","","","","","","","","","",""
"","ISI","","html-keyboard-response","357","644132","0.0-1.0-480.0","0","0","50653","","null","","","null","53","NaN","","","","","","","","","","","","","","",""
"","S2","","html-keyboard-response","358","644286","0.0-1.0-481.0","0","0","50653","","null","","","null","53","","NaN","","","","","","","","","","","","","",""
"","response","","html-keyboard-response","359","645349","0.0-1.0-482.0-0.0","0","0","50653","","1058","","","75","53","","","2","53","training","adjacent","AB","1","2","N.jpg","R.jpg","1","1","1","",""
"","feedback","","html-keyboard-response","360","646356","0.0-1.0-483.0-0.0","0","0","50653","","null","","","null","53","","","","","","","","","","","","","","","",""
"","ITI","","html-keyboard-response","361","647362","0.0-1.0-486.0","0","0","50653","","null","","","null","53","","","","","","","","","","","","","","","NaN",""
"","S1","","html-keyboard-response","362","647516","0.0-1.0-488.0","0","0","50653","","null","","","null","54","","","","","","","","","","","","","","","",""
"","ISI","","html-keyboard-response","363","649520","0.0-1.0-489.0","0","0","50653","","null","","","null","54","NaN","","","","","","","","","","","","","","",""
"","S2","","html-keyboard-response","364","649676","0.0-1.0-490.0","0","0","50653","","null","","","null","54","","NaN","","","","","","","","","","","","","",""
"","response","","html-keyboard-response","365","650912","0.0-1.0-491.0-0.0","0","0","50653","","1232","","","68","54","","","2","54","training","adjacent","GF","7","6","P.jpg","M.jpg","0","0","1","",""
"","feedback","","html-keyboard-response","366","651918","0.0-1.0-492.0-0.0","0","0","50653","","null","","","null","54","","","","","","","","","","","","","","","",""
"","ITI","","html-keyboard-response","367","652924","0.0-1.0-495.0","0","0","50653","","null","","","null","54","","","","","","","","","","","","","","","NaN",""
"","S1","","html-keyboard-response","368","653079","0.0-1.0-497.0","0","0","50653","","null","","","null","55","","","","","","","","","","","","","","","",""
"","ISI","","html-keyboard-response","369","655083","0.0-1.0-498.0","0","0","50653","","null","","","null","55","NaN","","","","","","","","","","","","","","",""
"","S2","","html-keyboard-response","370","655239","0.0-1.0-499.0","0","0","50653","","null","","","null","55","","NaN","","","","","","","","","","","","","",""
"","response","","html-keyboard-response","371","656116","0.0-1.0-500.0-0.0","0","0","50653","","873","","","68","55","","","2","55","training","adjacent","EF","5","6","O.jpg","M.jpg","0","1","0","",""
"","feedback","","html-keyboard-response","372","657122","0.0-1.0-501.0-0.0","0","0","50653","","null","","","null","55","","","","","","","","","","","","","","","",""
"","time_out","","html-keyboard-response","373","659127","0.0-1.0-503.0-0.0","0","0","50653","","null","","","null","55","","","","","","","","","","","","","","","",""
"","ITI","","html-keyboard-response","374","660132","0.0-1.0-504.0","0","0","50653","","null","","","null","55","","","","","","","","","","","","","","","NaN",""
"","S1","","html-keyboard-response","375","660287","0.0-1.0-506.0","0","0","50653","","null","","","null","56","","","","","","","","","","","","","","","",""
"","ISI","","html-keyboard-response","376","662292","0.0-1.0-507.0","0","0","50653","","null","","","null","56","NaN","","","","","","","","","","","","","","",""
"","S2","","html-keyboard-response","377","662446","0.0-1.0-508.0","0","0","50653","","null","","","null","56","","NaN","","","","","","","","","","","","","",""
"","response","","html-keyboard-response","378","663487","0.0-1.0-509.0-0.0","0","0","50653","","1036","","","75","56","","","2","56","training","adjacent","AB","1","2","N.jpg","R.jpg","1","1","1","",""
"","feedback","","html-keyboard-response","379","664494","0.0-1.0-510.0-0.0","0","0","50653","","null","","","null","56","","","","","","","","","","","","","","","",""
"","ITI","","html-keyboard-response","380","665499","0.0-1.0-513.0","0","0","50653","","null","","","null","56","","","","","","","","","","","","","","","NaN",""
"","S1","","html-keyboard-response","381","665655","0.0-1.0-515.0","0","0","50653","","null","","","null","57","","","","","","","","","","","","","","","",""
"","ISI","","html-keyboard-response","382","667659","0.0-1.0-516.0","0","0","50653","","null","","","null","57","NaN","","","","","","","","","","","","","","",""
"","S2","","html-keyboard-response","383","667814","0.0-1.0-517.0","0","0","50653","","null","","","null","57","","NaN","","","","","","","","","","","","","",""
"","response","","html-keyboard-response","384","668407","0.0-1.0-518.0-0.0","0","0","50653","","589","","","68","57","","","2","57","training","adjacent","BC","2","3","R.jpg","Q.jpg","0","1","0","",""
"","feedback","","html-keyboard-response","385","669413","0.0-1.0-519.0-0.0","0","0","50653","","null","","","null","57","","","","","","","","","","","","","","","",""
"","time_out","","html-keyboard-response","386","671418","0.0-1.0-521.0-0.0","0","0","50653","","null","","","null","57","","","","","","","","","","","","","","","",""
"","ITI","","html-keyboard-response","387","672423","0.0-1.0-522.0","0","0","50653","","null","","","null","57","","","","","","","","","","","","","","","NaN",""
"","S1","","html-keyboard-response","388","672578","0.0-1.0-524.0","0","0","50653","","null","","","null","58","","","","","","","","","","","","","","","",""
"","ISI","","html-keyboard-response","389","674583","0.0-1.0-525.0","0","0","50653","","null","","","null","58","NaN","","","","","","","","","","","","","","",""
"","S2","","html-keyboard-response","390","674737","0.0-1.0-526.0","0","0","50653","","null","","","null","58","","NaN","","","","","","","","","","","","","",""
"","response","","html-keyboard-response","391","675786","0.0-1.0-527.0-0.0","0","0","50653","","1044","","","68","58","","","2","58","training","adjacent","CD","3","4","Q.jpg","L.jpg","0","1","0","",""
"","feedback","","html-keyboard-response","392","676792","0.0-1.0-528.0-0.0","0","0","50653","","null","","","null","58","","","","","","","","","","","","","","","",""
"","time_out","","html-keyboard-response","393","678798","0.0-1.0-530.0-0.0","0","0","50653","","null","","","null","58","","","","","","","","","","","","","","","",""
"","ITI","","html-keyboard-response","394","679802","0.0-1.0-531.0","0","0","50653","","null","","","null","58","","","","","","","","","","","","","","","NaN",""
"","S1","","html-keyboard-response","395","679958","0.0-1.0-533.0","0","0","50653","","null","","","null","59","","","","","","","","","","","","","","","",""
"","ISI","","html-keyboard-response","396","681962","0.0-1.0-534.0","0","0","50653","","null","","","null","59","NaN","","","","","","","","","","","","","","",""
"","S2","","html-keyboard-response","397","682117","0.0-1.0-535.0","0","0","50653","","null","","","null","59","","NaN","","","","","","","","","","","","","",""
"","response","","html-keyboard-response","398","682594","0.0-1.0-536.0-0.0","0","0","50653","","474","","","75","59","","","2","59","training","adjacent","FG","6","7","M.jpg","P.jpg","1","1","1","",""
"","feedback","","html-keyboard-response","399","683601","0.0-1.0-537.0-0.0","0","0","50653","","null","","","null","59","","","","","","","","","","","","","","","",""
"","ITI","","html-keyboard-response","400","684606","0.0-1.0-540.0","0","0","50653","","null","","","null","59","","","","","","","","","","","","","","","NaN",""
"","S1","","html-keyboard-response","401","684762","0.0-1.0-542.0","0","0","50653","","null","","","null","60","","","","","","","","","","","","","","","",""
"","ISI","","html-keyboard-response","402","686766","0.0-1.0-543.0","0","0","50653","","null","","","null","60","NaN","","","","","","","","","","","","","","",""
"","S2","","html-keyboard-response","403","686921","0.0-1.0-544.0","0","0","50653","","null","","","null","60","","NaN","","","","","","","","","","","","","",""
"","response","","html-keyboard-response","404","688017","0.0-1.0-545.0-0.0","0","0","50653","","1092","","","75","60","","","2","60","training","adjacent","DC","4","3","L.jpg","Q.jpg","1","0","0","",""
"","feedback","","html-keyboard-response","405","689024","0.0-1.0-546.0-0.0","0","0","50653","","null","","","null","60","","","","","","","","","","","","","","","",""
"","time_out","","html-keyboard-response","406","691029","0.0-1.0-548.0-0.0","0","0","50653","","null","","","null","60","","","","","","","","","","","","","","","",""
"","ITI","","html-keyboard-response","407","692033","0.0-1.0-549.0","0","0","50653","","null","","","null","60","","","","","","","","","","","","","","","NaN",""
"","S1","","html-keyboard-response","408","692189","0.0-1.0-551.0","0","0","50653","","null","","","null","61","","","","","","","","","","","","","","","",""
"","ISI","","html-keyboard-response","409","694194","0.0-1.0-552.0","0","0","50653","","null","","","null","61","NaN","","","","","","","","","","","","","","",""
"","S2","","html-keyboard-response","410","694349","0.0-1.0-553.0","0","0","50653","","null","","","null","61","","NaN","","","","","","","","","","","","","",""
"","response","","html-keyboard-response","411","695577","0.0-1.0-554.0-0.0","0","0","50653","","1223","","","75","61","","","2","61","training","adjacent","DC","4","3","L.jpg","Q.jpg","1","0","0","",""
"","feedback","","html-keyboard-response","412","696583","0.0-1.0-555.0-0.0","0","0","50653","","null","","","null","61","","","","","","","","","","","","","","","",""
"","time_out","","html-keyboard-response","413","698589","0.0-1.0-557.0-0.0","0","0","50653","","null","","","null","61","","","","","","","","","","","","","","","",""
"","ITI","","html-keyboard-response","414","699594","0.0-1.0-558.0","0","0","50653","","null","","","null","61","","","","","","","","","","","","","","","NaN",""
"","S1","","html-keyboard-response","415","699748","0.0-1.0-560.0","0","0","50653","","null","","","null","62","","","","","","","","","","","","","","","",""
"","ISI","","html-keyboard-response","416","701753","0.0-1.0-561.0","0","0","50653","","null","","","null","62","NaN","","","","","","","","","","","","","","",""
"","S2","","html-keyboard-response","417","701908","0.0-1.0-562.0","0","0","50653","","null","","","null","62","","NaN","","","","","","","","","","","","","",""
"","response","","html-keyboard-response","418","703089","0.0-1.0-563.0-0.0","0","0","50653","","1175","","","75","62","","","2","62","training","adjacent","CD","3","4","Q.jpg","L.jpg","1","1","1","",""
"","feedback","","html-keyboard-response","419","704095","0.0-1.0-564.0-0.0","0","0","50653","","null","","","null","62","","","","","","","","","","","","","","","",""
"","ITI","","html-keyboard-response","420","705100","0.0-1.0-567.0","0","0","50653","","null","","","null","62","","","","","","","","","","","","","","","NaN",""
"","S1","","html-keyboard-response","421","705253","0.0-1.0-569.0","0","0","50653","","null","","","null","63","","","","","","","","","","","","","","","",""
"","ISI","","html-keyboard-response","422","707258","0.0-1.0-570.0","0","0","50653","","null","","","null","63","NaN","","","","","","","","","","","","","","",""
"","S2","","html-keyboard-response","423","707412","0.0-1.0-571.0","0","0","50653","","null","","","null","63","","NaN","","","","","","","","","","","","","",""
"","response","","html-keyboard-response","424","708140","0.0-1.0-572.0-0.0","0","0","50653","","723","","","75","63","","","2","63","training","adjacent","AB","1","2","N.jpg","R.jpg","1","1","1","",""
"","feedback","","html-keyboard-response","425","709146","0.0-1.0-573.0-0.0","0","0","50653","","null","","","null","63","","","","","","","","","","","","","","","",""
"","ITI","","html-keyboard-response","426","710152","0.0-1.0-576.0","0","0","50653","","null","","","null","63","","","","","","","","","","","","","","","NaN",""
"","S1","","html-keyboard-response","427","710308","0.0-1.0-578.0","0","0","50653","","null","","","null","64","","","","","","","","","","","","","","","",""
"","ISI","","html-keyboard-response","428","712312","0.0-1.0-579.0","0","0","50653","","null","","","null","64","NaN","","","","","","","","","","","","","","",""
"","S2","","html-keyboard-response","429","712467","0.0-1.0-580.0","0","0","50653","","null","","","null","64","","NaN","","","","","","","","","","","","","",""
"","response","","html-keyboard-response","430","713452","0.0-1.0-581.0-0.0","0","0","50653","","980","","","75","64","","","2","64","training","adjacent","GF","7","6","P.jpg","M.jpg","1","0","0","",""
"","feedback","","html-keyboard-response","431","714458","0.0-1.0-582.0-0.0","0","0","50653","","null","","","null","64","","","","","","","","","","","","","","","",""
"","time_out","","html-keyboard-response","432","716464","0.0-1.0-584.0-0.0","0","0","50653","","null","","","null","64","","","","","","","","","","","","","","","",""
"","ITI","","html-keyboard-response","433","717468","0.0-1.0-585.0","0","0","50653","","null","","","null","64","","","","","","","","","","","","","","","NaN",""
"","S1","","html-keyboard-response","434","717624","0.0-1.0-587.0","0","0","50653","","null","","","null","65","","","","","","","","","","","","","","","",""
"","ISI","","html-keyboard-response","435","719628","0.0-1.0-588.0","0","0","50653","","null","","","null","65","NaN","","","","","","","","","","","","","","",""
"","S2","","html-keyboard-response","436","719784","0.0-1.0-589.0","0","0","50653","","null","","","null","65","","NaN","","","","","","","","","","","","","",""
"","response","","html-keyboard-response","437","720815","0.0-1.0-590.0-0.0","0","0","50653","","1026","","","75","65","","","2","65","training","adjacent","FG","6","7","M.jpg","P.jpg","1","1","1","",""
"","feedback","","html-keyboard-response","438","721821","0.0-1.0-591.0-0.0","0","0","50653","","null","","","null","65","","","","","","","","","","","","","","","",""
"","ITI","","html-keyboard-response","439","722826","0.0-1.0-594.0","0","0","50653","","null","","","null","65","","","","","","","","","","","","","","","NaN",""
"","S1","","html-keyboard-response","440","722981","0.0-1.0-596.0","0","0","50653","","null","","","null","66","","","","","","","","","","","","","","","",""
"","ISI","","html-keyboard-response","441","724986","0.0-1.0-597.0","0","0","50653","","null","","","null","66","NaN","","","","","","","","","","","","","","",""
"","S2","","html-keyboard-response","442","725141","0.0-1.0-598.0","0","0","50653","","null","","","null","66","","NaN","","","","","","","","","","","","","",""
"","response","","html-keyboard-response","443","725701","0.0-1.0-599.0-0.0","0","0","50653","","555","","","68","66","","","2","66","training","adjacent","GF","7","6","P.jpg","M.jpg","0","0","1","",""
"","feedback","","html-keyboard-response","444","726707","0.0-1.0-600.0-0.0","0","0","50653","","null","","","null","66","","","","","","","","","","","","","","","",""
"","ITI","","html-keyboard-response","445","727713","0.0-1.0-603.0","0","0","50653","","null","","","null","66","","","","","","","","","","","","","","","NaN",""
"","S1","","html-keyboard-response","446","727869","0.0-1.0-605.0","0","0","50653","","null","","","null","67","","","","","","","","","","","","","","","",""
"","ISI","","html-keyboard-response","447","729872","0.0-1.0-606.0","0","0","50653","","null","","","null","67","NaN","","","","","","","","","","","","","","",""
"","S2","","html-keyboard-response","448","730028","0.0-1.0-607.0","0","0","50653","","null","","","null","67","","NaN","","","","","","","","","","","","","",""
"","response","","html-keyboard-response","449","731031","0.0-1.0-608.0-0.0","0","0","50653","","999","","","75","67","","","2","67","training","adjacent","AB","1","2","N.jpg","R.jpg","1","1","1","",""
"","feedback","","html-keyboard-response","450","732037","0.0-1.0-609.0-0.0","0","0","50653","","null","","","null","67","","","","","","","","","","","","","","","",""
"","ITI","","html-keyboard-response","451","733042","0.0-1.0-612.0","0","0","50653","","null","","","null","67","","","","","","","","","","","","","","","NaN",""
"","S1","","html-keyboard-response","452","733196","0.0-1.0-614.0","0","0","50653","","null","","","null","68","","","","","","","","","","","","","","","",""
"","ISI","","html-keyboard-response","453","735202","0.0-1.0-615.0","0","0","50653","","null","","","null","68","NaN","","","","","","","","","","","","","","",""
"","S2","","html-keyboard-response","454","735356","0.0-1.0-616.0","0","0","50653","","null","","","null","68","","NaN","","","","","","","","","","","","","",""
"","response","","html-keyboard-response","455","736179","0.0-1.0-617.0-0.0","0","0","50653","","819","","","68","68","","","2","68","training","adjacent","FE","6","5","M.jpg","O.jpg","0","0","1","",""
"","feedback","","html-keyboard-response","456","737186","0.0-1.0-618.0-0.0","0","0","50653","","null","","","null","68","","","","","","","","","","","","","","","",""
"","ITI","","html-keyboard-response","457","738191","0.0-1.0-621.0","0","0","50653","","null","","","null","68","","","","","","","","","","","","","","","NaN",""
"","S1","","html-keyboard-response","458","738347","0.0-1.0-623.0","0","0","50653","","null","","","null","69","","","","","","","","","","","","","","","",""
"","ISI","","html-keyboard-response","459","740351","0.0-1.0-624.0","0","0","50653","","null","","","null","69","NaN","","","","","","","","","","","","","","",""
"","S2","","html-keyboard-response","460","740506","0.0-1.0-625.0","0","0","50653","","null","","","null","69","","NaN","","","","","","","","","","","","","",""
"","response","","html-keyboard-response","461","741050","0.0-1.0-626.0-0.0","0","0","50653","","540","","","75","69","","","2","69","training","adjacent","BA","2","1","R.jpg","N.jpg","1","0","0","",""
"","feedback","","html-keyboard-response","462","742056","0.0-1.0-627.0-0.0","0","0","50653","","null","","","null","69","","","","","","","","","","","","","","","",""
"","time_out","","html-keyboard-response","463","744062","0.0-1.0-629.0-0.0","0","0","50653","","null","","","null","69","","","","","","","","","","","","","","","",""
"","ITI","","html-keyboard-response","464","745067","0.0-1.0-630.0","0","0","50653","","null","","","null","69","","","","","","","","","","","","","","","NaN",""
"","S1","","html-keyboard-response","465","745222","0.0-1.0-632.0","0","0","50653","","null","","","null","70","","","","","","","","","","","","","","","",""
"","ISI","","html-keyboard-response","466","747227","0.0-1.0-633.0","0","0","50653","","null","","","null","70","NaN","","","","","","","","","","","","","","",""
"","S2","","html-keyboard-response","467","747382","0.0-1.0-634.0","0","0","50653","","null","","","null","70","","NaN","","","","","","","","","","","","","",""
"","response","","html-keyboard-response","468","748267","0.0-1.0-635.0-0.0","0","0","50653","","880","","","68","70","","","2","70","training","adjacent","DE","4","5","L.jpg","O.jpg","0","1","0","",""
"","feedback","","html-keyboard-response","469","749274","0.0-1.0-636.0-0.0","0","0","50653","","null","","","null","70","","","","","","","","","","","","","","","",""
"","time_out","","html-keyboard-response","470","751279","0.0-1.0-638.0-0.0","0","0","50653","","null","","","null","70","","","","","","","","","","","","","","","",""
"","ITI","","html-keyboard-response","471","752284","0.0-1.0-639.0","0","0","50653","","null","","","null","70","","","","","","","","","","","","","","","NaN",""
"","S1","","html-keyboard-response","472","752440","0.0-1.0-641.0","0","0","50653","","null","","","null","71","","","","","","","","","","","","","","","",""
"","ISI","","html-keyboard-response","473","754444","0.0-1.0-642.0","0","0","50653","","null","","","null","71","NaN","","","","","","","","","","","","","","",""
"","S2","","html-keyboard-response","474","754599","0.0-1.0-643.0","0","0","50653","","null","","","null","71","","NaN","","","","","","","","","","","","","",""
"","response","","html-keyboard-response","475","755600","0.0-1.0-644.0-0.0","0","0","50653","","998","","","75","71","","","2","71","training","adjacent","CB","3","2","Q.jpg","R.jpg","1","0","0","",""
"","feedback","","html-keyboard-response","476","756607","0.0-1.0-645.0-0.0","0","0","50653","","null","","","null","71","","","","","","","","","","","","","","","",""
"","time_out","","html-keyboard-response","477","758612","0.0-1.0-647.0-0.0","0","0","50653","","null","","","null","71","","","","","","","","","","","","","","","",""
"","ITI","","html-keyboard-response","478","759617","0.0-1.0-648.0","0","0","50653","","null","","","null","71","","","","","","","","","","","","","","","NaN",""
"","S1","","html-keyboard-response","479","759772","0.0-1.0-650.0","0","0","50653","","null","","","null","72","","","","","","","","","","","","","","","",""
"","ISI","","html-keyboard-response","480","761777","0.0-1.0-651.0","0","0","50653","","null","","","null","72","NaN","","","","","","","","","","","","","","",""
"","S2","","html-keyboard-response","481","761932","0.0-1.0-652.0","0","0","50653","","null","","","null","72","","NaN","","","","","","","","","","","","","",""
"","response","","html-keyboard-response","482","762949","0.0-1.0-653.0-0.0","0","0","50653","","1011","","","75","72","","","2","72","training","adjacent","FG","6","7","M.jpg","P.jpg","1","1","1","",""
"","feedback","","html-keyboard-response","483","763954","0.0-1.0-654.0-0.0","0","0","50653","","null","","","null","72","","","","","","","","","","","","","","","",""
"","ITI","","html-keyboard-response","484","764961","0.0-1.0-657.0","0","0","50653","","null","","","null","72","","","","","","","","","","","","","","","NaN",""
"","S1","","html-keyboard-response","485","765116","0.0-1.0-659.0","0","0","50653","","null","","","null","73","","","","","","","","","","","","","","","",""
"","ISI","","html-keyboard-response","486","767120","0.0-1.0-660.0","0","0","50653","","null","","","null","73","NaN","","","","","","","","","","","","","","",""
"","S2","","html-keyboard-response","487","767276","0.0-1.0-661.0","0","0","50653","","null","","","null","73","","NaN","","","","","","","","","","","","","",""
"","response","","html-keyboard-response","488","767475","0.0-1.0-662.0-0.0","0","0","50653","","194","","","68","73","","","2","73","training","adjacent","BA","2","1","R.jpg","N.jpg","0","0","1","",""
"","feedback","","html-keyboard-response","489","768481","0.0-1.0-663.0-0.0","0","0","50653","","null","","","null","73","","","","","","","","","","","","","","","",""
"","ITI","","html-keyboard-response","490","769487","0.0-1.0-666.0","0","0","50653","","null","","","null","73","","","","","","","","","","","","","","","NaN",""
"","S1","","html-keyboard-response","491","769643","0.0-1.0-668.0","0","0","50653","","null","","","null","74","","","","","","","","","","","","","","","",""
"","ISI","","html-keyboard-response","492","771647","0.0-1.0-669.0","0","0","50653","","null","","","null","74","NaN","","","","","","","","","","","","","","",""
"","S2","","html-keyboard-response","493","771802","0.0-1.0-670.0","0","0","50653","","null","","","null","74","","NaN","","","","","","","","","","","","","",""
"","response","","html-keyboard-response","494","772094","0.0-1.0-671.0-0.0","0","0","50653","","288","","","75","74","","","2","74","training","adjacent","EF","5","6","O.jpg","M.jpg","1","1","1","",""
"","feedback","","html-keyboard-response","495","773100","0.0-1.0-672.0-0.0","0","0","50653","","null","","","null","74","","","","","","","","","","","","","","","",""
"","ITI","","html-keyboard-response","496","774106","0.0-1.0-675.0","0","0","50653","","null","","","null","74","","","","","","","","","","","","","","","NaN",""
"","S1","","html-keyboard-response","497","774262","0.0-1.0-677.0","0","0","50653","","null","","","null","75","","","","","","","","","","","","","","","",""
"","ISI","","html-keyboard-response","498","776267","0.0-1.0-678.0","0","0","50653","","null","","","null","75","NaN","","","","","","","","","","","","","","",""
"","S2","","html-keyboard-response","499","776423","0.0-1.0-679.0","0","0","50653","","null","","","null","75","","NaN","","","","","","","","","","","","","",""
"","response","","html-keyboard-response","500","777309","0.0-1.0-680.0-0.0","0","0","50653","","882","","","68","75","","","2","75","training","adjacent","ED","5","4","O.jpg","L.jpg","0","0","1","",""
"","feedback","","html-keyboard-response","501","778315","0.0-1.0-681.0-0.0","0","0","50653","","null","","","null","75","","","","","","","","","","","","","","","",""
"","ITI","","html-keyboard-response","502","779321","0.0-1.0-684.0","0","0","50653","","null","","","null","75","","","","","","","","","","","","","","","NaN",""
"","S1","","html-keyboard-response","503","779476","0.0-1.0-686.0","0","0","50653","","null","","","null","76","","","","","","","","","","","","","","","",""
"","ISI","","html-keyboard-response","504","781481","0.0-1.0-687.0","0","0","50653","","null","","","null","76","NaN","","","","","","","","","","","","","","",""
"","S2","","html-keyboard-response","505","781636","0.0-1.0-688.0","0","0","50653","","null","","","null","76","","NaN","","","","","","","","","","","","","",""
"","response","","html-keyboard-response","506","782404","0.0-1.0-689.0-0.0","0","0","50653","","763","","","68","76","","","2","76","training","adjacent","BC","2","3","R.jpg","Q.jpg","0","1","0","",""
"","feedback","","html-keyboard-response","507","783410","0.0-1.0-690.0-0.0","0","0","50653","","null","","","null","76","","","","","","","","","","","","","","","",""
"","time_out","","html-keyboard-response","508","785417","0.0-1.0-692.0-0.0","0","0","50653","","null","","","null","76","","","","","","","","","","","","","","","",""
"","ITI","","html-keyboard-response","509","786422","0.0-1.0-693.0","0","0","50653","","null","","","null","76","","","","","","","","","","","","","","","NaN",""
"","S1","","html-keyboard-response","510","786577","0.0-1.0-695.0","0","0","50653","","null","","","null","77","","","","","","","","","","","","","","","",""
"","ISI","","html-keyboard-response","511","788579","0.0-1.0-696.0","0","0","50653","","null","","","null","77","NaN","","","","","","","","","","","","","","",""
"","S2","","html-keyboard-response","512","788734","0.0-1.0-697.0","0","0","50653","","null","","","null","77","","NaN","","","","","","","","","","","","","",""
"","response","","html-keyboard-response","513","789213","0.0-1.0-698.0-0.0","0","0","50653","","475","","","75","77","","","2","77","training","adjacent","ED","5","4","O.jpg","L.jpg","1","0","0","",""
"","feedback","","html-keyboard-response","514","790220","0.0-1.0-699.0-0.0","0","0","50653","","null","","","null","77","","","","","","","","","","","","","","","",""
"","time_out","","html-keyboard-response","515","792226","0.0-1.0-701.0-0.0","0","0","50653","","null","","","null","77","","","","","","","","","","","","","","","",""
"","ITI","","html-keyboard-response","516","793231","0.0-1.0-702.0","0","0","50653","","null","","","null","77","","","","","","","","","","","","","","","NaN",""
"","S1","","html-keyboard-response","517","793386","0.0-1.0-704.0","0","0","50653","","null","","","null","78","","","","","","","","","","","","","","","",""
"","ISI","","html-keyboard-response","518","795391","0.0-1.0-705.0","0","0","50653","","null","","","null","78","NaN","","","","","","","","","","","","","","",""
"","S2","","html-keyboard-response","519","795545","0.0-1.0-706.0","0","0","50653","","null","","","null","78","","NaN","","","","","","","","","","","","","",""
"","response","","html-keyboard-response","520","796309","0.0-1.0-707.0-0.0","0","0","50653","","759","","","68","78","","","2","78","training","adjacent","DC","4","3","L.jpg","Q.jpg","0","0","1","",""
"","feedback","","html-keyboard-response","521","797315","0.0-1.0-708.0-0.0","0","0","50653","","null","","","null","78","","","","","","","","","","","","","","","",""
"","ITI","","html-keyboard-response","522","798321","0.0-1.0-711.0","0","0","50653","","null","","","null","78","","","","","","","","","","","","","","","NaN",""
"","S1","","html-keyboard-response","523","798476","0.0-1.0-713.0","0","0","50653","","null","","","null","79","","","","","","","","","","","","","","","",""
"","ISI","","html-keyboard-response","524","800481","0.0-1.0-714.0","0","0","50653","","null","","","null","79","NaN","","","","","","","","","","","","","","",""
"","S2","","html-keyboard-response","525","800636","0.0-1.0-715.0","0","0","50653","","null","","","null","79","","NaN","","","","","","","","","","","","","",""
"","response","","html-keyboard-response","526","801168","0.0-1.0-716.0-0.0","0","0","50653","","527","","","75","79","","","2","79","training","adjacent","EF","5","6","O.jpg","M.jpg","1","1","1","",""
"","feedback","","html-keyboard-response","527","802174","0.0-1.0-717.0-0.0","0","0","50653","","null","","","null","79","","","","","","","","","","","","","","","",""
"","ITI","","html-keyboard-response","528","803180","0.0-1.0-720.0","0","0","50653","","null","","","null","79","","","","","","","","","","","","","","","NaN",""
"","S1","","html-keyboard-response","529","803335","0.0-1.0-722.0","0","0","50653","","null","","","null","80","","","","","","","","","","","","","","","",""
"","ISI","","html-keyboard-response","530","805340","0.0-1.0-723.0","0","0","50653","","null","","","null","80","NaN","","","","","","","","","","","","","","",""
"","S2","","html-keyboard-response","531","805495","0.0-1.0-724.0","0","0","50653","","null","","","null","80","","NaN","","","","","","","","","","","","","",""
"","response","","html-keyboard-response","532","805781","0.0-1.0-725.0-0.0","0","0","50653","","282","","","68","80","","","2","80","training","adjacent","GF","7","6","P.jpg","M.jpg","0","0","1","",""
"","feedback","","html-keyboard-response","533","806787","0.0-1.0-726.0-0.0","0","0","50653","","null","","","null","80","","","","","","","","","","","","","","","",""
"","ITI","","html-keyboard-response","534","807794","0.0-1.0-729.0","0","0","50653","","null","","","null","80","","","","","","","","","","","","","","","NaN",""
"","S1","","html-keyboard-response","535","807949","0.0-1.0-731.0","0","0","50653","","null","","","null","81","","","","","","","","","","","","","","","",""
"","ISI","","html-keyboard-response","536","809953","0.0-1.0-732.0","0","0","50653","","null","","","null","81","NaN","","","","","","","","","","","","","","",""
"","S2","","html-keyboard-response","537","810109","0.0-1.0-733.0","0","0","50653","","null","","","null","81","","NaN","","","","","","","","","","","","","",""
"","response","","html-keyboard-response","538","810370","0.0-1.0-734.0-0.0","0","0","50653","","255","","","75","81","","","2","81","training","adjacent","BA","2","1","R.jpg","N.jpg","1","0","0","",""
"","feedback","","html-keyboard-response","539","811375","0.0-1.0-735.0-0.0","0","0","50653","","null","","","null","81","","","","","","","","","","","","","","","",""
"","time_out","","html-keyboard-response","540","813381","0.0-1.0-737.0-0.0","0","0","50653","","null","","","null","81","","","","","","","","","","","","","","","",""
"","ITI","","html-keyboard-response","541","814386","0.0-1.0-738.0","0","0","50653","","null","","","null","81","","","","","","","","","","","","","","","NaN",""
"","S1","","html-keyboard-response","542","814542","0.0-1.0-740.0","0","0","50653","","null","","","null","82","","","","","","","","","","","","","","","",""
"","ISI","","html-keyboard-response","543","816546","0.0-1.0-741.0","0","0","50653","","null","","","null","82","NaN","","","","","","","","","","","","","","",""
"","S2","","html-keyboard-response","544","816701","0.0-1.0-742.0","0","0","50653","","null","","","null","82","","NaN","","","","","","","","","","","","","",""
"","response","","html-keyboard-response","545","817497","0.0-1.0-743.0-0.0","0","0","50653","","792","","","75","82","","","2","82","training","adjacent","CD","3","4","Q.jpg","L.jpg","1","1","1","",""
"","feedback","","html-keyboard-response","546","818504","0.0-1.0-744.0-0.0","0","0","50653","","null","","","null","82","","","","","","","","","","","","","","","",""
"","ITI","","html-keyboard-response","547","819510","0.0-1.0-747.0","0","0","50653","","null","","","null","82","","","","","","","","","","","","","","","NaN",""
"","S1","","html-keyboard-response","548","819665","0.0-1.0-749.0","0","0","50653","","null","","","null","83","","","","","","","","","","","","","","","",""
"","ISI","","html-keyboard-response","549","821669","0.0-1.0-750.0","0","0","50653","","null","","","null","83","NaN","","","","","","","","","","","","","","",""
"","S2","","html-keyboard-response","550","821825","0.0-1.0-751.0","0","0","50653","","null","","","null","83","","NaN","","","","","","","","","","","","","",""
"","response","","html-keyboard-response","551","822646","0.0-1.0-752.0-0.0","0","0","50653","","818","","","75","83","","","2","83","training","adjacent","ED","5","4","O.jpg","L.jpg","1","0","0","",""
"","feedback","","html-keyboard-response","552","823652","0.0-1.0-753.0-0.0","0","0","50653","","null","","","null","83","","","","","","","","","","","","","","","",""
"","time_out","","html-keyboard-response","553","825658","0.0-1.0-755.0-0.0","0","0","50653","","null","","","null","83","","","","","","","","","","","","","","","",""
"","ITI","","html-keyboard-response","554","826663","0.0-1.0-756.0","0","0","50653","","null","","","null","83","","","","","","","","","","","","","","","NaN",""
"","S1","","html-keyboard-response","555","826818","0.0-1.0-758.0","0","0","50653","","null","","","null","84","","","","","","","","","","","","","","","",""
"","ISI","","html-keyboard-response","556","828823","0.0-1.0-759.0","0","0","50653","","null","","","null","84","NaN","","","","","","","","","","","","","","",""
"","S2","","html-keyboard-response","557","828978","0.0-1.0-760.0","0","0","50653","","null","","","null","84","","NaN","","","","","","","","","","","","","",""
"","response","","html-keyboard-response","558","829440","0.0-1.0-761.0-0.0","0","0","50653","","457","","","68","84","","","2","84","training","adjacent","CB","3","2","Q.jpg","R.jpg","0","0","1","",""
"","feedback","","html-keyboard-response","559","830446","0.0-1.0-762.0-0.0","0","0","50653","","null","","","null","84","","","","","","","","","","","","","","","",""
"","ITI","","html-keyboard-response","560","831452","0.0-1.0-765.0","0","0","50653","","null","","","null","84","","","","","","","","","","","","","","","NaN",""
"","S1","","html-keyboard-response","561","831607","0.0-1.0-767.0","0","0","50653","","null","","","null","85","","","","","","","","","","","","","","","",""
"","ISI","","html-keyboard-response","562","833612","0.0-1.0-768.0","0","0","50653","","null","","","null","85","NaN","","","","","","","","","","","","","","",""
"","S2","","html-keyboard-response","563","833767","0.0-1.0-769.0","0","0","50653","","null","","","null","85","","NaN","","","","","","","","","","","","","",""
"","response","","html-keyboard-response","564","835622","0.0-1.0-770.0-0.0","0","0","50653","","null","","","null","85","","","2","85","training","adjacent","DC","4","3","L.jpg","Q.jpg","NaN","0","0","",""
"","too_slow_prompt","","html-keyboard-response","565","836628","0.0-1.0-772.0-0.0","1","0","50653","","null","","","null","","","","","","","","","","","","","","","","",""
"","time_out","","html-keyboard-response","566","838633","0.0-1.0-773.0-0.0","0","0","50653","","null","","","null","85","","","","","","","","","","","","","","","",""
"","ITI","","html-keyboard-response","567","839638","0.0-1.0-774.0","0","0","50653","","null","","","null","85","","","","","","","","","","","","","","","NaN",""
"","S1","","html-keyboard-response","568","839793","0.0-1.0-776.0","0","0","50653","","null","","","null","86","","","","","","","","","","","","","","","",""
"","ISI","","html-keyboard-response","569","841798","0.0-1.0-777.0","0","0","50653","","null","","","null","86","NaN","","","","","","","","","","","","","","",""
"","S2","","html-keyboard-response","570","841953","0.0-1.0-778.0","0","0","50653","","null","","","null","86","","NaN","","","","","","","","","","","","","",""
"","response","","html-keyboard-response","571","842678","0.0-1.0-779.0-0.0","0","0","50653","","721","","","75","86","","","2","86","training","adjacent","BC","2","3","R.jpg","Q.jpg","1","1","1","",""
"","feedback","","html-keyboard-response","572","843684","0.0-1.0-780.0-0.0","0","0","50653","","null","","","null","86","","","","","","","","","","","","","","","",""
"","ITI","","html-keyboard-response","573","844691","0.0-1.0-783.0","0","0","50653","","null","","","null","86","","","","","","","","","","","","","","","NaN",""
"","S1","","html-keyboard-response","574","844846","0.0-1.0-785.0","0","0","50653","","null","","","null","87","","","","","","","","","","","","","","","",""
"","ISI","","html-keyboard-response","575","846850","0.0-1.0-786.0","0","0","50653","","null","","","null","87","NaN","","","","","","","","","","","","","","",""
"","S2","","html-keyboard-response","576","847006","0.0-1.0-787.0","0","0","50653","","null","","","null","87","","NaN","","","","","","","","","","","","","",""
"","response","","html-keyboard-response","577","847763","0.0-1.0-788.0-0.0","0","0","50653","","752","","","75","87","","","2","87","training","adjacent","CD","3","4","Q.jpg","L.jpg","1","1","1","",""
"","feedback","","html-keyboard-response","578","848769","0.0-1.0-789.0-0.0","0","0","50653","","null","","","null","87","","","","","","","","","","","","","","","",""
"","ITI","","html-keyboard-response","579","849775","0.0-1.0-792.0","0","0","50653","","null","","","null","87","","","","","","","","","","","","","","","NaN",""
