"success","ttype","start_time","trial_type","trial_index","time_elapsed","internal_node_id","warning","missed_checkup","PID","view_history","rt","responses","repeat_instructions","key_press","index","keypress_isi","keypress_S2","block","trial_num","phase","group_type","pair_type","S1_stim","S2_stim","S1_img","S2_img","S1_chosen","S1_higher","accuracy","keypress_iti","total_bonus_tally"
"true","full_screen","d08012022hr1521","fullscreen","0","11381","0.0-0.0","0","0","64041","","","","","","","","","","","","","","","","","","","","","",""
"","instructions","","instructions","1","61419","0.0-1.0-0.0-0.0","0","0","64041","[{""page_index"":0,""viewing_time"":6604},{""page_index"":1,""viewing_time"":34999},{""page_index"":2,""viewing_time"":7064},{""page_index"":3,""viewing_time"":1368}]","50036","","","","","","","","","","","","","","","","","","","",""
"","comprehension_check","","survey-multi-choice","2","72843","0.0-1.0-0.0-1.0","0","0","64041","","11420","{""Q0"":""True"",""Q1"":""D"",""Q2"":""When you see the prompt 'MAKE A CHOICE' after the second image was presented"",""Q3"":""Green mark"",""Q4"":""either D or K""}","1","","","","","","","","","","","","","","","","","",""
"","missed_instruction_checkup","","html-keyboard-response","3","74487","0.0-1.0-0.0-2.0-0.0","0","1","64041","","1640","","","32","","","","","","","","","","","","","","","","",""
"","instructions","","instructions","4","86019","0.0-1.0-0.1-0.1","0","0","64041","[{""page_index"":0,""viewing_time"":1425},{""page_index"":1,""viewing_time"":8615},{""page_index"":2,""viewing_time"":848},{""page_index"":3,""viewing_time"":640}]","11529","","","","","","","","","","","","","","","","","","","",""
"","comprehension_check","","survey-multi-choice","5","110595","0.0-1.0-0.1-1.1","0","0","64041","","24570","{""Q0"":""True"",""Q1"":""K"",""Q2"":""When you see the prompt 'MAKE A CHOICE' after the second image was presented"",""Q3"":""Green mark"",""Q4"":""either D or K""}","0","","","","","","","","","","","","","","","","","",""
"","start_exp","","html-keyboard-response","6","112946","0.0-1.0-1.0","0","0","64041","","2348","","","32","","","","","","","","","","","","","","","","",""
"","S1","","html-keyboard-response","7","113200","0.0-1.0-2.0","0","0","64041","","null","","","null","0","","","","","","","","","","","","","","","",""
"","ISI","","html-keyboard-response","8","115203","0.0-1.0-3.0","0","0","64041","","null","","","null","0","NaN","","","","","","","","","","","","","","",""
"","S2","","html-keyboard-response","9","115457","0.0-1.0-4.0","0","0","64041","","null","","","null","0","","NaN","","","","","","","","","","","","","",""
"","response","","html-keyboard-response","10","116278","0.0-1.0-5.0","0","0","64041","","818","","","75","0","","","1","0","training","adjacent","FG","6","7","L.jpg","O.jpg","1","1","1","",""
"","feedback","","html-keyboard-response","11","117281","0.0-1.0-6.0-0.0","0","0","64041","","null","","","null","0","","","","","","","","","","","","","","","",""
"","ITI","","html-keyboard-response","12","118285","0.0-1.0-9.0","0","0","64041","","null","","","null","0","","","","","","","","","","","","","","","NaN",""
"","S1","","html-keyboard-response","13","118538","0.0-1.0-11.0","0","0","64041","","null","","","null","1","","","","","","","","","","","","","","","",""
"","ISI","","html-keyboard-response","14","120540","0.0-1.0-12.0","0","0","64041","","null","","","null","1","NaN","","","","","","","","","","","","","","",""
"","S2","","html-keyboard-response","15","120792","0.0-1.0-13.0","0","0","64041","","null","","","null","1","","NaN","","","","","","","","","","","","","",""
"","response","","html-keyboard-response","16","121673","0.0-1.0-14.0","0","0","64041","","878","","","68","1","","","1","1","training","adjacent","ED","5","4","P.jpg","Q.jpg","0","0","1","",""
"","feedback","","html-keyboard-response","17","122676","0.0-1.0-15.0-0.0","0","0","64041","","null","","","null","1","","","","","","","","","","","","","","","",""
"","ITI","","html-keyboard-response","18","123679","0.0-1.0-18.0","0","0","64041","","null","","","null","1","","","","","","","","","","","","","","","NaN",""
"","S1","","html-keyboard-response","19","123933","0.0-1.0-20.0","0","0","64041","","null","","","null","2","","","","","","","","","","","","","","","",""
"","ISI","","html-keyboard-response","20","125936","0.0-1.0-21.0","0","0","64041","","null","","","null","2","NaN","","","","","","","","","","","","","","",""
"","S2","","html-keyboard-response","21","126190","0.0-1.0-22.0","0","0","64041","","null","","","null","2","","NaN","","","","","","","","","","","","","",""
"","response","","html-keyboard-response","22","127245","0.0-1.0-23.0","0","0","64041","","1052","","","68","2","","","1","2","training","adjacent","ED","5","4","P.jpg","Q.jpg","0","0","1","",""
"","feedback","","html-keyboard-response","23","128249","0.0-1.0-24.0-0.0","0","0","64041","","null","","","null","2","","","","","","","","","","","","","","","",""
"","ITI","","html-keyboard-response","24","129252","0.0-1.0-27.0","0","0","64041","","null","","","null","2","","","","","","","","","","","","","","","NaN",""
"","S1","","html-keyboard-response","25","129505","0.0-1.0-29.0","0","0","64041","","null","","","null","3","","","","","","","","","","","","","","","",""
"","ISI","","html-keyboard-response","26","131508","0.0-1.0-30.0","0","0","64041","","null","","","null","3","NaN","","","","","","","","","","","","","","",""
"","S2","","html-keyboard-response","27","131763","0.0-1.0-31.0","0","0","64041","","null","","","null","3","","NaN","","","","","","","","","","","","","",""
"","response","","html-keyboard-response","28","132529","0.0-1.0-32.0","0","0","64041","","763","","","68","3","","","1","3","training","adjacent","CD","3","4","N.jpg","Q.jpg","0","1","0","",""
"","feedback","","html-keyboard-response","29","133532","0.0-1.0-33.0-0.0","0","0","64041","","null","","","null","3","","","","","","","","","","","","","","","",""
"","time_out","","html-keyboard-response","30","135535","0.0-1.0-35.0-0.0","0","0","64041","","null","","","null","3","","","","","","","","","","","","","","","",""
"","ITI","","html-keyboard-response","31","136540","0.0-1.0-36.0","0","0","64041","","null","","","null","3","","","","","","","","","","","","","","","NaN",""
"","S1","","html-keyboard-response","32","136796","0.0-1.0-38.0","0","0","64041","","null","","","null","4","","","","","","","","","","","","","","","",""
"","ISI","","html-keyboard-response","33","138799","0.0-1.0-39.0","0","0","64041","","null","","","null","4","NaN","","","","","","","","","","","","","","",""
"","S2","","html-keyboard-response","34","139052","0.0-1.0-40.0","0","0","64041","","null","","","null","4","","NaN","","","","","","","","","","","","","",""
"","response","","html-keyboard-response","35","139835","0.0-1.0-41.0","0","0","64041","","780","","","75","4","","","1","4","training","adjacent","BA","2","1","M.jpg","R.jpg","1","0","0","",""
"","feedback","","html-keyboard-response","36","140838","0.0-1.0-42.0-0.0","0","0","64041","","null","","","null","4","","","","","","","","","","","","","","","",""
"","time_out","","html-keyboard-response","37","142842","0.0-1.0-44.0-0.0","0","0","64041","","null","","","null","4","","","","","","","","","","","","","","","",""
"","ITI","","html-keyboard-response","38","143846","0.0-1.0-45.0","0","0","64041","","null","","","null","4","","","","","","","","","","","","","","","NaN",""
"","S1","","html-keyboard-response","39","144101","0.0-1.0-47.0","0","0","64041","","null","","","null","5","","","","","","","","","","","","","","","",""
"","ISI","","html-keyboard-response","40","146104","0.0-1.0-48.0","0","0","64041","","null","","","null","5","NaN","","","","","","","","","","","","","","",""
"","S2","","html-keyboard-response","41","146358","0.0-1.0-49.0","0","0","64041","","null","","","null","5","","NaN","","","","","","","","","","","","","",""
"","response","","html-keyboard-response","42","147743","0.0-1.0-50.0","0","0","64041","","1383","","","68","5","","","1","5","training","adjacent","FE","6","5","L.jpg","P.jpg","0","0","1","",""
"","feedback","","html-keyboard-response","43","148747","0.0-1.0-51.0-0.0","0","0","64041","","null","","","null","5","","","","","","","","","","","","","","","",""
"","ITI","","html-keyboard-response","44","149750","0.0-1.0-54.0","0","0","64041","","null","","","null","5","","","","","","","","","","","","","","","NaN",""
"","S1","","html-keyboard-response","45","150003","0.0-1.0-56.0","0","0","64041","","null","","","null","6","","","","","","","","","","","","","","","",""
"","ISI","","html-keyboard-response","46","152006","0.0-1.0-57.0","0","0","64041","","null","","","null","6","NaN","","","","","","","","","","","","","","",""
"","S2","","html-keyboard-response","47","152259","0.0-1.0-58.0","0","0","64041","","null","","","null","6","","NaN","","","","","","","","","","","","","",""
"","response","","html-keyboard-response","48","153557","0.0-1.0-59.0","0","0","64041","","1295","","","68","6","","","1","6","training","adjacent","CB","3","2","N.jpg","M.jpg","0","0","1","",""
"","feedback","","html-keyboard-response","49","154562","0.0-1.0-60.0-0.0","0","0","64041","","null","","","null","6","","","","","","","","","","","","","","","",""
"","ITI","","html-keyboard-response","50","155566","0.0-1.0-63.0","0","0","64041","","null","","","null","6","","","","","","","","","","","","","","","NaN",""
"","S1","","html-keyboard-response","51","155820","0.0-1.0-65.0","0","0","64041","","null","","","null","7","","","","","","","","","","","","","","","",""
"","ISI","","html-keyboard-response","52","157824","0.0-1.0-66.0","0","0","64041","","null","","","null","7","NaN","","","","","","","","","","","","","","",""
"","S2","","html-keyboard-response","53","158078","0.0-1.0-67.0","0","0","64041","","null","","","null","7","","NaN","","","","","","","","","","","","","",""
"","response","","html-keyboard-response","54","158723","0.0-1.0-68.0","0","0","64041","","644","","","68","7","","","1","7","training","adjacent","DE","4","5","Q.jpg","P.jpg","0","1","0","",""
"","feedback","","html-keyboard-response","55","159726","0.0-1.0-69.0-0.0","0","0","64041","","null","","","null","7","","","","","","","","","","","","","","","",""
"","time_out","","html-keyboard-response","56","161730","0.0-1.0-71.0-0.0","0","0","64041","","null","","","null","7","","","","","","","","","","","","","","","",""
"","ITI","","html-keyboard-response","57","162733","0.0-1.0-72.0","0","0","64041","","null","","","null","7","","","","","","","","","","","","","","","NaN",""
"","S1","","html-keyboard-response","58","162985","0.0-1.0-74.0","0","0","64041","","null","","","null","8","","","","","","","","","","","","","","","",""
"","ISI","","html-keyboard-response","59","164991","0.0-1.0-75.0","0","0","64041","","null","","","null","8","NaN","","","","","","","","","","","","","","",""
"","S2","","html-keyboard-response","60","165244","0.0-1.0-76.0","0","0","64041","","null","","","null","8","","NaN","","","","","","","","","","","","","",""
"","response","","html-keyboard-response","61","166170","0.0-1.0-77.0","0","0","64041","","925","","","68","8","","","1","8","training","adjacent","DC","4","3","Q.jpg","N.jpg","0","0","1","",""
"","feedback","","html-keyboard-response","62","167174","0.0-1.0-78.0-0.0","0","0","64041","","null","","","null","8","","","","","","","","","","","","","","","",""
"","ITI","","html-keyboard-response","63","168177","0.0-1.0-81.0","0","0","64041","","null","","","null","8","","","","","","","","","","","","","","","NaN",""
"","S1","","html-keyboard-response","64","168430","0.0-1.0-83.0","0","0","64041","","null","","","null","9","","","","","","","","","","","","","","","",""
"","ISI","","html-keyboard-response","65","170432","0.0-1.0-84.0","0","0","64041","","null","","","null","9","NaN","","","","","","","","","","","","","","",""
"","S2","","html-keyboard-response","66","170684","0.0-1.0-85.0","0","0","64041","","null","","","null","9","","NaN","","","","","","","","","","","","","",""
"","response","","html-keyboard-response","67","171832","0.0-1.0-86.0","0","0","64041","","1146","","","75","9","","","1","9","training","adjacent","GF","7","6","O.jpg","L.jpg","1","0","0","",""
"","feedback","","html-keyboard-response","68","172835","0.0-1.0-87.0-0.0","0","0","64041","","null","","","null","9","","","","","","","","","","","","","","","",""
"","time_out","","html-keyboard-response","69","174839","0.0-1.0-89.0-0.0","0","0","64041","","null","","","null","9","","","","","","","","","","","","","","","",""
"","ITI","","html-keyboard-response","70","175842","0.0-1.0-90.0","0","0","64041","","null","","","null","9","","","","","","","","","","","","","","","NaN",""
"","S1","","html-keyboard-response","71","176094","0.0-1.0-92.0","0","0","64041","","null","","","null","10","","","","","","","","","","","","","","","",""
"","ISI","","html-keyboard-response","72","178096","0.0-1.0-93.0","0","0","64041","","null","","","null","10","NaN","","","","","","","","","","","","","","",""
"","S2","","html-keyboard-response","73","178361","0.0-1.0-94.0","0","0","64041","","null","","","null","10","","NaN","","","","","","","","","","","","","",""
"","response","","html-keyboard-response","74","179185","0.0-1.0-95.0","0","0","64041","","822","","","68","10","","","1","10","training","adjacent","BC","2","3","M.jpg","N.jpg","0","1","0","",""
"","feedback","","html-keyboard-response","75","180189","0.0-1.0-96.0-0.0","0","0","64041","","null","","","null","10","","","","","","","","","","","","","","","",""
"","time_out","","html-keyboard-response","76","182192","0.0-1.0-98.0-0.0","0","0","64041","","null","","","null","10","","","","","","","","","","","","","","","",""
"","ITI","","html-keyboard-response","77","183195","0.0-1.0-99.0","0","0","64041","","null","","","null","10","","","","","","","","","","","","","","","NaN",""
"","S1","","html-keyboard-response","78","183448","0.0-1.0-101.0","0","0","64041","","null","","","null","11","","","","","","","","","","","","","","","",""
"","ISI","","html-keyboard-response","79","185451","0.0-1.0-102.0","0","0","64041","","null","","","null","11","NaN","","","","","","","","","","","","","","",""
"","S2","","html-keyboard-response","80","185704","0.0-1.0-103.0","0","0","64041","","null","","","null","11","","NaN","","","","","","","","","","","","","",""
"","response","","html-keyboard-response","81","186757","0.0-1.0-104.0","0","0","64041","","1051","","","68","11","","","1","11","training","adjacent","GF","7","6","O.jpg","L.jpg","0","0","1","",""
"","feedback","","html-keyboard-response","82","187761","0.0-1.0-105.0-0.0","0","0","64041","","null","","","null","11","","","","","","","","","","","","","","","",""
"","ITI","","html-keyboard-response","83","188763","0.0-1.0-108.0","0","0","64041","","null","","","null","11","","","","","","","","","","","","","","","NaN",""
"","S1","","html-keyboard-response","84","189016","0.0-1.0-110.0","0","0","64041","","null","","","null","12","","","","","","","","","","","","","","","",""
"","ISI","","html-keyboard-response","85","191020","0.0-1.0-111.0","0","0","64041","","null","","","null","12","NaN","","","","","","","","","","","","","","",""
"","S2","","html-keyboard-response","86","191274","0.0-1.0-112.0","0","0","64041","","null","","","null","12","","NaN","","","","","","","","","","","","","",""
"","response","","html-keyboard-response","87","192166","0.0-1.0-113.0","0","0","64041","","890","","","75","12","","","1","12","training","adjacent","FE","6","5","L.jpg","P.jpg","1","0","0","",""
"","feedback","","html-keyboard-response","88","193170","0.0-1.0-114.0-0.0","0","0","64041","","null","","","null","12","","","","","","","","","","","","","","","",""
"","time_out","","html-keyboard-response","89","195173","0.0-1.0-116.0-0.0","0","0","64041","","null","","","null","12","","","","","","","","","","","","","","","",""
"","ITI","","html-keyboard-response","90","196177","0.0-1.0-117.0","0","0","64041","","null","","","null","12","","","","","","","","","","","","","","","NaN",""
"","S1","","html-keyboard-response","91","196432","0.0-1.0-119.0","0","0","64041","","null","","","null","13","","","","","","","","","","","","","","","",""
"","ISI","","html-keyboard-response","92","198435","0.0-1.0-120.0","0","0","64041","","null","","","null","13","NaN","","","","","","","","","","","","","","",""
"","S2","","html-keyboard-response","93","198688","0.0-1.0-121.0","0","0","64041","","null","","","null","13","","NaN","","","","","","","","","","","","","",""
"","response","","html-keyboard-response","94","199822","0.0-1.0-122.0","0","0","64041","","1131","","","68","13","","","1","13","training","adjacent","CB","3","2","N.jpg","M.jpg","0","0","1","",""
"","feedback","","html-keyboard-response","95","200825","0.0-1.0-123.0-0.0","0","0","64041","","null","","","null","13","","","","","","","","","","","","","","","",""
"","ITI","","html-keyboard-response","96","201829","0.0-1.0-126.0","0","0","64041","","null","","","null","13","","","","","","","","","","","","","","","NaN",""
"","S1","","html-keyboard-response","97","202083","0.0-1.0-128.0","0","0","64041","","null","","","null","14","","","","","","","","","","","","","","","",""
"","ISI","","html-keyboard-response","98","204086","0.0-1.0-129.0","0","0","64041","","null","","","null","14","NaN","","","","","","","","","","","","","","",""
"","S2","","html-keyboard-response","99","204339","0.0-1.0-130.0","0","0","64041","","null","","","null","14","","NaN","","","","","","","","","","","","","",""
"","response","","html-keyboard-response","100","205465","0.0-1.0-131.0","0","0","64041","","1124","","","68","14","","","1","14","training","adjacent","FG","6","7","L.jpg","O.jpg","0","1","0","",""
"","feedback","","html-keyboard-response","101","206467","0.0-1.0-132.0-0.0","0","0","64041","","null","","","null","14","","","","","","","","","","","","","","","",""
"","time_out","","html-keyboard-response","102","208470","0.0-1.0-134.0-0.0","0","0","64041","","null","","","null","14","","","","","","","","","","","","","","","",""
"","ITI","","html-keyboard-response","103","209472","0.0-1.0-135.0","0","0","64041","","null","","","null","14","","","","","","","","","","","","","","","NaN",""
"","S1","","html-keyboard-response","104","209724","0.0-1.0-137.0","0","0","64041","","null","","","null","15","","","","","","","","","","","","","","","",""
"","ISI","","html-keyboard-response","105","211728","0.0-1.0-138.0","0","0","64041","","null","","","null","15","NaN","","","","","","","","","","","","","","",""
"","S2","","html-keyboard-response","106","211988","0.0-1.0-139.0","0","0","64041","","null","","","null","15","","NaN","","","","","","","","","","","","","",""
"","response","","html-keyboard-response","107","213071","0.0-1.0-140.0","0","0","64041","","1081","","","68","15","","","1","15","training","adjacent","AB","1","2","R.jpg","M.jpg","0","1","0","",""
"","feedback","","html-keyboard-response","108","214074","0.0-1.0-141.0-0.0","0","0","64041","","null","","","null","15","","","","","","","","","","","","","","","",""
"","time_out","","html-keyboard-response","109","216076","0.0-1.0-143.0-0.0","0","0","64041","","null","","","null","15","","","","","","","","","","","","","","","",""
"","ITI","","html-keyboard-response","110","217080","0.0-1.0-144.0","0","0","64041","","null","","","null","15","","","","","","","","","","","","","","","NaN",""
"","S1","","html-keyboard-response","111","217335","0.0-1.0-146.0","0","0","64041","","null","","","null","16","","","","","","","","","","","","","","","",""
"","ISI","","html-keyboard-response","112","219338","0.0-1.0-147.0","0","0","64041","","null","","","null","16","NaN","","","","","","","","","","","","","","",""
"","S2","","html-keyboard-response","113","219592","0.0-1.0-148.0","0","0","64041","","null","","","null","16","","NaN","","","","","","","","","","","","","",""
"","response","","html-keyboard-response","114","220409","0.0-1.0-149.0","0","0","64041","","815","","","75","16","","","1","16","training","adjacent","CB","3","2","N.jpg","M.jpg","1","0","0","",""
"","feedback","","html-keyboard-response","115","221414","0.0-1.0-150.0-0.0","0","0","64041","","null","","","null","16","","","","","","","","","","","","","","","",""
"","time_out","","html-keyboard-response","116","223417","0.0-1.0-152.0-0.0","0","0","64041","","null","","","null","16","","","","","","","","","","","","","","","",""
"","ITI","","html-keyboard-response","117","224420","0.0-1.0-153.0","0","0","64041","","null","","","null","16","","","","","","","","","","","","","","","NaN",""
"","S1","","html-keyboard-response","118","224674","0.0-1.0-155.0","0","0","64041","","null","","","null","17","","","","","","","","","","","","","","","",""
"","ISI","","html-keyboard-response","119","226676","0.0-1.0-156.0","0","0","64041","","null","","","null","17","NaN","","","","","","","","","","","","","","",""
"","S2","","html-keyboard-response","120","226931","0.0-1.0-157.0","0","0","64041","","null","","","null","17","","NaN","","","","","","","","","","","","","",""
"","response","","html-keyboard-response","121","228559","0.0-1.0-158.0","0","0","64041","","1625","","","75","17","","","1","17","training","adjacent","AB","1","2","R.jpg","M.jpg","1","1","1","",""
"","feedback","","html-keyboard-response","122","229562","0.0-1.0-159.0-0.0","0","0","64041","","null","","","null","17","","","","","","","","","","","","","","","",""
"","ITI","","html-keyboard-response","123","230576","0.0-1.0-162.0","0","0","64041","","null","","","null","17","","","","","","","","","","","","","","","NaN",""
"","S1","","html-keyboard-response","124","230829","0.0-1.0-164.0","0","0","64041","","null","","","null","18","","","","","","","","","","","","","","","",""
"","ISI","","html-keyboard-response","125","232832","0.0-1.0-165.0","0","0","64041","","null","","","null","18","NaN","","","","","","","","","","","","","","",""
"","S2","","html-keyboard-response","126","233095","0.0-1.0-166.0","0","0","64041","","null","","","null","18","","NaN","","","","","","","","","","","","","",""
"","response","","html-keyboard-response","127","235098","0.0-1.0-167.0","0","0","64041","","null","","","null","18","","","1","18","training","adjacent","FG","6","7","L.jpg","O.jpg","NaN","1","0","",""
"","too_slow_prompt","","html-keyboard-response","128","236101","0.0-1.0-169.0-0.0","1","0","64041","","null","","","null","","","","","","","","","","","","","","","","",""
"","time_out","","html-keyboard-response","129","238103","0.0-1.0-170.0-0.0","0","0","64041","","null","","","null","18","","","","","","","","","","","","","","","",""
"","ITI","","html-keyboard-response","130","239105","0.0-1.0-171.0","0","0","64041","","null","","","null","18","","","","","","","","","","","","","","","NaN",""
"","S1","","html-keyboard-response","131","239366","0.0-1.0-173.0","0","0","64041","","null","","","null","19","","","","","","","","","","","","","","","",""
"","ISI","","html-keyboard-response","132","241368","0.0-1.0-174.0","0","0","64041","","null","","","null","19","NaN","","","","","","","","","","","","","","",""
"","S2","","html-keyboard-response","133","241621","0.0-1.0-175.0","0","0","64041","","null","","","null","19","","NaN","","","","","","","","","","","","","",""
"","response","","html-keyboard-response","134","242816","0.0-1.0-176.0","0","0","64041","","1192","","","68","19","","","1","19","training","adjacent","EF","5","6","P.jpg","L.jpg","0","1","0","",""
"","feedback","","html-keyboard-response","135","243818","0.0-1.0-177.0-0.0","0","0","64041","","null","","","null","19","","","","","","","","","","","","","","","",""
"","time_out","","html-keyboard-response","136","245821","0.0-1.0-179.0-0.0","0","0","64041","","null","","","null","19","","","","","","","","","","","","","","","",""
"","ITI","","html-keyboard-response","137","246823","0.0-1.0-180.0","0","0","64041","","null","","","null","19","","","","","","","","","","","","","","","NaN",""
"","S1","","html-keyboard-response","138","247077","0.0-1.0-182.0","0","0","64041","","null","","","null","20","","","","","","","","","","","","","","","",""
"","ISI","","html-keyboard-response","139","249081","0.0-1.0-183.0","0","0","64041","","null","","","null","20","NaN","","","","","","","","","","","","","","",""
"","S2","","html-keyboard-response","140","249334","0.0-1.0-184.0","0","0","64041","","null","","","null","20","","NaN","","","","","","","","","","","","","",""
"","response","","html-keyboard-response","141","250029","0.0-1.0-185.0","0","0","64041","","693","","","75","20","","","1","20","training","adjacent","ED","5","4","P.jpg","Q.jpg","1","0","0","",""
"","feedback","","html-keyboard-response","142","251033","0.0-1.0-186.0-0.0","0","0","64041","","null","","","null","20","","","","","","","","","","","","","","","",""
"","time_out","","html-keyboard-response","143","253035","0.0-1.0-188.0-0.0","0","0","64041","","null","","","null","20","","","","","","","","","","","","","","","",""
"","ITI","","html-keyboard-response","144","254038","0.0-1.0-189.0","0","0","64041","","null","","","null","20","","","","","","","","","","","","","","","NaN",""
"","S1","","html-keyboard-response","145","254291","0.0-1.0-191.0","0","0","64041","","null","","","null","21","","","","","","","","","","","","","","","",""
"","ISI","","html-keyboard-response","146","256294","0.0-1.0-192.0","0","0","64041","","null","","","null","21","NaN","","","","","","","","","","","","","","",""
"","S2","","html-keyboard-response","147","256547","0.0-1.0-193.0","0","0","64041","","null","","","null","21","","NaN","","","","","","","","","","","","","",""
"","response","","html-keyboard-response","148","257166","0.0-1.0-194.0","0","0","64041","","617","","","68","21","","","1","21","training","adjacent","CD","3","4","N.jpg","Q.jpg","0","1","0","",""
"","feedback","","html-keyboard-response","149","258170","0.0-1.0-195.0-0.0","0","0","64041","","null","","","null","21","","","","","","","","","","","","","","","",""
"","time_out","","html-keyboard-response","150","260173","0.0-1.0-197.0-0.0","0","0","64041","","null","","","null","21","","","","","","","","","","","","","","","",""
"","ITI","","html-keyboard-response","151","261176","0.0-1.0-198.0","0","0","64041","","null","","","null","21","","","","","","","","","","","","","","","NaN",""
"","S1","","html-keyboard-response","152","261428","0.0-1.0-200.0","0","0","64041","","null","","","null","22","","","","","","","","","","","","","","","",""
"","ISI","","html-keyboard-response","153","263430","0.0-1.0-201.0","0","0","64041","","null","","","null","22","NaN","","","","","","","","","","","","","","",""
"","S2","","html-keyboard-response","154","263684","0.0-1.0-202.0","0","0","64041","","null","","","null","22","","NaN","","","","","","","","","","","","","",""
"","response","","html-keyboard-response","155","264815","0.0-1.0-203.0","0","0","64041","","1128","","","75","22","","","1","22","training","adjacent","FE","6","5","L.jpg","P.jpg","1","0","0","",""
"","feedback","","html-keyboard-response","156","265818","0.0-1.0-204.0-0.0","0","0","64041","","null","","","null","22","","","","","","","","","","","","","","","",""
"","time_out","","html-keyboard-response","157","267821","0.0-1.0-206.0-0.0","0","0","64041","","null","","","null","22","","","","","","","","","","","","","","","",""
"","ITI","","html-keyboard-response","158","268824","0.0-1.0-207.0","0","0","64041","","null","","","null","22","","","","","","","","","","","","","","","NaN",""
"","S1","","html-keyboard-response","159","269077","0.0-1.0-209.0","0","0","64041","","null","","","null","23","","","","","","","","","","","","","","","",""
"","ISI","","html-keyboard-response","160","271080","0.0-1.0-210.0","0","0","64041","","null","","","null","23","NaN","","","","","","","","","","","","","","",""
"","S2","","html-keyboard-response","161","271337","0.0-1.0-211.0","0","0","64041","","null","","","null","23","","NaN","","","","","","","","","","","","","",""
"","response","","html-keyboard-response","162","272462","0.0-1.0-212.0","0","0","64041","","1123","","","68","23","","","1","23","training","adjacent","BC","2","3","M.jpg","N.jpg","0","1","0","",""
"","feedback","","html-keyboard-response","163","273467","0.0-1.0-213.0-0.0","0","0","64041","","null","","","null","23","","","","","","","","","","","","","","","",""
"","time_out","","html-keyboard-response","164","275471","0.0-1.0-215.0-0.0","0","0","64041","","null","","","null","23","","","","","","","","","","","","","","","",""
"","ITI","","html-keyboard-response","165","276475","0.0-1.0-216.0","0","0","64041","","null","","","null","23","","","","","","","","","","","","","","","NaN",""
"","S1","","html-keyboard-response","166","276728","0.0-1.0-218.0","0","0","64041","","null","","","null","24","","","","","","","","","","","","","","","",""
"","ISI","","html-keyboard-response","167","278730","0.0-1.0-219.0","0","0","64041","","null","","","null","24","NaN","","","","","","","","","","","","","","",""
"","S2","","html-keyboard-response","168","278983","0.0-1.0-220.0","0","0","64041","","null","","","null","24","","NaN","","","","","","","","","","","","","",""
"","response","","html-keyboard-response","169","279600","0.0-1.0-221.0","0","0","64041","","615","","","68","24","","","1","24","training","adjacent","FE","6","5","L.jpg","P.jpg","0","0","1","",""
"","feedback","","html-keyboard-response","170","280603","0.0-1.0-222.0-0.0","0","0","64041","","null","","","null","24","","","","","","","","","","","","","","","",""
"","ITI","","html-keyboard-response","171","281606","0.0-1.0-225.0","0","0","64041","","null","","","null","24","","","","","","","","","","","","","","","NaN",""
"","S1","","html-keyboard-response","172","281859","0.0-1.0-227.0","0","0","64041","","null","","","null","25","","","","","","","","","","","","","","","",""
"","ISI","","html-keyboard-response","173","283862","0.0-1.0-228.0","0","0","64041","","null","","","null","25","NaN","","","","","","","","","","","","","","",""
"","S2","","html-keyboard-response","174","284115","0.0-1.0-229.0","0","0","64041","","null","","","null","25","","NaN","","","","","","","","","","","","","",""
"","response","","html-keyboard-response","175","285370","0.0-1.0-230.0","0","0","64041","","1252","","","75","25","","","1","25","training","adjacent","DC","4","3","Q.jpg","N.jpg","1","0","0","",""
"","feedback","","html-keyboard-response","176","286374","0.0-1.0-231.0-0.0","0","0","64041","","null","","","null","25","","","","","","","","","","","","","","","",""
"","time_out","","html-keyboard-response","177","288378","0.0-1.0-233.0-0.0","0","0","64041","","null","","","null","25","","","","","","","","","","","","","","","",""
"","ITI","","html-keyboard-response","178","289385","0.0-1.0-234.0","0","0","64041","","null","","","null","25","","","","","","","","","","","","","","","NaN",""
"","S1","","html-keyboard-response","179","289638","0.0-1.0-236.0","0","0","64041","","null","","","null","26","","","","","","","","","","","","","","","",""
"","ISI","","html-keyboard-response","180","291640","0.0-1.0-237.0","0","0","64041","","null","","","null","26","NaN","","","","","","","","","","","","","","",""
"","S2","","html-keyboard-response","181","291893","0.0-1.0-238.0","0","0","64041","","null","","","null","26","","NaN","","","","","","","","","","","","","",""
"","response","","html-keyboard-response","182","292621","0.0-1.0-239.0","0","0","64041","","726","","","68","26","","","1","26","training","adjacent","CB","3","2","N.jpg","M.jpg","0","0","1","",""
"","feedback","","html-keyboard-response","183","293625","0.0-1.0-240.0-0.0","0","0","64041","","null","","","null","26","","","","","","","","","","","","","","","",""
"","ITI","","html-keyboard-response","184","294630","0.0-1.0-243.0","0","0","64041","","null","","","null","26","","","","","","","","","","","","","","","NaN",""
"","S1","","html-keyboard-response","185","294884","0.0-1.0-245.0","0","0","64041","","null","","","null","27","","","","","","","","","","","","","","","",""
"","ISI","","html-keyboard-response","186","296887","0.0-1.0-246.0","0","0","64041","","null","","","null","27","NaN","","","","","","","","","","","","","","",""
"","S2","","html-keyboard-response","187","297141","0.0-1.0-247.0","0","0","64041","","null","","","null","27","","NaN","","","","","","","","","","","","","",""
"","response","","html-keyboard-response","188","298001","0.0-1.0-248.0","0","0","64041","","857","","","68","27","","","1","27","training","adjacent","BA","2","1","M.jpg","R.jpg","0","0","1","",""
"","feedback","","html-keyboard-response","189","299004","0.0-1.0-249.0-0.0","0","0","64041","","null","","","null","27","","","","","","","","","","","","","","","",""
"","ITI","","html-keyboard-response","190","300006","0.0-1.0-252.0","0","0","64041","","null","","","null","27","","","","","","","","","","","","","","","NaN",""
"","S1","","html-keyboard-response","191","300260","0.0-1.0-254.0","0","0","64041","","null","","","null","28","","","","","","","","","","","","","","","",""
"","ISI","","html-keyboard-response","192","302264","0.0-1.0-255.0","0","0","64041","","null","","","null","28","NaN","","","","","","","","","","","","","","",""
"","S2","","html-keyboard-response","193","302517","0.0-1.0-256.0","0","0","64041","","null","","","null","28","","NaN","","","","","","","","","","","","","",""
"","response","","html-keyboard-response","194","303099","0.0-1.0-257.0","0","0","64041","","579","","","68","28","","","1","28","training","adjacent","ED","5","4","P.jpg","Q.jpg","0","0","1","",""
"","feedback","","html-keyboard-response","195","304103","0.0-1.0-258.0-0.0","0","0","64041","","null","","","null","28","","","","","","","","","","","","","","","",""
"","ITI","","html-keyboard-response","196","305107","0.0-1.0-261.0","0","0","64041","","null","","","null","28","","","","","","","","","","","","","","","NaN",""
"","S1","","html-keyboard-response","197","305362","0.0-1.0-263.0","0","0","64041","","null","","","null","29","","","","","","","","","","","","","","","",""
"","ISI","","html-keyboard-response","198","307365","0.0-1.0-264.0","0","0","64041","","null","","","null","29","NaN","","","","","","","","","","","","","","",""
"","S2","","html-keyboard-response","199","307618","0.0-1.0-265.0","0","0","64041","","null","","","null","29","","NaN","","","","","","","","","","","","","",""
"","response","","html-keyboard-response","200","308817","0.0-1.0-266.0","0","0","64041","","1197","","","68","29","","","1","29","training","adjacent","AB","1","2","R.jpg","M.jpg","0","1","0","",""
"","feedback","","html-keyboard-response","201","309820","0.0-1.0-267.0-0.0","0","0","64041","","null","","","null","29","","","","","","","","","","","","","","","",""
"","time_out","","html-keyboard-response","202","311824","0.0-1.0-269.0-0.0","0","0","64041","","null","","","null","29","","","","","","","","","","","","","","","",""
"","ITI","","html-keyboard-response","203","312828","0.0-1.0-270.0","0","0","64041","","null","","","null","29","","","","","","","","","","","","","","","NaN",""
"","S1","","html-keyboard-response","204","313082","0.0-1.0-272.0","0","0","64041","","null","","","null","30","","","","","","","","","","","","","","","",""
"","ISI","","html-keyboard-response","205","315084","0.0-1.0-273.0","0","0","64041","","null","","","null","30","NaN","","","","","","","","","","","","","","",""
"","S2","","html-keyboard-response","206","315338","0.0-1.0-274.0","0","0","64041","","null","","","null","30","","NaN","","","","","","","","","","","","","",""
"","response","","html-keyboard-response","207","316480","0.0-1.0-275.0","0","0","64041","","1140","","","68","30","","","1","30","training","adjacent","BC","2","3","M.jpg","N.jpg","0","1","0","",""
"","feedback","","html-keyboard-response","208","317484","0.0-1.0-276.0-0.0","0","0","64041","","null","","","null","30","","","","","","","","","","","","","","","",""
"","time_out","","html-keyboard-response","209","319487","0.0-1.0-278.0-0.0","0","0","64041","","null","","","null","30","","","","","","","","","","","","","","","",""
"","ITI","","html-keyboard-response","210","320504","0.0-1.0-279.0","0","0","64041","","null","","","null","30","","","","","","","","","","","","","","","NaN",""
"","S1","","html-keyboard-response","211","320757","0.0-1.0-281.0","0","0","64041","","null","","","null","31","","","","","","","","","","","","","","","",""
"","ISI","","html-keyboard-response","212","322761","0.0-1.0-282.0","0","0","64041","","null","","","null","31","NaN","","","","","","","","","","","","","","",""
"","S2","","html-keyboard-response","213","323015","0.0-1.0-283.0","0","0","64041","","null","","","null","31","","NaN","","","","","","","","","","","","","",""
"","response","","html-keyboard-response","214","325018","0.0-1.0-284.0","0","0","64041","","null","","","null","31","","","1","31","training","adjacent","EF","5","6","P.jpg","L.jpg","NaN","1","0","",""
"","too_slow_prompt","","html-keyboard-response","215","326022","0.0-1.0-286.0-0.0","1","0","64041","","null","","","null","","","","","","","","","","","","","","","","",""
"","time_out","","html-keyboard-response","216","328025","0.0-1.0-287.0-0.0","0","0","64041","","null","","","null","31","","","","","","","","","","","","","","","",""
"","ITI","","html-keyboard-response","217","329027","0.0-1.0-288.0","0","0","64041","","null","","","null","31","","","","","","","","","","","","","","","NaN",""
"","S1","","html-keyboard-response","218","329281","0.0-1.0-290.0","0","0","64041","","null","","","null","32","","","","","","","","","","","","","","","",""
"","ISI","","html-keyboard-response","219","331284","0.0-1.0-291.0","0","0","64041","","null","","","null","32","NaN","","","","","","","","","","","","","","",""
"","S2","","html-keyboard-response","220","331538","0.0-1.0-292.0","0","0","64041","","null","","","null","32","","NaN","","","","","","","","","","","","","",""
"","response","","html-keyboard-response","221","332136","0.0-1.0-293.0","0","0","64041","","595","","","75","32","","","1","32","training","adjacent","BA","2","1","M.jpg","R.jpg","1","0","0","",""
"","feedback","","html-keyboard-response","222","333142","0.0-1.0-294.0-0.0","0","0","64041","","null","","","null","32","","","","","","","","","","","","","","","",""
"","time_out","","html-keyboard-response","223","335145","0.0-1.0-296.0-0.0","0","0","64041","","null","","","null","32","","","","","","","","","","","","","","","",""
"","ITI","","html-keyboard-response","224","336147","0.0-1.0-297.0","0","0","64041","","null","","","null","32","","","","","","","","","","","","","","","NaN",""
"","S1","","html-keyboard-response","225","336400","0.0-1.0-299.0","0","0","64041","","null","","","null","33","","","","","","","","","","","","","","","",""
"","ISI","","html-keyboard-response","226","338402","0.0-1.0-300.0","0","0","64041","","null","","","null","33","NaN","","","","","","","","","","","","","","",""
"","S2","","html-keyboard-response","227","338654","0.0-1.0-301.0","0","0","64041","","null","","","null","33","","NaN","","","","","","","","","","","","","",""
"","response","","html-keyboard-response","228","338846","0.0-1.0-302.0","0","0","64041","","191","","","68","33","","","1","33","training","adjacent","GF","7","6","O.jpg","L.jpg","0","0","1","",""
"","feedback","","html-keyboard-response","229","339851","0.0-1.0-303.0-0.0","0","0","64041","","null","","","null","33","","","","","","","","","","","","","","","",""
"","ITI","","html-keyboard-response","230","340854","0.0-1.0-306.0","0","0","64041","","null","","","null","33","","","","","","","","","","","","","","","NaN",""
"","S1","","html-keyboard-response","231","341108","0.0-1.0-308.0","0","0","64041","","null","","","null","34","","","","","","","","","","","","","","","",""
"","ISI","","html-keyboard-response","232","343112","0.0-1.0-309.0","0","0","64041","","null","","","null","34","NaN","","","","","","","","","","","","","","",""
"","S2","","html-keyboard-response","233","343364","0.0-1.0-310.0","0","0","64041","","null","","","null","34","","NaN","","","","","","","","","","","","","",""
"","response","","html-keyboard-response","234","343696","0.0-1.0-311.0","0","0","64041","","329","","","75","34","","","1","34","training","adjacent","DE","4","5","Q.jpg","P.jpg","1","1","1","",""
"","feedback","","html-keyboard-response","235","344700","0.0-1.0-312.0-0.0","0","0","64041","","null","","","null","34","","","","","","","","","","","","","","","",""
"","ITI","","html-keyboard-response","236","345703","0.0-1.0-315.0","0","0","64041","","null","","","null","34","","","","","","","","","","","","","","","NaN",""
"","S1","","html-keyboard-response","237","345957","0.0-1.0-317.0","0","0","64041","","null","","","null","35","","","","","","","","","","","","","","","",""
"","ISI","","html-keyboard-response","238","347960","0.0-1.0-318.0","0","0","64041","","null","","","null","35","NaN","","","","","","","","","","","","","","",""
"","S2","","html-keyboard-response","239","348213","0.0-1.0-319.0","0","0","64041","","null","","","null","35","","NaN","","","","","","","","","","","","","",""
"","response","","html-keyboard-response","240","349476","0.0-1.0-320.0","0","0","64041","","1261","","","75","35","","","1","35","training","adjacent","EF","5","6","P.jpg","L.jpg","1","1","1","",""
"","feedback","","html-keyboard-response","241","350481","0.0-1.0-321.0-0.0","0","0","64041","","null","","","null","35","","","","","","","","","","","","","","","",""
"","ITI","","html-keyboard-response","242","351484","0.0-1.0-324.0","0","0","64041","","null","","","null","35","","","","","","","","","","","","","","","NaN",""
"","S1","","html-keyboard-response","243","351736","0.0-1.0-326.0","0","0","64041","","null","","","null","36","","","","","","","","","","","","","","","",""
"","ISI","","html-keyboard-response","244","353740","0.0-1.0-327.0","0","0","64041","","null","","","null","36","NaN","","","","","","","","","","","","","","",""
"","S2","","html-keyboard-response","245","353994","0.0-1.0-328.0","0","0","64041","","null","","","null","36","","NaN","","","","","","","","","","","","","",""
"","response","","html-keyboard-response","246","354904","0.0-1.0-329.0","0","0","64041","","908","","","68","36","","","1","36","training","adjacent","DE","4","5","Q.jpg","P.jpg","0","1","0","",""
"","feedback","","html-keyboard-response","247","355907","0.0-1.0-330.0-0.0","0","0","64041","","null","","","null","36","","","","","","","","","","","","","","","",""
"","time_out","","html-keyboard-response","248","357910","0.0-1.0-332.0-0.0","0","0","64041","","null","","","null","36","","","","","","","","","","","","","","","",""
"","ITI","","html-keyboard-response","249","358915","0.0-1.0-333.0","0","0","64041","","null","","","null","36","","","","","","","","","","","","","","","NaN",""
"","S1","","html-keyboard-response","250","359170","0.0-1.0-335.0","0","0","64041","","null","","","null","37","","","","","","","","","","","","","","","",""
"","ISI","","html-keyboard-response","251","361173","0.0-1.0-336.0","0","0","64041","","null","","","null","37","NaN","","","","","","","","","","","","","","",""
"","S2","","html-keyboard-response","252","361426","0.0-1.0-337.0","0","0","64041","","null","","","null","37","","NaN","","","","","","","","","","","","","",""
"","response","","html-keyboard-response","253","362630","0.0-1.0-338.0","0","0","64041","","1201","","","75","37","","","1","37","training","adjacent","EF","5","6","P.jpg","L.jpg","1","1","1","",""
"","feedback","","html-keyboard-response","254","363635","0.0-1.0-339.0-0.0","0","0","64041","","null","","","null","37","","","","","","","","","","","","","","","",""
"","ITI","","html-keyboard-response","255","364638","0.0-1.0-342.0","0","0","64041","","null","","","null","37","","","","","","","","","","","","","","","NaN",""
"","S1","","html-keyboard-response","256","364892","0.0-1.0-344.0","0","0","64041","","null","","","null","38","","","","","","","","","","","","","","","",""
"","ISI","","html-keyboard-response","257","366895","0.0-1.0-345.0","0","0","64041","","null","","","null","38","NaN","","","","","","","","","","","","","","",""
"","S2","","html-keyboard-response","258","367151","0.0-1.0-346.0","0","0","64041","","null","","","null","38","","NaN","","","","","","","","","","","","","",""
"","response","","html-keyboard-response","259","368221","0.0-1.0-347.0","0","0","64041","","1068","","","75","38","","","1","38","training","adjacent","DC","4","3","Q.jpg","N.jpg","1","0","0","",""
"","feedback","","html-keyboard-response","260","369224","0.0-1.0-348.0-0.0","0","0","64041","","null","","","null","38","","","","","","","","","","","","","","","",""
"","time_out","","html-keyboard-response","261","371229","0.0-1.0-350.0-0.0","0","0","64041","","null","","","null","38","","","","","","","","","","","","","","","",""
"","ITI","","html-keyboard-response","262","372233","0.0-1.0-351.0","0","0","64041","","null","","","null","38","","","","","","","","","","","","","","","NaN",""
"","S1","","html-keyboard-response","263","372487","0.0-1.0-353.0","0","0","64041","","null","","","null","39","","","","","","","","","","","","","","","",""
"","ISI","","html-keyboard-response","264","374490","0.0-1.0-354.0","0","0","64041","","null","","","null","39","NaN","","","","","","","","","","","","","","",""
"","S2","","html-keyboard-response","265","374744","0.0-1.0-355.0","0","0","64041","","null","","","null","39","","NaN","","","","","","","","","","","","","",""
"","response","","html-keyboard-response","266","375316","0.0-1.0-356.0","0","0","64041","","570","","","68","39","","","1","39","training","adjacent","GF","7","6","O.jpg","L.jpg","0","0","1","",""
"","feedback","","html-keyboard-response","267","376320","0.0-1.0-357.0-0.0","0","0","64041","","null","","","null","39","","","","","","","","","","","","","","","",""
"","ITI","","html-keyboard-response","268","377324","0.0-1.0-360.0","0","0","64041","","null","","","null","39","","","","","","","","","","","","","","","NaN",""
"","S1","","html-keyboard-response","269","377578","0.0-1.0-362.0","0","0","64041","","null","","","null","40","","","","","","","","","","","","","","","",""
"","ISI","","html-keyboard-response","270","379580","0.0-1.0-363.0","0","0","64041","","null","","","null","40","NaN","","","","","","","","","","","","","","",""
"","S2","","html-keyboard-response","271","379835","0.0-1.0-364.0","0","0","64041","","null","","","null","40","","NaN","","","","","","","","","","","","","",""
"","response","","html-keyboard-response","272","380938","0.0-1.0-365.0","0","0","64041","","1100","","","75","40","","","1","40","training","adjacent","BA","2","1","M.jpg","R.jpg","1","0","0","",""
"","feedback","","html-keyboard-response","273","381941","0.0-1.0-366.0-0.0","0","0","64041","","null","","","null","40","","","","","","","","","","","","","","","",""
"","time_out","","html-keyboard-response","274","383944","0.0-1.0-368.0-0.0","0","0","64041","","null","","","null","40","","","","","","","","","","","","","","","",""
"","ITI","","html-keyboard-response","275","384947","0.0-1.0-369.0","0","0","64041","","null","","","null","40","","","","","","","","","","","","","","","NaN",""
"","S1","","html-keyboard-response","276","385200","0.0-1.0-371.0","0","0","64041","","null","","","null","41","","","","","","","","","","","","","","","",""
"","ISI","","html-keyboard-response","277","387203","0.0-1.0-372.0","0","0","64041","","null","","","null","41","NaN","","","","","","","","","","","","","","",""
"","S2","","html-keyboard-response","278","387455","0.0-1.0-373.0","0","0","64041","","null","","","null","41","","NaN","","","","","","","","","","","","","",""
"","response","","html-keyboard-response","279","388823","0.0-1.0-374.0","0","0","64041","","1366","","","68","41","","","1","41","training","adjacent","CD","3","4","N.jpg","Q.jpg","0","1","0","",""
"","feedback","","html-keyboard-response","280","389826","0.0-1.0-375.0-0.0","0","0","64041","","null","","","null","41","","","","","","","","","","","","","","","",""
"","time_out","","html-keyboard-response","281","391830","0.0-1.0-377.0-0.0","0","0","64041","","null","","","null","41","","","","","","","","","","","","","","","",""
"","ITI","","html-keyboard-response","282","392832","0.0-1.0-378.0","0","0","64041","","783","","","75","41","","","","","","","","","","","","","","","k",""
"","S1","","html-keyboard-response","283","393093","0.0-1.0-380.0","0","0","64041","","null","","","null","42","","","","","","","","","","","","","","","",""
"","ISI","","html-keyboard-response","284","395096","0.0-1.0-381.0","0","0","64041","","null","","","null","42","NaN","","","","","","","","","","","","","","",""
"","S2","","html-keyboard-response","285","395349","0.0-1.0-382.0","0","0","64041","","null","","","null","42","","NaN","","","","","","","","","","","","","",""
"","response","","html-keyboard-response","286","395904","0.0-1.0-383.0","0","0","64041","","553","","","75","42","","","1","42","training","adjacent","BC","2","3","M.jpg","N.jpg","1","1","1","",""
"","feedback","","html-keyboard-response","287","396908","0.0-1.0-384.0-0.0","0","0","64041","","null","","","null","42","","","","","","","","","","","","","","","",""
"","ITI","","html-keyboard-response","288","397911","0.0-1.0-387.0","0","0","64041","","null","","","null","42","","","","","","","","","","","","","","","NaN",""
"","S1","","html-keyboard-response","289","398166","0.0-1.0-389.0","0","0","64041","","null","","","null","43","","","","","","","","","","","","","","","",""
"","ISI","","html-keyboard-response","290","400168","0.0-1.0-390.0","0","0","64041","","null","","","null","43","NaN","","","","","","","","","","","","","","",""
"","S2","","html-keyboard-response","291","400421","0.0-1.0-391.0","0","0","64041","","null","","","null","43","","NaN","","","","","","","","","","","","","",""
"","response","","html-keyboard-response","292","401383","0.0-1.0-392.0","0","0","64041","","960","","","68","43","","","1","43","training","adjacent","DE","4","5","Q.jpg","P.jpg","0","1","0","",""
"","feedback","","html-keyboard-response","293","402386","0.0-1.0-393.0-0.0","0","0","64041","","null","","","null","43","","","","","","","","","","","","","","","",""
"","time_out","","html-keyboard-response","294","404388","0.0-1.0-395.0-0.0","0","0","64041","","null","","","null","43","","","","","","","","","","","","","","","",""
"","ITI","","html-keyboard-response","295","405391","0.0-1.0-396.0","0","0","64041","","null","","","null","43","","","","","","","","","","","","","","","NaN",""
"","S1","","html-keyboard-response","296","405644","0.0-1.0-398.0","0","0","64041","","null","","","null","44","","","","","","","","","","","","","","","",""
"","ISI","","html-keyboard-response","297","407646","0.0-1.0-399.0","0","0","64041","","null","","","null","44","NaN","","","","","","","","","","","","","","",""
"","S2","","html-keyboard-response","298","407909","0.0-1.0-400.0","0","0","64041","","null","","","null","44","","NaN","","","","","","","","","","","","","",""
"","response","","html-keyboard-response","299","407955","0.0-1.0-401.0","0","0","64041","","45","","","75","44","","","1","44","training","adjacent","CD","3","4","N.jpg","Q.jpg","1","1","1","",""
"","feedback","","html-keyboard-response","300","408959","0.0-1.0-402.0-0.0","0","0","64041","","null","","","null","44","","","","","","","","","","","","","","","",""
"","ITI","","html-keyboard-response","301","409963","0.0-1.0-405.0","0","0","64041","","null","","","null","44","","","","","","","","","","","","","","","NaN",""
"","S1","","html-keyboard-response","302","410216","0.0-1.0-407.0","0","0","64041","","null","","","null","45","","","","","","","","","","","","","","","",""
"","ISI","","html-keyboard-response","303","412221","0.0-1.0-408.0","0","0","64041","","null","","","null","45","NaN","","","","","","","","","","","","","","",""
"","S2","","html-keyboard-response","304","412474","0.0-1.0-409.0","0","0","64041","","null","","","null","45","","NaN","","","","","","","","","","","","","",""
"","response","","html-keyboard-response","305","413215","0.0-1.0-410.0","0","0","64041","","739","","","75","45","","","1","45","training","adjacent","FG","6","7","L.jpg","O.jpg","1","1","1","",""
"","feedback","","html-keyboard-response","306","414218","0.0-1.0-411.0-0.0","0","0","64041","","null","","","null","45","","","","","","","","","","","","","","","",""
"","ITI","","html-keyboard-response","307","415222","0.0-1.0-414.0","0","0","64041","","null","","","null","45","","","","","","","","","","","","","","","NaN",""
"","S1","","html-keyboard-response","308","415477","0.0-1.0-416.0","0","0","64041","","null","","","null","46","","","","","","","","","","","","","","","",""
"","ISI","","html-keyboard-response","309","417481","0.0-1.0-417.0","0","0","64041","","null","","","null","46","NaN","","","","","","","","","","","","","","",""
"","S2","","html-keyboard-response","310","417733","0.0-1.0-418.0","0","0","64041","","null","","","null","46","","NaN","","","","","","","","","","","","","",""
"","response","","html-keyboard-response","311","418365","0.0-1.0-419.0","0","0","64041","","630","","","75","46","","","1","46","training","adjacent","DC","4","3","Q.jpg","N.jpg","1","0","0","",""
"","feedback","","html-keyboard-response","312","419367","0.0-1.0-420.0-0.0","0","0","64041","","null","","","null","46","","","","","","","","","","","","","","","",""
"","time_out","","html-keyboard-response","313","421370","0.0-1.0-422.0-0.0","0","0","64041","","null","","","null","46","","","","","","","","","","","","","","","",""
"","ITI","","html-keyboard-response","314","422372","0.0-1.0-423.0","0","0","64041","","null","","","null","46","","","","","","","","","","","","","","","NaN",""
"","S1","","html-keyboard-response","315","422626","0.0-1.0-425.0","0","0","64041","","null","","","null","47","","","","","","","","","","","","","","","",""
"","ISI","","html-keyboard-response","316","424628","0.0-1.0-426.0","0","0","64041","","null","","","null","47","NaN","","","","","","","","","","","","","","",""
"","S2","","html-keyboard-response","317","424882","0.0-1.0-427.0","0","0","64041","","null","","","null","47","","NaN","","","","","","","","","","","","","",""
"","response","","html-keyboard-response","318","425580","0.0-1.0-428.0","0","0","64041","","696","","","68","47","","","1","47","training","adjacent","AB","1","2","R.jpg","M.jpg","0","1","0","",""
"","feedback","","html-keyboard-response","319","426582","0.0-1.0-429.0-0.0","0","0","64041","","null","","","null","47","","","","","","","","","","","","","","","",""
"","time_out","","html-keyboard-response","320","428585","0.0-1.0-431.0-0.0","0","0","64041","","null","","","null","47","","","","","","","","","","","","","","","",""
"","ITI","","html-keyboard-response","321","429589","0.0-1.0-432.0","0","0","64041","","null","","","null","47","","","","","","","","","","","","","","","NaN",""
"","block_over","","html-keyboard-response","322","432218","0.0-1.0-433.0-0.0","0","0","64041","","2625","","","32","47","","","","","","","","","","","","","","","",""
"","S1","","html-keyboard-response","323","432471","0.0-1.0-434.0","0","0","64041","","null","","","null","48","","","","","","","","","","","","","","","",""
"","ISI","","html-keyboard-response","324","434474","0.0-1.0-435.0","0","0","64041","","null","","","null","48","NaN","","","","","","","","","","","","","","",""
"","S2","","html-keyboard-response","325","434728","0.0-1.0-436.0","0","0","64041","","null","","","null","48","","NaN","","","","","","","","","","","","","",""
"","response","","html-keyboard-response","326","436069","0.0-1.0-437.0","0","0","64041","","1338","","","75","48","","","2","48","training","adjacent","FG","6","7","L.jpg","O.jpg","1","1","1","",""
"","feedback","","html-keyboard-response","327","437072","0.0-1.0-438.0-0.0","0","0","64041","","null","","","null","48","","","","","","","","","","","","","","","",""
"","ITI","","html-keyboard-response","328","438075","0.0-1.0-441.0","0","0","64041","","null","","","null","48","","","","","","","","","","","","","","","NaN",""
"","S1","","html-keyboard-response","329","438329","0.0-1.0-443.0","0","0","64041","","null","","","null","49","","","","","","","","","","","","","","","",""
"","ISI","","html-keyboard-response","330","440332","0.0-1.0-444.0","0","0","64041","","null","","","null","49","NaN","","","","","","","","","","","","","","",""
"","S2","","html-keyboard-response","331","440585","0.0-1.0-445.0","0","0","64041","","null","","","null","49","","NaN","","","","","","","","","","","","","",""
"","response","","html-keyboard-response","332","441520","0.0-1.0-446.0","0","0","64041","","931","","","68","49","","","2","49","training","adjacent","DE","4","5","Q.jpg","P.jpg","0","1","0","",""
"","feedback","","html-keyboard-response","333","442525","0.0-1.0-447.0-0.0","0","0","64041","","null","","","null","49","","","","","","","","","","","","","","","",""
"","time_out","","html-keyboard-response","334","444528","0.0-1.0-449.0-0.0","0","0","64041","","null","","","null","49","","","","","","","","","","","","","","","",""
"","ITI","","html-keyboard-response","335","445531","0.0-1.0-450.0","0","0","64041","","null","","","null","49","","","","","","","","","","","","","","","NaN",""
"","S1","","html-keyboard-response","336","445784","0.0-1.0-452.0","0","0","64041","","null","","","null","50","","","","","","","","","","","","","","","",""
"","ISI","","html-keyboard-response","337","447786","0.0-1.0-453.0","0","0","64041","","null","","","null","50","NaN","","","","","","","","","","","","","","",""
"","S2","","html-keyboard-response","338","448039","0.0-1.0-454.0","0","0","64041","","null","","","null","50","","NaN","","","","","","","","","","","","","",""
"","response","","html-keyboard-response","339","448094","0.0-1.0-455.0","0","0","64041","","54","","","75","50","","","2","50","training","adjacent","CB","3","2","N.jpg","M.jpg","1","0","0","",""
"","feedback","","html-keyboard-response","340","449099","0.0-1.0-456.0-0.0","0","0","64041","","null","","","null","50","","","","","","","","","","","","","","","",""
"","time_out","","html-keyboard-response","341","451103","0.0-1.0-458.0-0.0","0","0","64041","","null","","","null","50","","","","","","","","","","","","","","","",""
"","ITI","","html-keyboard-response","342","452107","0.0-1.0-459.0","0","0","64041","","null","","","null","50","","","","","","","","","","","","","","","NaN",""
"","S1","","html-keyboard-response","343","452360","0.0-1.0-461.0","0","0","64041","","null","","","null","51","","","","","","","","","","","","","","","",""
"","ISI","","html-keyboard-response","344","454362","0.0-1.0-462.0","0","0","64041","","1832","","","75","51","k","","","","","","","","","","","","","","",""
"","S2","","html-keyboard-response","345","454615","0.0-1.0-463.0","0","0","64041","","null","","","null","51","","NaN","","","","","","","","","","","","","",""
"","response","","html-keyboard-response","346","454712","0.0-1.0-464.0","0","0","64041","","95","","","75","51","","","2","51","training","adjacent","DE","4","5","Q.jpg","P.jpg","1","1","1","",""
"","feedback","","html-keyboard-response","347","455715","0.0-1.0-465.0-0.0","0","0","64041","","null","","","null","51","","","","","","","","","","","","","","","",""
"","ITI","","html-keyboard-response","348","456721","0.0-1.0-468.0","0","0","64041","","null","","","null","51","","","","","","","","","","","","","","","NaN",""
"","S1","","html-keyboard-response","349","456974","0.0-1.0-470.0","0","0","64041","","null","","","null","52","","","","","","","","","","","","","","","",""
"","ISI","","html-keyboard-response","350","458976","0.0-1.0-471.0","0","0","64041","","null","","","null","52","NaN","","","","","","","","","","","","","","",""
"","S2","","html-keyboard-response","351","459228","0.0-1.0-472.0","0","0","64041","","null","","","null","52","","NaN","","","","","","","","","","","","","",""
"","response","","html-keyboard-response","352","460350","0.0-1.0-473.0","0","0","64041","","1120","","","68","52","","","2","52","training","adjacent","EF","5","6","P.jpg","L.jpg","0","1","0","",""
"","feedback","","html-keyboard-response","353","461354","0.0-1.0-474.0-0.0","0","0","64041","","null","","","null","52","","","","","","","","","","","","","","","",""
"","time_out","","html-keyboard-response","354","463358","0.0-1.0-476.0-0.0","0","0","64041","","null","","","null","52","","","","","","","","","","","","","","","",""
"","ITI","","html-keyboard-response","355","464376","0.0-1.0-477.0","0","0","64041","","null","","","null","52","","","","","","","","","","","","","","","NaN",""
"","S1","","html-keyboard-response","356","464629","0.0-1.0-479.0","0","0","64041","","null","","","null","53","","","","","","","","","","","","","","","",""
"","ISI","","html-keyboard-response","357","466634","0.0-1.0-480.0","0","0","64041","","null","","","null","53","NaN","","","","","","","","","","","","","","",""
"","S2","","html-keyboard-response","358","466888","0.0-1.0-481.0","0","0","64041","","null","","","null","53","","NaN","","","","","","","","","","","","","",""
"","response","","html-keyboard-response","359","467462","0.0-1.0-482.0","0","0","64041","","573","","","68","53","","","2","53","training","adjacent","ED","5","4","P.jpg","Q.jpg","0","0","1","",""
"","feedback","","html-keyboard-response","360","468466","0.0-1.0-483.0-0.0","0","0","64041","","null","","","null","53","","","","","","","","","","","","","","","",""
"","ITI","","html-keyboard-response","361","469469","0.0-1.0-486.0","0","0","64041","","null","","","null","53","","","","","","","","","","","","","","","NaN",""
"","S1","","html-keyboard-response","362","469723","0.0-1.0-488.0","0","0","64041","","null","","","null","54","","","","","","","","","","","","","","","",""
"","ISI","","html-keyboard-response","363","471726","0.0-1.0-489.0","0","0","64041","","null","","","null","54","NaN","","","","","","","","","","","","","","",""
"","S2","","html-keyboard-response","364","471980","0.0-1.0-490.0","0","0","64041","","null","","","null","54","","NaN","","","","","","","","","","","","","",""
"","response","","html-keyboard-response","365","473300","0.0-1.0-491.0","0","0","64041","","1318","","","75","54","","","2","54","training","adjacent","EF","5","6","P.jpg","L.jpg","1","1","1","",""
"","feedback","","html-keyboard-response","366","474302","0.0-1.0-492.0-0.0","0","0","64041","","null","","","null","54","","","","","","","","","","","","","","","",""
"","ITI","","html-keyboard-response","367","475305","0.0-1.0-495.0","0","0","64041","","null","","","null","54","","","","","","","","","","","","","","","NaN",""
"","S1","","html-keyboard-response","368","475558","0.0-1.0-497.0","0","0","64041","","null","","","null","55","","","","","","","","","","","","","","","",""
"","ISI","","html-keyboard-response","369","477562","0.0-1.0-498.0","0","0","64041","","null","","","null","55","NaN","","","","","","","","","","","","","","",""
"","S2","","html-keyboard-response","370","477817","0.0-1.0-499.0","0","0","64041","","null","","","null","55","","NaN","","","","","","","","","","","","","",""
"","response","","html-keyboard-response","371","479514","0.0-1.0-500.0","0","0","64041","","1693","","","68","55","","","2","55","training","adjacent","ED","5","4","P.jpg","Q.jpg","0","0","1","",""
"","feedback","","html-keyboard-response","372","480518","0.0-1.0-501.0-0.0","0","0","64041","","null","","","null","55","","","","","","","","","","","","","","","",""
"","ITI","","html-keyboard-response","373","481534","0.0-1.0-504.0","0","0","64041","","null","","","null","55","","","","","","","","","","","","","","","NaN",""
"","S1","","html-keyboard-response","374","481787","0.0-1.0-506.0","0","0","64041","","null","","","null","56","","","","","","","","","","","","","","","",""
"","ISI","","html-keyboard-response","375","483790","0.0-1.0-507.0","0","0","64041","","null","","","null","56","NaN","","","","","","","","","","","","","","",""
"","S2","","html-keyboard-response","376","484042","0.0-1.0-508.0","0","0","64041","","null","","","null","56","","NaN","","","","","","","","","","","","","",""
"","response","","html-keyboard-response","377","484876","0.0-1.0-509.0","0","0","64041","","832","","","75","56","","","2","56","training","adjacent","BC","2","3","M.jpg","N.jpg","1","1","1","",""
"","feedback","","html-keyboard-response","378","485879","0.0-1.0-510.0-0.0","0","0","64041","","null","","","null","56","","","","","","","","","","","","","","","",""
"","ITI","","html-keyboard-response","379","486883","0.0-1.0-513.0","0","0","64041","","null","","","null","56","","","","","","","","","","","","","","","NaN",""
"","S1","","html-keyboard-response","380","487137","0.0-1.0-515.0","0","0","64041","","null","","","null","57","","","","","","","","","","","","","","","",""
"","ISI","","html-keyboard-response","381","489139","0.0-1.0-516.0","0","0","64041","","null","","","null","57","NaN","","","","","","","","","","","","","","",""
"","S2","","html-keyboard-response","382","489393","0.0-1.0-517.0","0","0","64041","","null","","","null","57","","NaN","","","","","","","","","","","","","",""
"","response","","html-keyboard-response","383","489901","0.0-1.0-518.0","0","0","64041","","504","","","75","57","","","2","57","training","adjacent","FG","6","7","L.jpg","O.jpg","1","1","1","",""
"","feedback","","html-keyboard-response","384","490904","0.0-1.0-519.0-0.0","0","0","64041","","null","","","null","57","","","","","","","","","","","","","","","",""
"","ITI","","html-keyboard-response","385","491907","0.0-1.0-522.0","0","0","64041","","null","","","null","57","","","","","","","","","","","","","","","NaN",""
"","S1","","html-keyboard-response","386","492160","0.0-1.0-524.0","0","0","64041","","null","","","null","58","","","","","","","","","","","","","","","",""
"","ISI","","html-keyboard-response","387","494163","0.0-1.0-525.0","0","0","64041","","null","","","null","58","NaN","","","","","","","","","","","","","","",""
"","S2","","html-keyboard-response","388","494417","0.0-1.0-526.0","0","0","64041","","null","","","null","58","","NaN","","","","","","","","","","","","","",""
"","response","","html-keyboard-response","389","494850","0.0-1.0-527.0","0","0","64041","","430","","","75","58","","","2","58","training","adjacent","GF","7","6","O.jpg","L.jpg","1","0","0","",""
"","feedback","","html-keyboard-response","390","495862","0.0-1.0-528.0-0.0","0","0","64041","","null","","","null","58","","","","","","","","","","","","","","","",""
"","time_out","","html-keyboard-response","391","497866","0.0-1.0-530.0-0.0","0","0","64041","","null","","","null","58","","","","","","","","","","","","","","","",""
"","ITI","","html-keyboard-response","392","498870","0.0-1.0-531.0","0","0","64041","","null","","","null","58","","","","","","","","","","","","","","","NaN",""
"","S1","","html-keyboard-response","393","499125","0.0-1.0-533.0","0","0","64041","","null","","","null","59","","","","","","","","","","","","","","","",""
"","ISI","","html-keyboard-response","394","501128","0.0-1.0-534.0","0","0","64041","","null","","","null","59","NaN","","","","","","","","","","","","","","",""
"","S2","","html-keyboard-response","395","501381","0.0-1.0-535.0","0","0","64041","","null","","","null","59","","NaN","","","","","","","","","","","","","",""
"","response","","html-keyboard-response","396","502476","0.0-1.0-536.0","0","0","64041","","1093","","","75","59","","","2","59","training","adjacent","AB","1","2","R.jpg","M.jpg","1","1","1","",""
"","feedback","","html-keyboard-response","397","503481","0.0-1.0-537.0-0.0","0","0","64041","","null","","","null","59","","","","","","","","","","","","","","","",""
"","ITI","","html-keyboard-response","398","504483","0.0-1.0-540.0","0","0","64041","","null","","","null","59","","","","","","","","","","","","","","","NaN",""
"","S1","","html-keyboard-response","399","504737","0.0-1.0-542.0","0","0","64041","","null","","","null","60","","","","","","","","","","","","","","","",""
"","ISI","","html-keyboard-response","400","506740","0.0-1.0-543.0","0","0","64041","","null","","","null","60","NaN","","","","","","","","","","","","","","",""
"","S2","","html-keyboard-response","401","506994","0.0-1.0-544.0","0","0","64041","","null","","","null","60","","NaN","","","","","","","","","","","","","",""
"","response","","html-keyboard-response","402","507589","0.0-1.0-545.0","0","0","64041","","592","","","75","60","","","2","60","training","adjacent","FG","6","7","L.jpg","O.jpg","1","1","1","",""
"","feedback","","html-keyboard-response","403","508592","0.0-1.0-546.0-0.0","0","0","64041","","null","","","null","60","","","","","","","","","","","","","","","",""
"","ITI","","html-keyboard-response","404","509594","0.0-1.0-549.0","0","0","64041","","null","","","null","60","","","","","","","","","","","","","","","NaN",""
"","S1","","html-keyboard-response","405","509847","0.0-1.0-551.0","0","0","64041","","null","","","null","61","","","","","","","","","","","","","","","",""
"","ISI","","html-keyboard-response","406","511850","0.0-1.0-552.0","0","0","64041","","null","","","null","61","NaN","","","","","","","","","","","","","","",""
"","S2","","html-keyboard-response","407","512104","0.0-1.0-553.0","0","0","64041","","null","","","null","61","","NaN","","","","","","","","","","","","","",""
"","response","","html-keyboard-response","408","512743","0.0-1.0-554.0","0","0","64041","","637","","","75","61","","","2","61","training","adjacent","CB","3","2","N.jpg","M.jpg","1","0","0","",""
"","feedback","","html-keyboard-response","409","513745","0.0-1.0-555.0-0.0","0","0","64041","","null","","","null","61","","","","","","","","","","","","","","","",""
"","time_out","","html-keyboard-response","410","515747","0.0-1.0-557.0-0.0","0","0","64041","","null","","","null","61","","","","","","","","","","","","","","","",""
"","ITI","","html-keyboard-response","411","516761","0.0-1.0-558.0","0","0","64041","","null","","","null","61","","","","","","","","","","","","","","","NaN",""
"","S1","","html-keyboard-response","412","517014","0.0-1.0-560.0","0","0","64041","","null","","","null","62","","","","","","","","","","","","","","","",""
"","ISI","","html-keyboard-response","413","519017","0.0-1.0-561.0","0","0","64041","","null","","","null","62","NaN","","","","","","","","","","","","","","",""
"","S2","","html-keyboard-response","414","519271","0.0-1.0-562.0","0","0","64041","","null","","","null","62","","NaN","","","","","","","","","","","","","",""
"","response","","html-keyboard-response","415","519874","0.0-1.0-563.0","0","0","64041","","600","","","75","62","","","2","62","training","adjacent","GF","7","6","O.jpg","L.jpg","1","0","0","",""
"","feedback","","html-keyboard-response","416","520876","0.0-1.0-564.0-0.0","0","0","64041","","null","","","null","62","","","","","","","","","","","","","","","",""
"","time_out","","html-keyboard-response","417","522881","0.0-1.0-566.0-0.0","0","0","64041","","null","","","null","62","","","","","","","","","","","","","","","",""
"","ITI","","html-keyboard-response","418","523884","0.0-1.0-567.0","0","0","64041","","null","","","null","62","","","","","","","","","","","","","","","NaN",""
"","S1","","html-keyboard-response","419","524136","0.0-1.0-569.0","0","0","64041","","null","","","null","63","","","","","","","","","","","","","","","",""
"","ISI","","html-keyboard-response","420","526139","0.0-1.0-570.0","0","0","64041","","null","","","null","63","NaN","","","","","","","","","","","","","","",""
"","S2","","html-keyboard-response","421","526392","0.0-1.0-571.0","0","0","64041","","null","","","null","63","","NaN","","","","","","","","","","","","","",""
"","response","","html-keyboard-response","422","527485","0.0-1.0-572.0","0","0","64041","","1091","","","68","63","","","2","63","training","adjacent","FG","6","7","L.jpg","O.jpg","0","1","0","",""
"","feedback","","html-keyboard-response","423","528489","0.0-1.0-573.0-0.0","0","0","64041","","null","","","null","63","","","","","","","","","","","","","","","",""
"","time_out","","html-keyboard-response","424","530491","0.0-1.0-575.0-0.0","0","0","64041","","null","","","null","63","","","","","","","","","","","","","","","",""
"","ITI","","html-keyboard-response","425","531495","0.0-1.0-576.0","0","0","64041","","null","","","null","63","","","","","","","","","","","","","","","NaN",""
"","S1","","html-keyboard-response","426","531749","0.0-1.0-578.0","0","0","64041","","null","","","null","64","","","","","","","","","","","","","","","",""
"","ISI","","html-keyboard-response","427","533752","0.0-1.0-579.0","0","0","64041","","null","","","null","64","NaN","","","","","","","","","","","","","","",""
"","S2","","html-keyboard-response","428","534009","0.0-1.0-580.0","0","0","64041","","null","","","null","64","","NaN","","","","","","","","","","","","","",""
"","response","","html-keyboard-response","429","534787","0.0-1.0-581.0","0","0","64041","","776","","","75","64","","","2","64","training","adjacent","AB","1","2","R.jpg","M.jpg","1","1","1","",""
"","feedback","","html-keyboard-response","430","535791","0.0-1.0-582.0-0.0","0","0","64041","","null","","","null","64","","","","","","","","","","","","","","","",""
"","ITI","","html-keyboard-response","431","536795","0.0-1.0-585.0","0","0","64041","","null","","","null","64","","","","","","","","","","","","","","","NaN",""
"","S1","","html-keyboard-response","432","537049","0.0-1.0-587.0","0","0","64041","","null","","","null","65","","","","","","","","","","","","","","","",""
"","ISI","","html-keyboard-response","433","539051","0.0-1.0-588.0","0","0","64041","","null","","","null","65","NaN","","","","","","","","","","","","","","",""
"","S2","","html-keyboard-response","434","539304","0.0-1.0-589.0","0","0","64041","","null","","","null","65","","NaN","","","","","","","","","","","","","",""
"","response","","html-keyboard-response","435","540582","0.0-1.0-590.0","0","0","64041","","1275","","","68","65","","","2","65","training","adjacent","EF","5","6","P.jpg","L.jpg","0","1","0","",""
"","feedback","","html-keyboard-response","436","541585","0.0-1.0-591.0-0.0","0","0","64041","","null","","","null","65","","","","","","","","","","","","","","","",""
"","time_out","","html-keyboard-response","437","543589","0.0-1.0-593.0-0.0","0","0","64041","","null","","","null","65","","","","","","","","","","","","","","","",""
"","ITI","","html-keyboard-response","438","544601","0.0-1.0-594.0","0","0","64041","","null","","","null","65","","","","","","","","","","","","","","","NaN",""
"","S1","","html-keyboard-response","439","544854","0.0-1.0-596.0","0","0","64041","","null","","","null","66","","","","","","","","","","","","","","","",""
"","ISI","","html-keyboard-response","440","546856","0.0-1.0-597.0","0","0","64041","","null","","","null","66","NaN","","","","","","","","","","","","","","",""
"","S2","","html-keyboard-response","441","547109","0.0-1.0-598.0","0","0","64041","","null","","","null","66","","NaN","","","","","","","","","","","","","",""
"","response","","html-keyboard-response","442","547642","0.0-1.0-599.0","0","0","64041","","532","","","75","66","","","2","66","training","adjacent","FE","6","5","L.jpg","P.jpg","1","0","0","",""
"","feedback","","html-keyboard-response","443","548645","0.0-1.0-600.0-0.0","0","0","64041","","null","","","null","66","","","","","","","","","","","","","","","",""
"","time_out","","html-keyboard-response","444","550648","0.0-1.0-602.0-0.0","0","0","64041","","null","","","null","66","","","","","","","","","","","","","","","",""
"","ITI","","html-keyboard-response","445","551651","0.0-1.0-603.0","0","0","64041","","null","","","null","66","","","","","","","","","","","","","","","NaN",""
"","S1","","html-keyboard-response","446","551904","0.0-1.0-605.0","0","0","64041","","null","","","null","67","","","","","","","","","","","","","","","",""
"","ISI","","html-keyboard-response","447","553907","0.0-1.0-606.0","0","0","64041","","null","","","null","67","NaN","","","","","","","","","","","","","","",""
"","S2","","html-keyboard-response","448","554160","0.0-1.0-607.0","0","0","64041","","null","","","null","67","","NaN","","","","","","","","","","","","","",""
"","response","","html-keyboard-response","449","554733","0.0-1.0-608.0","0","0","64041","","571","","","68","67","","","2","67","training","adjacent","AB","1","2","R.jpg","M.jpg","0","1","0","",""
"","feedback","","html-keyboard-response","450","555736","0.0-1.0-609.0-0.0","0","0","64041","","null","","","null","67","","","","","","","","","","","","","","","",""
"","time_out","","html-keyboard-response","451","557739","0.0-1.0-611.0-0.0","0","0","64041","","null","","","null","67","","","","","","","","","","","","","","","",""
"","ITI","","html-keyboard-response","452","558743","0.0-1.0-612.0","0","0","64041","","null","","","null","67","","","","","","","","","","","","","","","NaN",""
"","S1","","html-keyboard-response","453","558996","0.0-1.0-614.0","0","0","64041","","null","","","null","68","","","","","","","","","","","","","","","",""
"","ISI","","html-keyboard-response","454","561000","0.0-1.0-615.0","0","0","64041","","null","","","null","68","NaN","","","","","","","","","","","","","","",""
"","S2","","html-keyboard-response","455","561254","0.0-1.0-616.0","0","0","64041","","null","","","null","68","","NaN","","","","","","","","","","","","","",""
"","response","","html-keyboard-response","456","562121","0.0-1.0-617.0","0","0","64041","","865","","","75","68","","","2","68","training","adjacent","FE","6","5","L.jpg","P.jpg","1","0","0","",""
"","feedback","","html-keyboard-response","457","563125","0.0-1.0-618.0-0.0","0","0","64041","","null","","","null","68","","","","","","","","","","","","","","","",""
"","time_out","","html-keyboard-response","458","565127","0.0-1.0-620.0-0.0","0","0","64041","","null","","","null","68","","","","","","","","","","","","","","","",""
"","ITI","","html-keyboard-response","459","566132","0.0-1.0-621.0","0","0","64041","","null","","","null","68","","","","","","","","","","","","","","","NaN",""
"","S1","","html-keyboard-response","460","566387","0.0-1.0-623.0","0","0","64041","","null","","","null","69","","","","","","","","","","","","","","","",""
"","ISI","","html-keyboard-response","461","568389","0.0-1.0-624.0","0","0","64041","","null","","","null","69","NaN","","","","","","","","","","","","","","",""
"","S2","","html-keyboard-response","462","568658","0.0-1.0-625.0","0","0","64041","","null","","","null","69","","NaN","","","","","","","","","","","","","",""
"","response","","html-keyboard-response","463","569106","0.0-1.0-626.0","0","0","64041","","446","","","68","69","","","2","69","training","adjacent","BA","2","1","M.jpg","R.jpg","0","0","1","",""
"","feedback","","html-keyboard-response","464","570110","0.0-1.0-627.0-0.0","0","0","64041","","null","","","null","69","","","","","","","","","","","","","","","",""
"","ITI","","html-keyboard-response","465","571113","0.0-1.0-630.0","0","0","64041","","null","","","null","69","","","","","","","","","","","","","","","NaN",""
"","S1","","html-keyboard-response","466","571367","0.0-1.0-632.0","0","0","64041","","null","","","null","70","","","","","","","","","","","","","","","",""
"","ISI","","html-keyboard-response","467","573370","0.0-1.0-633.0","0","0","64041","","null","","","null","70","NaN","","","","","","","","","","","","","","",""
"","S2","","html-keyboard-response","468","573624","0.0-1.0-634.0","0","0","64041","","null","","","null","70","","NaN","","","","","","","","","","","","","",""
"","response","","html-keyboard-response","469","574510","0.0-1.0-635.0","0","0","64041","","884","","","68","70","","","2","70","training","adjacent","GF","7","6","O.jpg","L.jpg","0","0","1","",""
"","feedback","","html-keyboard-response","470","575515","0.0-1.0-636.0-0.0","0","0","64041","","null","","","null","70","","","","","","","","","","","","","","","",""
"","ITI","","html-keyboard-response","471","576518","0.0-1.0-639.0","0","0","64041","","null","","","null","70","","","","","","","","","","","","","","","NaN",""
"","S1","","html-keyboard-response","472","576771","0.0-1.0-641.0","0","0","64041","","null","","","null","71","","","","","","","","","","","","","","","",""
"","ISI","","html-keyboard-response","473","578774","0.0-1.0-642.0","0","0","64041","","null","","","null","71","NaN","","","","","","","","","","","","","","",""
"","S2","","html-keyboard-response","474","579028","0.0-1.0-643.0","0","0","64041","","null","","","null","71","","NaN","","","","","","","","","","","","","",""
"","response","","html-keyboard-response","475","579799","0.0-1.0-644.0","0","0","64041","","770","","","75","71","","","2","71","training","adjacent","BA","2","1","M.jpg","R.jpg","1","0","0","",""
"","feedback","","html-keyboard-response","476","580801","0.0-1.0-645.0-0.0","0","0","64041","","null","","","null","71","","","","","","","","","","","","","","","",""
"","time_out","","html-keyboard-response","477","582803","0.0-1.0-647.0-0.0","0","0","64041","","null","","","null","71","","","","","","","","","","","","","","","",""
"","ITI","","html-keyboard-response","478","583807","0.0-1.0-648.0","0","0","64041","","null","","","null","71","","","","","","","","","","","","","","","NaN",""
"","S1","","html-keyboard-response","479","584062","0.0-1.0-650.0","0","0","64041","","null","","","null","72","","","","","","","","","","","","","","","",""
"","ISI","","html-keyboard-response","480","586064","0.0-1.0-651.0","0","0","64041","","null","","","null","72","NaN","","","","","","","","","","","","","","",""
"","S2","","html-keyboard-response","481","586317","0.0-1.0-652.0","0","0","64041","","null","","","null","72","","NaN","","","","","","","","","","","","","",""
"","response","","html-keyboard-response","482","587381","0.0-1.0-653.0","0","0","64041","","1061","","","68","72","","","2","72","training","adjacent","CB","3","2","N.jpg","M.jpg","0","0","1","",""
"","feedback","","html-keyboard-response","483","588384","0.0-1.0-654.0-0.0","0","0","64041","","null","","","null","72","","","","","","","","","","","","","","","",""
"","ITI","","html-keyboard-response","484","589386","0.0-1.0-657.0","0","0","64041","","null","","","null","72","","","","","","","","","","","","","","","NaN",""
"","S1","","html-keyboard-response","485","589640","0.0-1.0-659.0","0","0","64041","","null","","","null","73","","","","","","","","","","","","","","","",""
"","ISI","","html-keyboard-response","486","591648","0.0-1.0-660.0","0","0","64041","","null","","","null","73","NaN","","","","","","","","","","","","","","",""
"","S2","","html-keyboard-response","487","591902","0.0-1.0-661.0","0","0","64041","","null","","","null","73","","NaN","","","","","","","","","","","","","",""
"","response","","html-keyboard-response","488","592699","0.0-1.0-662.0","0","0","64041","","795","","","75","73","","","2","73","training","adjacent","FE","6","5","L.jpg","P.jpg","1","0","0","",""
"","feedback","","html-keyboard-response","489","593702","0.0-1.0-663.0-0.0","0","0","64041","","null","","","null","73","","","","","","","","","","","","","","","",""
"","time_out","","html-keyboard-response","490","595704","0.0-1.0-665.0-0.0","0","0","64041","","null","","","null","73","","","","","","","","","","","","","","","",""
"","ITI","","html-keyboard-response","491","596708","0.0-1.0-666.0","0","0","64041","","null","","","null","73","","","","","","","","","","","","","","","NaN",""
"","S1","","html-keyboard-response","492","596960","0.0-1.0-668.0","0","0","64041","","null","","","null","74","","","","","","","","","","","","","","","",""
"","ISI","","html-keyboard-response","493","598964","0.0-1.0-669.0","0","0","64041","","null","","","null","74","NaN","","","","","","","","","","","","","","",""
"","S2","","html-keyboard-response","494","599217","0.0-1.0-670.0","0","0","64041","","null","","","null","74","","NaN","","","","","","","","","","","","","",""
"","response","","html-keyboard-response","495","600411","0.0-1.0-671.0","0","0","64041","","1191","","","75","74","","","2","74","training","adjacent","CD","3","4","N.jpg","Q.jpg","1","1","1","",""
"","feedback","","html-keyboard-response","496","601415","0.0-1.0-672.0-0.0","0","0","64041","","null","","","null","74","","","","","","","","","","","","","","","",""
"","ITI","","html-keyboard-response","497","602419","0.0-1.0-675.0","0","0","64041","","null","","","null","74","","","","","","","","","","","","","","","NaN",""
"","S1","","html-keyboard-response","498","602672","0.0-1.0-677.0","0","0","64041","","null","","","null","75","","","","","","","","","","","","","","","",""
"","ISI","","html-keyboard-response","499","604675","0.0-1.0-678.0","0","0","64041","","null","","","null","75","NaN","","","","","","","","","","","","","","",""
"","S2","","html-keyboard-response","500","604927","0.0-1.0-679.0","0","0","64041","","null","","","null","75","","NaN","","","","","","","","","","","","","",""
"","response","","html-keyboard-response","501","606503","0.0-1.0-680.0","0","0","64041","","1574","","","68","75","","","2","75","training","adjacent","BC","2","3","M.jpg","N.jpg","0","1","0","",""
"","feedback","","html-keyboard-response","502","607506","0.0-1.0-681.0-0.0","0","0","64041","","null","","","null","75","","","","","","","","","","","","","","","",""
"","time_out","","html-keyboard-response","503","609509","0.0-1.0-683.0-0.0","0","0","64041","","null","","","null","75","","","","","","","","","","","","","","","",""
"","ITI","","html-keyboard-response","504","610513","0.0-1.0-684.0","0","0","64041","","null","","","null","75","","","","","","","","","","","","","","","NaN",""
"","S1","","html-keyboard-response","505","610765","0.0-1.0-686.0","0","0","64041","","null","","","null","76","","","","","","","","","","","","","","","",""
"","ISI","","html-keyboard-response","506","612768","0.0-1.0-687.0","0","0","64041","","null","","","null","76","NaN","","","","","","","","","","","","","","",""
"","S2","","html-keyboard-response","507","613023","0.0-1.0-688.0","0","0","64041","","null","","","null","76","","NaN","","","","","","","","","","","","","",""
"","response","","html-keyboard-response","508","613996","0.0-1.0-689.0","0","0","64041","","970","","","68","76","","","2","76","training","adjacent","ED","5","4","P.jpg","Q.jpg","0","0","1","",""
"","feedback","","html-keyboard-response","509","615000","0.0-1.0-690.0-0.0","0","0","64041","","null","","","null","76","","","","","","","","","","","","","","","",""
"","ITI","","html-keyboard-response","510","616005","0.0-1.0-693.0","0","0","64041","","null","","","null","76","","","","","","","","","","","","","","","NaN",""
"","S1","","html-keyboard-response","511","616257","0.0-1.0-695.0","0","0","64041","","null","","","null","77","","","","","","","","","","","","","","","",""
"","ISI","","html-keyboard-response","512","618260","0.0-1.0-696.0","0","0","64041","","null","","","null","77","NaN","","","","","","","","","","","","","","",""
"","S2","","html-keyboard-response","513","618512","0.0-1.0-697.0","0","0","64041","","null","","","null","77","","NaN","","","","","","","","","","","","","",""
"","response","","html-keyboard-response","514","619555","0.0-1.0-698.0","0","0","64041","","1040","","","68","77","","","2","77","training","adjacent","GF","7","6","O.jpg","L.jpg","0","0","1","",""
"","feedback","","html-keyboard-response","515","620559","0.0-1.0-699.0-0.0","0","0","64041","","null","","","null","77","","","","","","","","","","","","","","","",""
"","ITI","","html-keyboard-response","516","621562","0.0-1.0-702.0","0","0","64041","","null","","","null","77","","","","","","","","","","","","","","","NaN",""
"","S1","","html-keyboard-response","517","621816","0.0-1.0-704.0","0","0","64041","","null","","","null","78","","","","","","","","","","","","","","","",""
"","ISI","","html-keyboard-response","518","623820","0.0-1.0-705.0","0","0","64041","","null","","","null","78","NaN","","","","","","","","","","","","","","",""
"","S2","","html-keyboard-response","519","624080","0.0-1.0-706.0","0","0","64041","","null","","","null","78","","NaN","","","","","","","","","","","","","",""
"","response","","html-keyboard-response","520","624691","0.0-1.0-707.0","0","0","64041","","609","","","75","78","","","2","78","training","adjacent","ED","5","4","P.jpg","Q.jpg","1","0","0","",""
"","feedback","","html-keyboard-response","521","625695","0.0-1.0-708.0-0.0","0","0","64041","","null","","","null","78","","","","","","","","","","","","","","","",""
"","time_out","","html-keyboard-response","522","627697","0.0-1.0-710.0-0.0","0","0","64041","","null","","","null","78","","","","","","","","","","","","","","","",""
"","ITI","","html-keyboard-response","523","628700","0.0-1.0-711.0","0","0","64041","","null","","","null","78","","","","","","","","","","","","","","","NaN",""
"","S1","","html-keyboard-response","524","628955","0.0-1.0-713.0","0","0","64041","","null","","","null","79","","","","","","","","","","","","","","","",""
"","ISI","","html-keyboard-response","525","630958","0.0-1.0-714.0","0","0","64041","","1360","","","68","79","d","","","","","","","","","","","","","","",""
"","S2","","html-keyboard-response","526","631211","0.0-1.0-715.0","0","0","64041","","null","","","null","79","","NaN","","","","","","","","","","","","","",""
"","response","","html-keyboard-response","527","631770","0.0-1.0-716.0","0","0","64041","","557","","","68","79","","","2","79","training","adjacent","DC","4","3","Q.jpg","N.jpg","0","0","1","",""
"","feedback","","html-keyboard-response","528","632774","0.0-1.0-717.0-0.0","0","0","64041","","null","","","null","79","","","","","","","","","","","","","","","",""
"","ITI","","html-keyboard-response","529","633777","0.0-1.0-720.0","0","0","64041","","null","","","null","79","","","","","","","","","","","","","","","NaN",""
"","S1","","html-keyboard-response","530","634029","0.0-1.0-722.0","0","0","64041","","null","","","null","80","","","","","","","","","","","","","","","",""
"","ISI","","html-keyboard-response","531","636032","0.0-1.0-723.0","0","0","64041","","null","","","null","80","NaN","","","","","","","","","","","","","","",""
"","S2","","html-keyboard-response","532","636285","0.0-1.0-724.0","0","0","64041","","null","","","null","80","","NaN","","","","","","","","","","","","","",""
"","response","","html-keyboard-response","533","637308","0.0-1.0-725.0","0","0","64041","","1021","","","75","80","","","2","80","training","adjacent","BC","2","3","M.jpg","N.jpg","1","1","1","",""
"","feedback","","html-keyboard-response","534","638312","0.0-1.0-726.0-0.0","0","0","64041","","null","","","null","80","","","","","","","","","","","","","","","",""
"","ITI","","html-keyboard-response","535","639315","0.0-1.0-729.0","0","0","64041","","null","","","null","80","","","","","","","","","","","","","","","NaN",""
"","S1","","html-keyboard-response","536","639568","0.0-1.0-731.0","0","0","64041","","null","","","null","81","","","","","","","","","","","","","","","",""
"","ISI","","html-keyboard-response","537","641571","0.0-1.0-732.0","0","0","64041","","null","","","null","81","NaN","","","","","","","","","","","","","","",""
"","S2","","html-keyboard-response","538","641825","0.0-1.0-733.0","0","0","64041","","null","","","null","81","","NaN","","","","","","","","","","","","","",""
"","response","","html-keyboard-response","539","642862","0.0-1.0-734.0","0","0","64041","","1035","","","68","81","","","2","81","training","adjacent","AB","1","2","R.jpg","M.jpg","0","1","0","",""
"","feedback","","html-keyboard-response","540","643865","0.0-1.0-735.0-0.0","0","0","64041","","null","","","null","81","","","","","","","","","","","","","","","",""
"","time_out","","html-keyboard-response","541","645868","0.0-1.0-737.0-0.0","0","0","64041","","null","","","null","81","","","","","","","","","","","","","","","",""
"","ITI","","html-keyboard-response","542","646871","0.0-1.0-738.0","0","0","64041","","null","","","null","81","","","","","","","","","","","","","","","NaN",""
"","S1","","html-keyboard-response","543","647124","0.0-1.0-740.0","0","0","64041","","null","","","null","82","","","","","","","","","","","","","","","",""
"","ISI","","html-keyboard-response","544","649128","0.0-1.0-741.0","0","0","64041","","null","","","null","82","NaN","","","","","","","","","","","","","","",""
"","S2","","html-keyboard-response","545","649382","0.0-1.0-742.0","0","0","64041","","null","","","null","82","","NaN","","","","","","","","","","","","","",""
"","response","","html-keyboard-response","546","650568","0.0-1.0-743.0","0","0","64041","","1183","","","68","82","","","2","82","training","adjacent","DC","4","3","Q.jpg","N.jpg","0","0","1","",""
"","feedback","","html-keyboard-response","547","651571","0.0-1.0-744.0-0.0","0","0","64041","","null","","","null","82","","","","","","","","","","","","","","","",""
"","ITI","","html-keyboard-response","548","652574","0.0-1.0-747.0","0","0","64041","","null","","","null","82","","","","","","","","","","","","","","","NaN",""
"","S1","","html-keyboard-response","549","652827","0.0-1.0-749.0","0","0","64041","","null","","","null","83","","","","","","","","","","","","","","","",""
"","ISI","","html-keyboard-response","550","654831","0.0-1.0-750.0","0","0","64041","","null","","","null","83","NaN","","","","","","","","","","","","","","",""
"","S2","","html-keyboard-response","551","655085","0.0-1.0-751.0","0","0","64041","","null","","","null","83","","NaN","","","","","","","","","","","","","",""
"","response","","html-keyboard-response","552","656316","0.0-1.0-752.0","0","0","64041","","1228","","","75","83","","","2","83","training","adjacent","BA","2","1","M.jpg","R.jpg","1","0","0","",""
"","feedback","","html-keyboard-response","553","657319","0.0-1.0-753.0-0.0","0","0","64041","","null","","","null","83","","","","","","","","","","","","","","","",""
"","time_out","","html-keyboard-response","554","659323","0.0-1.0-755.0-0.0","0","0","64041","","null","","","null","83","","","","","","","","","","","","","","","",""
"","ITI","","html-keyboard-response","555","660326","0.0-1.0-756.0","0","0","64041","","null","","","null","83","","","","","","","","","","","","","","","NaN",""
"","S1","","html-keyboard-response","556","660579","0.0-1.0-758.0","0","0","64041","","null","","","null","84","","","","","","","","","","","","","","","",""
"","ISI","","html-keyboard-response","557","662581","0.0-1.0-759.0","0","0","64041","","null","","","null","84","NaN","","","","","","","","","","","","","","",""
"","S2","","html-keyboard-response","558","662834","0.0-1.0-760.0","0","0","64041","","null","","","null","84","","NaN","","","","","","","","","","","","","",""
"","response","","html-keyboard-response","559","664146","0.0-1.0-761.0","0","0","64041","","1310","","","75","84","","","2","84","training","adjacent","CD","3","4","N.jpg","Q.jpg","1","1","1","",""
"","feedback","","html-keyboard-response","560","665149","0.0-1.0-762.0-0.0","0","0","64041","","null","","","null","84","","","","","","","","","","","","","","","",""
"","ITI","","html-keyboard-response","561","666152","0.0-1.0-765.0","0","0","64041","","null","","","null","84","","","","","","","","","","","","","","","NaN",""
"","S1","","html-keyboard-response","562","666404","0.0-1.0-767.0","0","0","64041","","null","","","null","85","","","","","","","","","","","","","","","",""
"","ISI","","html-keyboard-response","563","668407","0.0-1.0-768.0","0","0","64041","","null","","","null","85","NaN","","","","","","","","","","","","","","",""
"","S2","","html-keyboard-response","564","668660","0.0-1.0-769.0","0","0","64041","","null","","","null","85","","NaN","","","","","","","","","","","","","",""
"","response","","html-keyboard-response","565","669580","0.0-1.0-770.0","0","0","64041","","918","","","68","85","","","2","85","training","adjacent","DE","4","5","Q.jpg","P.jpg","0","1","0","",""
"","feedback","","html-keyboard-response","566","670584","0.0-1.0-771.0-0.0","0","0","64041","","null","","","null","85","","","","","","","","","","","","","","","",""
"","time_out","","html-keyboard-response","567","672587","0.0-1.0-773.0-0.0","0","0","64041","","null","","","null","85","","","","","","","","","","","","","","","",""
"","ITI","","html-keyboard-response","568","673590","0.0-1.0-774.0","0","0","64041","","null","","","null","85","","","","","","","","","","","","","","","NaN",""
"","S1","","html-keyboard-response","569","673844","0.0-1.0-776.0","0","0","64041","","null","","","null","86","","","","","","","","","","","","","","","",""
"","ISI","","html-keyboard-response","570","675847","0.0-1.0-777.0","0","0","64041","","null","","","null","86","NaN","","","","","","","","","","","","","","",""
"","S2","","html-keyboard-response","571","676099","0.0-1.0-778.0","0","0","64041","","null","","","null","86","","NaN","","","","","","","","","","","","","",""
"","response","","html-keyboard-response","572","676597","0.0-1.0-779.0","0","0","64041","","496","","","75","86","","","2","86","training","adjacent","CD","3","4","N.jpg","Q.jpg","1","1","1","",""
"","feedback","","html-keyboard-response","573","677601","0.0-1.0-780.0-0.0","0","0","64041","","null","","","null","86","","","","","","","","","","","","","","","",""
"","ITI","","html-keyboard-response","574","678605","0.0-1.0-783.0","0","0","64041","","null","","","null","86","","","","","","","","","","","","","","","NaN",""
"","S1","","html-keyboard-response","575","678858","0.0-1.0-785.0","0","0","64041","","null","","","null","87","","","","","","","","","","","","","","","",""
"","ISI","","html-keyboard-response","576","680862","0.0-1.0-786.0","0","0","64041","","null","","","null","87","NaN","","","","","","","","","","","","","","",""
"","S2","","html-keyboard-response","577","681115","0.0-1.0-787.0","0","0","64041","","null","","","null","87","","NaN","","","","","","","","","","","","","",""
"","response","","html-keyboard-response","578","682322","0.0-1.0-788.0","0","0","64041","","1205","","","68","87","","","2","87","training","adjacent","EF","5","6","P.jpg","L.jpg","0","1","0","",""
"","feedback","","html-keyboard-response","579","683326","0.0-1.0-789.0-0.0","0","0","64041","","null","","","null","87","","","","","","","","","","","","","","","",""
"","time_out","","html-keyboard-response","580","685328","0.0-1.0-791.0-0.0","0","0","64041","","null","","","null","87","","","","","","","","","","","","","","","",""
"","ITI","","html-keyboard-response","581","686332","0.0-1.0-792.0","0","0","64041","","null","","","null","87","","","","","","","","","","","","","","","NaN",""
"","S1","","html-keyboard-response","582","686585","0.0-1.0-794.0","0","0","64041","","null","","","null","88","","","","","","","","","","","","","","","",""
