"success","ttype","start_time","trial_type","trial_index","time_elapsed","internal_node_id","warning","missed_checkup","PID","view_history","rt","responses","repeat_instructions","key_press","index","keypress_isi","keypress_S2","block","trial_num","phase","group_type","pair_type","S1_stim","S2_stim","S1_img","S2_img","S1_chosen","S1_higher","accuracy","keypress_iti","total_bonus_tally"
"true","full_screen","d04062023hr1906","fullscreen","0","2744","0.0-0.0","0","0","84700","","","","","","","","","","","","","","","","","","","","","",""
"","instructions","","instructions","1","18583","0.0-1.0-0.0-0.0","0","0","84700","[{""page_index"":0,""viewing_time"":2448},{""page_index"":1,""viewing_time"":8440},{""page_index"":2,""viewing_time"":3776},{""page_index"":3,""viewing_time"":1174}]","15838","","","","","","","","","","","","","","","","","","","",""
"","comprehension_check","","survey-multi-choice","2","34935","0.0-1.0-0.0-1.0","0","0","84700","","16349","{""Q0"":""True"",""Q1"":""D"",""Q2"":""Only when the screen 'MAKE A CHOICE' is shown"",""Q3"":""Green mark"",""Q4"":""either D or K""}","1","","","","","","","","","","","","","","","","","",""
"","missed_instruction_checkup","","html-keyboard-response","3","36521","0.0-1.0-0.0-2.0-0.0","0","1","84700","","1585","","","32","","","","","","","","","","","","","","","","",""
"","instructions","","instructions","4","48644","0.0-1.0-0.1-0.1","0","0","84700","[{""page_index"":0,""viewing_time"":1628},{""page_index"":1,""viewing_time"":8450},{""page_index"":2,""viewing_time"":1151},{""page_index"":3,""viewing_time"":892}]","12121","","","","","","","","","","","","","","","","","","","",""
"","comprehension_check","","survey-multi-choice","5","58275","0.0-1.0-0.1-1.1","0","0","84700","","9627","{""Q0"":""True"",""Q1"":""D"",""Q2"":""Once the second image appears and while the screen 'MAKE A CHOICE' is shown"",""Q3"":""Green mark"",""Q4"":""either D or K""}","0","","","","","","","","","","","","","","","","","",""
"","start_exp","","html-keyboard-response","6","59155","0.0-1.0-1.0","0","0","84700","","879","","","32","","","","","","","","","","","","","","","","",""
"","S1","","html-keyboard-response","7","59307","0.0-1.0-2.0","0","0","84700","","null","","","null","0","","","","","","","","","","","","","","","",""
"","ISI","","html-keyboard-response","8","61309","0.0-1.0-3.0","0","0","84700","","1735","","","68","0","d","","","","","","","","","","","","","","",""
"","S2","","html-keyboard-response","9","61460","0.0-1.0-4.0","0","0","84700","","null","","","null","0","","NaN","","","","","","","","","","","","","",""
"","response","","html-keyboard-response","10","62754","0.0-1.0-5.0-0.0","0","0","84700","","1293","","","68","0","","","1","0","training","adjacent","GF","7","6","Q.jpg","L.jpg","1","0","0","",""
"","feedback","","html-keyboard-response","11","63756","0.0-1.0-6.0-0.0","0","0","84700","","null","","","null","0","","","","","","","","","","","","","","","",""
"","time_out","","html-keyboard-response","12","65758","0.0-1.0-8.0-0.0","0","0","84700","","null","","","null","0","","","","","","","","","","","","","","","",""
"","ITI","","html-keyboard-response","13","66759","0.0-1.0-9.0","0","0","84700","","null","","","null","0","","","","","","","","","","","","","","","NaN",""
"","S1","","html-keyboard-response","14","66911","0.0-1.0-11.0","0","0","84700","","null","","","null","1","","","","","","","","","","","","","","","",""
"","ISI","","html-keyboard-response","15","68911","0.0-1.0-12.0","0","0","84700","","null","","","null","1","NaN","","","","","","","","","","","","","","",""
"","S2","","html-keyboard-response","16","69064","0.0-1.0-13.0","0","0","84700","","null","","","null","1","","NaN","","","","","","","","","","","","","",""
"","response","","html-keyboard-response","17","69558","0.0-1.0-14.0-0.0","0","0","84700","","493","","","68","1","","","1","1","training","adjacent","BA","2","1","R.jpg","M.jpg","1","0","0","",""
"","feedback","","html-keyboard-response","18","70560","0.0-1.0-15.0-0.0","0","0","84700","","null","","","null","1","","","","","","","","","","","","","","","",""
"","time_out","","html-keyboard-response","19","72561","0.0-1.0-17.0-0.0","0","0","84700","","null","","","null","1","","","","","","","","","","","","","","","",""
"","ITI","","html-keyboard-response","20","73562","0.0-1.0-18.0","0","0","84700","","null","","","null","1","","","","","","","","","","","","","","","NaN",""
"","S1","","html-keyboard-response","21","73713","0.0-1.0-20.0","0","0","84700","","null","","","null","2","","","","","","","","","","","","","","","",""
"","ISI","","html-keyboard-response","22","75715","0.0-1.0-21.0","0","0","84700","","null","","","null","2","NaN","","","","","","","","","","","","","","",""
"","S2","","html-keyboard-response","23","75866","0.0-1.0-22.0","0","0","84700","","null","","","null","2","","NaN","","","","","","","","","","","","","",""
"","response","","html-keyboard-response","24","76293","0.0-1.0-23.0-0.0","0","0","84700","","426","","","75","2","","","1","2","training","adjacent","EF","5","6","N.jpg","L.jpg","0","1","0","",""
"","feedback","","html-keyboard-response","25","77294","0.0-1.0-24.0-0.0","0","0","84700","","null","","","null","2","","","","","","","","","","","","","","","",""
"","time_out","","html-keyboard-response","26","79295","0.0-1.0-26.0-0.0","0","0","84700","","null","","","null","2","","","","","","","","","","","","","","","",""
"","ITI","","html-keyboard-response","27","80298","0.0-1.0-27.0","0","0","84700","","null","","","null","2","","","","","","","","","","","","","","","NaN",""
"","S1","","html-keyboard-response","28","80449","0.0-1.0-29.0","0","0","84700","","null","","","null","3","","","","","","","","","","","","","","","",""
"","ISI","","html-keyboard-response","29","82451","0.0-1.0-30.0","0","0","84700","","null","","","null","3","NaN","","","","","","","","","","","","","","",""
"","S2","","html-keyboard-response","30","82601","0.0-1.0-31.0","0","0","84700","","null","","","null","3","","NaN","","","","","","","","","","","","","",""
"","response","","html-keyboard-response","31","83528","0.0-1.0-32.0-0.0","0","0","84700","","927","","","75","3","","","1","3","training","adjacent","FG","6","7","L.jpg","Q.jpg","0","1","0","",""
"","feedback","","html-keyboard-response","32","84530","0.0-1.0-33.0-0.0","0","0","84700","","null","","","null","3","","","","","","","","","","","","","","","",""
"","time_out","","html-keyboard-response","33","86532","0.0-1.0-35.0-0.0","0","0","84700","","null","","","null","3","","","","","","","","","","","","","","","",""
"","ITI","","html-keyboard-response","34","87534","0.0-1.0-36.0","0","0","84700","","null","","","null","3","","","","","","","","","","","","","","","NaN",""
"","S1","","html-keyboard-response","35","87685","0.0-1.0-38.0","0","0","84700","","null","","","null","4","","","","","","","","","","","","","","","",""
"","ISI","","html-keyboard-response","36","89686","0.0-1.0-39.0","0","0","84700","","null","","","null","4","NaN","","","","","","","","","","","","","","",""
"","S2","","html-keyboard-response","37","89837","0.0-1.0-40.0","0","0","84700","","null","","","null","4","","NaN","","","","","","","","","","","","","",""
"","response","","html-keyboard-response","38","90347","0.0-1.0-41.0-0.0","0","0","84700","","510","","","75","4","","","1","4","training","adjacent","DC","4","3","O.jpg","P.jpg","0","0","1","",""
"","feedback","","html-keyboard-response","39","91350","0.0-1.0-42.0-0.0","0","0","84700","","null","","","null","4","","","","","","","","","","","","","","","",""
"","ITI","","html-keyboard-response","40","92351","0.0-1.0-45.0","0","0","84700","","null","","","null","4","","","","","","","","","","","","","","","NaN",""
"","S1","","html-keyboard-response","41","92502","0.0-1.0-47.0","0","0","84700","","null","","","null","5","","","","","","","","","","","","","","","",""
"","ISI","","html-keyboard-response","42","94503","0.0-1.0-48.0","0","0","84700","","null","","","null","5","NaN","","","","","","","","","","","","","","",""
"","S2","","html-keyboard-response","43","94653","0.0-1.0-49.0","0","0","84700","","null","","","null","5","","NaN","","","","","","","","","","","","","",""
"","response","","html-keyboard-response","44","95647","0.0-1.0-50.0-0.0","0","0","84700","","993","","","75","5","","","1","5","training","adjacent","EF","5","6","N.jpg","L.jpg","0","1","0","",""
"","feedback","","html-keyboard-response","45","96649","0.0-1.0-51.0-0.0","0","0","84700","","null","","","null","5","","","","","","","","","","","","","","","",""
"","time_out","","html-keyboard-response","46","98650","0.0-1.0-53.0-0.0","0","0","84700","","null","","","null","5","","","","","","","","","","","","","","","",""
"","ITI","","html-keyboard-response","47","99652","0.0-1.0-54.0","0","0","84700","","null","","","null","5","","","","","","","","","","","","","","","NaN",""
"","S1","","html-keyboard-response","48","99802","0.0-1.0-56.0","0","0","84700","","null","","","null","6","","","","","","","","","","","","","","","",""
"","ISI","","html-keyboard-response","49","101803","0.0-1.0-57.0","0","0","84700","","null","","","null","6","NaN","","","","","","","","","","","","","","",""
"","S2","","html-keyboard-response","50","101954","0.0-1.0-58.0","0","0","84700","","null","","","null","6","","NaN","","","","","","","","","","","","","",""
"","response","","html-keyboard-response","51","102555","0.0-1.0-59.0-0.0","0","0","84700","","599","","","75","6","","","1","6","training","adjacent","BA","2","1","R.jpg","M.jpg","0","0","1","",""
"","feedback","","html-keyboard-response","52","103557","0.0-1.0-60.0-0.0","0","0","84700","","null","","","null","6","","","","","","","","","","","","","","","",""
"","ITI","","html-keyboard-response","53","104558","0.0-1.0-63.0","0","0","84700","","null","","","null","6","","","","","","","","","","","","","","","NaN",""
"","S1","","html-keyboard-response","54","104709","0.0-1.0-65.0","0","0","84700","","null","","","null","7","","","","","","","","","","","","","","","",""
"","ISI","","html-keyboard-response","55","106710","0.0-1.0-66.0","0","0","84700","","null","","","null","7","NaN","","","","","","","","","","","","","","",""
"","S2","","html-keyboard-response","56","106861","0.0-1.0-67.0","0","0","84700","","null","","","null","7","","NaN","","","","","","","","","","","","","",""
"","response","","html-keyboard-response","57","107814","0.0-1.0-68.0-0.0","0","0","84700","","953","","","75","7","","","1","7","training","adjacent","CB","3","2","P.jpg","R.jpg","0","0","1","",""
"","feedback","","html-keyboard-response","58","108816","0.0-1.0-69.0-0.0","0","0","84700","","null","","","null","7","","","","","","","","","","","","","","","",""
"","ITI","","html-keyboard-response","59","109818","0.0-1.0-72.0","0","0","84700","","null","","","null","7","","","","","","","","","","","","","","","NaN",""
"","S1","","html-keyboard-response","60","109969","0.0-1.0-74.0","0","0","84700","","null","","","null","8","","","","","","","","","","","","","","","",""
"","ISI","","html-keyboard-response","61","111970","0.0-1.0-75.0","0","0","84700","","null","","","null","8","NaN","","","","","","","","","","","","","","",""
"","S2","","html-keyboard-response","62","112121","0.0-1.0-76.0","0","0","84700","","null","","","null","8","","NaN","","","","","","","","","","","","","",""
"","response","","html-keyboard-response","63","112646","0.0-1.0-77.0-0.0","0","0","84700","","524","","","75","8","","","1","8","training","adjacent","CD","3","4","P.jpg","O.jpg","0","1","0","",""
"","feedback","","html-keyboard-response","64","113647","0.0-1.0-78.0-0.0","0","0","84700","","null","","","null","8","","","","","","","","","","","","","","","",""
"","time_out","","html-keyboard-response","65","115648","0.0-1.0-80.0-0.0","0","0","84700","","null","","","null","8","","","","","","","","","","","","","","","",""
"","ITI","","html-keyboard-response","66","116649","0.0-1.0-81.0","0","0","84700","","null","","","null","8","","","","","","","","","","","","","","","NaN",""
"","S1","","html-keyboard-response","67","116800","0.0-1.0-83.0","0","0","84700","","null","","","null","9","","","","","","","","","","","","","","","",""
"","ISI","","html-keyboard-response","68","118800","0.0-1.0-84.0","0","0","84700","","null","","","null","9","NaN","","","","","","","","","","","","","","",""
"","S2","","html-keyboard-response","69","118951","0.0-1.0-85.0","0","0","84700","","null","","","null","9","","NaN","","","","","","","","","","","","","",""
"","response","","html-keyboard-response","70","119549","0.0-1.0-86.0-0.0","0","0","84700","","597","","","75","9","","","1","9","training","adjacent","CD","3","4","P.jpg","O.jpg","0","1","0","",""
"","feedback","","html-keyboard-response","71","120551","0.0-1.0-87.0-0.0","0","0","84700","","null","","","null","9","","","","","","","","","","","","","","","",""
"","time_out","","html-keyboard-response","72","122552","0.0-1.0-89.0-0.0","0","0","84700","","null","","","null","9","","","","","","","","","","","","","","","",""
"","ITI","","html-keyboard-response","73","123553","0.0-1.0-90.0","0","0","84700","","null","","","null","9","","","","","","","","","","","","","","","NaN",""
"","S1","","html-keyboard-response","74","123706","0.0-1.0-92.0","0","0","84700","","null","","","null","10","","","","","","","","","","","","","","","",""
"","ISI","","html-keyboard-response","75","125707","0.0-1.0-93.0","0","0","84700","","null","","","null","10","NaN","","","","","","","","","","","","","","",""
"","S2","","html-keyboard-response","76","125858","0.0-1.0-94.0","0","0","84700","","null","","","null","10","","NaN","","","","","","","","","","","","","",""
"","response","","html-keyboard-response","77","126229","0.0-1.0-95.0-0.0","0","0","84700","","369","","","68","10","","","1","10","training","adjacent","ED","5","4","N.jpg","O.jpg","1","0","0","",""
"","feedback","","html-keyboard-response","78","127231","0.0-1.0-96.0-0.0","0","0","84700","","null","","","null","10","","","","","","","","","","","","","","","",""
"","time_out","","html-keyboard-response","79","129232","0.0-1.0-98.0-0.0","0","0","84700","","null","","","null","10","","","","","","","","","","","","","","","",""
"","ITI","","html-keyboard-response","80","130234","0.0-1.0-99.0","0","0","84700","","null","","","null","10","","","","","","","","","","","","","","","NaN",""
"","S1","","html-keyboard-response","81","130384","0.0-1.0-101.0","0","0","84700","","null","","","null","11","","","","","","","","","","","","","","","",""
"","ISI","","html-keyboard-response","82","132386","0.0-1.0-102.0","0","0","84700","","null","","","null","11","NaN","","","","","","","","","","","","","","",""
"","S2","","html-keyboard-response","83","132536","0.0-1.0-103.0","0","0","84700","","null","","","null","11","","NaN","","","","","","","","","","","","","",""
"","response","","html-keyboard-response","84","133516","0.0-1.0-104.0-0.0","0","0","84700","","978","","","68","11","","","1","11","training","adjacent","DC","4","3","O.jpg","P.jpg","1","0","0","",""
"","feedback","","html-keyboard-response","85","134517","0.0-1.0-105.0-0.0","0","0","84700","","null","","","null","11","","","","","","","","","","","","","","","",""
"","time_out","","html-keyboard-response","86","136518","0.0-1.0-107.0-0.0","0","0","84700","","null","","","null","11","","","","","","","","","","","","","","","",""
"","ITI","","html-keyboard-response","87","137519","0.0-1.0-108.0","0","0","84700","","null","","","null","11","","","","","","","","","","","","","","","NaN",""
"","S1","","html-keyboard-response","88","137670","0.0-1.0-110.0","0","0","84700","","null","","","null","12","","","","","","","","","","","","","","","",""
"","ISI","","html-keyboard-response","89","139671","0.0-1.0-111.0","0","0","84700","","null","","","null","12","NaN","","","","","","","","","","","","","","",""
"","S2","","html-keyboard-response","90","139822","0.0-1.0-112.0","0","0","84700","","null","","","null","12","","NaN","","","","","","","","","","","","","",""
"","response","","html-keyboard-response","91","140319","0.0-1.0-113.0-0.0","0","0","84700","","496","","","75","12","","","1","12","training","adjacent","FE","6","5","L.jpg","N.jpg","0","0","1","",""
"","feedback","","html-keyboard-response","92","141320","0.0-1.0-114.0-0.0","0","0","84700","","null","","","null","12","","","","","","","","","","","","","","","",""
"","ITI","","html-keyboard-response","93","142323","0.0-1.0-117.0","0","0","84700","","null","","","null","12","","","","","","","","","","","","","","","NaN",""
"","S1","","html-keyboard-response","94","142473","0.0-1.0-119.0","0","0","84700","","null","","","null","13","","","","","","","","","","","","","","","",""
"","ISI","","html-keyboard-response","95","144474","0.0-1.0-120.0","0","0","84700","","null","","","null","13","NaN","","","","","","","","","","","","","","",""
"","S2","","html-keyboard-response","96","144624","0.0-1.0-121.0","0","0","84700","","null","","","null","13","","NaN","","","","","","","","","","","","","",""
"","response","","html-keyboard-response","97","145279","0.0-1.0-122.0-0.0","0","0","84700","","654","","","75","13","","","1","13","training","adjacent","DE","4","5","O.jpg","N.jpg","0","1","0","",""
"","feedback","","html-keyboard-response","98","146280","0.0-1.0-123.0-0.0","0","0","84700","","null","","","null","13","","","","","","","","","","","","","","","",""
"","time_out","","html-keyboard-response","99","148281","0.0-1.0-125.0-0.0","0","0","84700","","null","","","null","13","","","","","","","","","","","","","","","",""
"","ITI","","html-keyboard-response","100","149283","0.0-1.0-126.0","0","0","84700","","null","","","null","13","","","","","","","","","","","","","","","NaN",""
"","S1","","html-keyboard-response","101","149434","0.0-1.0-128.0","0","0","84700","","null","","","null","14","","","","","","","","","","","","","","","",""
"","ISI","","html-keyboard-response","102","151435","0.0-1.0-129.0","0","0","84700","","null","","","null","14","NaN","","","","","","","","","","","","","","",""
"","S2","","html-keyboard-response","103","151586","0.0-1.0-130.0","0","0","84700","","null","","","null","14","","NaN","","","","","","","","","","","","","",""
"","response","","html-keyboard-response","104","152362","0.0-1.0-131.0-0.0","0","0","84700","","775","","","75","14","","","1","14","training","adjacent","BC","2","3","R.jpg","P.jpg","0","1","0","",""
"","feedback","","html-keyboard-response","105","153363","0.0-1.0-132.0-0.0","0","0","84700","","null","","","null","14","","","","","","","","","","","","","","","",""
"","time_out","","html-keyboard-response","106","155365","0.0-1.0-134.0-0.0","0","0","84700","","null","","","null","14","","","","","","","","","","","","","","","",""
"","ITI","","html-keyboard-response","107","156366","0.0-1.0-135.0","0","0","84700","","null","","","null","14","","","","","","","","","","","","","","","NaN",""
"","S1","","html-keyboard-response","108","156517","0.0-1.0-137.0","0","0","84700","","null","","","null","15","","","","","","","","","","","","","","","",""
"","ISI","","html-keyboard-response","109","158518","0.0-1.0-138.0","0","0","84700","","null","","","null","15","NaN","","","","","","","","","","","","","","",""
"","S2","","html-keyboard-response","110","158668","0.0-1.0-139.0","0","0","84700","","null","","","null","15","","NaN","","","","","","","","","","","","","",""
"","response","","html-keyboard-response","111","159286","0.0-1.0-140.0-0.0","0","0","84700","","617","","","68","15","","","1","15","training","adjacent","DC","4","3","O.jpg","P.jpg","1","0","0","",""
"","feedback","","html-keyboard-response","112","160288","0.0-1.0-141.0-0.0","0","0","84700","","null","","","null","15","","","","","","","","","","","","","","","",""
"","time_out","","html-keyboard-response","113","162290","0.0-1.0-143.0-0.0","0","0","84700","","null","","","null","15","","","","","","","","","","","","","","","",""
"","ITI","","html-keyboard-response","114","163291","0.0-1.0-144.0","0","0","84700","","null","","","null","15","","","","","","","","","","","","","","","NaN",""
"","S1","","html-keyboard-response","115","163442","0.0-1.0-146.0","0","0","84700","","null","","","null","16","","","","","","","","","","","","","","","",""
"","ISI","","html-keyboard-response","116","165443","0.0-1.0-147.0","0","0","84700","","null","","","null","16","NaN","","","","","","","","","","","","","","",""
"","S2","","html-keyboard-response","117","165593","0.0-1.0-148.0","0","0","84700","","null","","","null","16","","NaN","","","","","","","","","","","","","",""
"","response","","html-keyboard-response","118","165906","0.0-1.0-149.0-0.0","0","0","84700","","311","","","75","16","","","1","16","training","adjacent","AB","1","2","M.jpg","R.jpg","0","1","0","",""
"","feedback","","html-keyboard-response","119","166907","0.0-1.0-150.0-0.0","0","0","84700","","null","","","null","16","","","","","","","","","","","","","","","",""
"","time_out","","html-keyboard-response","120","168908","0.0-1.0-152.0-0.0","0","0","84700","","null","","","null","16","","","","","","","","","","","","","","","",""
"","ITI","","html-keyboard-response","121","169909","0.0-1.0-153.0","0","0","84700","","null","","","null","16","","","","","","","","","","","","","","","NaN",""
"","S1","","html-keyboard-response","122","170060","0.0-1.0-155.0","0","0","84700","","null","","","null","17","","","","","","","","","","","","","","","",""
"","ISI","","html-keyboard-response","123","172061","0.0-1.0-156.0","0","0","84700","","null","","","null","17","NaN","","","","","","","","","","","","","","",""
"","S2","","html-keyboard-response","124","172212","0.0-1.0-157.0","0","0","84700","","null","","","null","17","","NaN","","","","","","","","","","","","","",""
"","response","","html-keyboard-response","125","172516","0.0-1.0-158.0-0.0","0","0","84700","","303","","","75","17","","","1","17","training","adjacent","DE","4","5","O.jpg","N.jpg","0","1","0","",""
"","feedback","","html-keyboard-response","126","173518","0.0-1.0-159.0-0.0","0","0","84700","","null","","","null","17","","","","","","","","","","","","","","","",""
"","time_out","","html-keyboard-response","127","175519","0.0-1.0-161.0-0.0","0","0","84700","","null","","","null","17","","","","","","","","","","","","","","","",""
"","ITI","","html-keyboard-response","128","176520","0.0-1.0-162.0","0","0","84700","","null","","","null","17","","","","","","","","","","","","","","","NaN",""
"","S1","","html-keyboard-response","129","176671","0.0-1.0-164.0","0","0","84700","","null","","","null","18","","","","","","","","","","","","","","","",""
"","ISI","","html-keyboard-response","130","178672","0.0-1.0-165.0","0","0","84700","","null","","","null","18","NaN","","","","","","","","","","","","","","",""
"","S2","","html-keyboard-response","131","178823","0.0-1.0-166.0","0","0","84700","","null","","","null","18","","NaN","","","","","","","","","","","","","",""
"","response","","html-keyboard-response","132","178971","0.0-1.0-167.0-0.0","0","0","84700","","147","","","75","18","","","1","18","training","adjacent","FG","6","7","L.jpg","Q.jpg","0","1","0","",""
"","feedback","","html-keyboard-response","133","179973","0.0-1.0-168.0-0.0","0","0","84700","","null","","","null","18","","","","","","","","","","","","","","","",""
"","time_out","","html-keyboard-response","134","181973","0.0-1.0-170.0-0.0","0","0","84700","","null","","","null","18","","","","","","","","","","","","","","","",""
"","ITI","","html-keyboard-response","135","182975","0.0-1.0-171.0","0","0","84700","","null","","","null","18","","","","","","","","","","","","","","","NaN",""
"","S1","","html-keyboard-response","136","183126","0.0-1.0-173.0","0","0","84700","","null","","","null","19","","","","","","","","","","","","","","","",""
"","ISI","","html-keyboard-response","137","185127","0.0-1.0-174.0","0","0","84700","","693","","","68","19","d","","","","","","","","","","","","","","",""
"","S2","","html-keyboard-response","138","185203","0.0-1.0-175.0","0","0","84700","","76","","","68","19","","d","1","19","training","adjacent","GF","7","6","Q.jpg","L.jpg","1","0","0","",""
"","feedback","","html-keyboard-response","139","186204","0.0-1.0-177.0-0.0","0","0","84700","","null","","","null","19","","","","","","","","","","","","","","","",""
"","time_out","","html-keyboard-response","140","188206","0.0-1.0-179.0-0.0","0","0","84700","","null","","","null","19","","","","","","","","","","","","","","","",""
"","ITI","","html-keyboard-response","141","189208","0.0-1.0-180.0","0","0","84700","","null","","","null","19","","","","","","","","","","","","","","","NaN",""
"","S1","","html-keyboard-response","142","189360","0.0-1.0-182.0","0","0","84700","","null","","","null","20","","","","","","","","","","","","","","","",""
"","ISI","","html-keyboard-response","143","191361","0.0-1.0-183.0","0","0","84700","","null","","","null","20","NaN","","","","","","","","","","","","","","",""
"","S2","","html-keyboard-response","144","191512","0.0-1.0-184.0","0","0","84700","","null","","","null","20","","NaN","","","","","","","","","","","","","",""
"","response","","html-keyboard-response","145","192079","0.0-1.0-185.0-0.0","0","0","84700","","565","","","75","20","","","1","20","training","adjacent","BA","2","1","R.jpg","M.jpg","0","0","1","",""
"","feedback","","html-keyboard-response","146","193080","0.0-1.0-186.0-0.0","0","0","84700","","null","","","null","20","","","","","","","","","","","","","","","",""
"","ITI","","html-keyboard-response","147","194082","0.0-1.0-189.0","0","0","84700","","null","","","null","20","","","","","","","","","","","","","","","NaN",""
"","S1","","html-keyboard-response","148","194232","0.0-1.0-191.0","0","0","84700","","null","","","null","21","","","","","","","","","","","","","","","",""
"","ISI","","html-keyboard-response","149","196234","0.0-1.0-192.0","0","0","84700","","null","","","null","21","NaN","","","","","","","","","","","","","","",""
"","S2","","html-keyboard-response","150","196385","0.0-1.0-193.0","0","0","84700","","null","","","null","21","","NaN","","","","","","","","","","","","","",""
"","response","","html-keyboard-response","151","197326","0.0-1.0-194.0-0.0","0","0","84700","","940","","","68","21","","","1","21","training","adjacent","DC","4","3","O.jpg","P.jpg","1","0","0","",""
"","feedback","","html-keyboard-response","152","198327","0.0-1.0-195.0-0.0","0","0","84700","","null","","","null","21","","","","","","","","","","","","","","","",""
"","time_out","","html-keyboard-response","153","200330","0.0-1.0-197.0-0.0","0","0","84700","","null","","","null","21","","","","","","","","","","","","","","","",""
"","ITI","","html-keyboard-response","154","201331","0.0-1.0-198.0","0","0","84700","","null","","","null","21","","","","","","","","","","","","","","","NaN",""
"","S1","","html-keyboard-response","155","201482","0.0-1.0-200.0","0","0","84700","","null","","","null","22","","","","","","","","","","","","","","","",""
"","ISI","","html-keyboard-response","156","203483","0.0-1.0-201.0","0","0","84700","","null","","","null","22","NaN","","","","","","","","","","","","","","",""
"","S2","","html-keyboard-response","157","203633","0.0-1.0-202.0","0","0","84700","","null","","","null","22","","NaN","","","","","","","","","","","","","",""
"","response","","html-keyboard-response","158","204378","0.0-1.0-203.0-0.0","0","0","84700","","743","","","68","22","","","1","22","training","adjacent","FE","6","5","L.jpg","N.jpg","1","0","0","",""
"","feedback","","html-keyboard-response","159","205379","0.0-1.0-204.0-0.0","0","0","84700","","null","","","null","22","","","","","","","","","","","","","","","",""
"","time_out","","html-keyboard-response","160","207380","0.0-1.0-206.0-0.0","0","0","84700","","null","","","null","22","","","","","","","","","","","","","","","",""
"","ITI","","html-keyboard-response","161","208382","0.0-1.0-207.0","0","0","84700","","null","","","null","22","","","","","","","","","","","","","","","NaN",""
"","S1","","html-keyboard-response","162","208533","0.0-1.0-209.0","0","0","84700","","null","","","null","23","","","","","","","","","","","","","","","",""
"","ISI","","html-keyboard-response","163","210533","0.0-1.0-210.0","0","0","84700","","null","","","null","23","NaN","","","","","","","","","","","","","","",""
"","S2","","html-keyboard-response","164","210684","0.0-1.0-211.0","0","0","84700","","null","","","null","23","","NaN","","","","","","","","","","","","","",""
"","response","","html-keyboard-response","165","211324","0.0-1.0-212.0-0.0","0","0","84700","","639","","","75","23","","","1","23","training","adjacent","BC","2","3","R.jpg","P.jpg","0","1","0","",""
"","feedback","","html-keyboard-response","166","212326","0.0-1.0-213.0-0.0","0","0","84700","","null","","","null","23","","","","","","","","","","","","","","","",""
"","time_out","","html-keyboard-response","167","214328","0.0-1.0-215.0-0.0","0","0","84700","","null","","","null","23","","","","","","","","","","","","","","","",""
"","ITI","","html-keyboard-response","168","215329","0.0-1.0-216.0","0","0","84700","","null","","","null","23","","","","","","","","","","","","","","","NaN",""
"","S1","","html-keyboard-response","169","215479","0.0-1.0-218.0","0","0","84700","","null","","","null","24","","","","","","","","","","","","","","","",""
"","ISI","","html-keyboard-response","170","217481","0.0-1.0-219.0","0","0","84700","","null","","","null","24","NaN","","","","","","","","","","","","","","",""
"","S2","","html-keyboard-response","171","217496","0.0-1.0-220.0","0","0","84700","","14","","","68","24","","d","1","24","training","adjacent","FE","6","5","L.jpg","N.jpg","1","0","0","",""
"","feedback","","html-keyboard-response","172","218497","0.0-1.0-222.0-0.0","0","0","84700","","null","","","null","24","","","","","","","","","","","","","","","",""
"","time_out","","html-keyboard-response","173","220497","0.0-1.0-224.0-0.0","0","0","84700","","null","","","null","24","","","","","","","","","","","","","","","",""
"","ITI","","html-keyboard-response","174","221499","0.0-1.0-225.0","0","0","84700","","null","","","null","24","","","","","","","","","","","","","","","NaN",""
"","S1","","html-keyboard-response","175","221650","0.0-1.0-227.0","0","0","84700","","null","","","null","25","","","","","","","","","","","","","","","",""
"","ISI","","html-keyboard-response","176","223650","0.0-1.0-228.0","0","0","84700","","null","","","null","25","NaN","","","","","","","","","","","","","","",""
"","S2","","html-keyboard-response","177","223801","0.0-1.0-229.0","0","0","84700","","null","","","null","25","","NaN","","","","","","","","","","","","","",""
"","response","","html-keyboard-response","178","224736","0.0-1.0-230.0-0.0","0","0","84700","","934","","","75","25","","","1","25","training","adjacent","CD","3","4","P.jpg","O.jpg","0","1","0","",""
"","feedback","","html-keyboard-response","179","225738","0.0-1.0-231.0-0.0","0","0","84700","","null","","","null","25","","","","","","","","","","","","","","","",""
"","time_out","","html-keyboard-response","180","227738","0.0-1.0-233.0-0.0","0","0","84700","","null","","","null","25","","","","","","","","","","","","","","","",""
"","ITI","","html-keyboard-response","181","228740","0.0-1.0-234.0","0","0","84700","","null","","","null","25","","","","","","","","","","","","","","","NaN",""
"","S1","","html-keyboard-response","182","228891","0.0-1.0-236.0","0","0","84700","","null","","","null","26","","","","","","","","","","","","","","","",""
"","ISI","","html-keyboard-response","183","230892","0.0-1.0-237.0","0","0","84700","","null","","","null","26","NaN","","","","","","","","","","","","","","",""
"","S2","","html-keyboard-response","184","231043","0.0-1.0-238.0","0","0","84700","","null","","","null","26","","NaN","","","","","","","","","","","","","",""
"","response","","html-keyboard-response","185","232895","0.0-1.0-239.0-0.0","0","0","84700","","null","","","null","26","","","1","26","training","adjacent","AB","1","2","M.jpg","R.jpg","NaN","1","0","",""
"","too_slow_prompt","","html-keyboard-response","186","233895","0.0-1.0-241.0-0.0","1","0","84700","","null","","","null","","","","","","","","","","","","","","","","",""
"","time_out","","html-keyboard-response","187","235897","0.0-1.0-242.0-0.0","0","0","84700","","null","","","null","26","","","","","","","","","","","","","","","",""
"","ITI","","html-keyboard-response","188","236899","0.0-1.0-243.0","0","0","84700","","null","","","null","26","","","","","","","","","","","","","","","NaN",""
"","S1","","html-keyboard-response","189","237049","0.0-1.0-245.0","0","0","84700","","null","","","null","27","","","","","","","","","","","","","","","",""
"","ISI","","html-keyboard-response","190","239051","0.0-1.0-246.0","0","0","84700","","null","","","null","27","NaN","","","","","","","","","","","","","","",""
"","S2","","html-keyboard-response","191","239201","0.0-1.0-247.0","0","0","84700","","null","","","null","27","","NaN","","","","","","","","","","","","","",""
"","response","","html-keyboard-response","192","241053","0.0-1.0-248.0-0.0","0","0","84700","","null","","","null","27","","","1","27","training","adjacent","FG","6","7","L.jpg","Q.jpg","NaN","1","0","",""
"","too_slow_prompt","","html-keyboard-response","193","242053","0.0-1.0-250.0-0.0","1","0","84700","","null","","","null","","","","","","","","","","","","","","","","",""
"","time_out","","html-keyboard-response","194","244055","0.0-1.0-251.0-0.0","0","0","84700","","null","","","null","27","","","","","","","","","","","","","","","",""
"","ITI","","html-keyboard-response","195","245056","0.0-1.0-252.0","0","0","84700","","null","","","null","27","","","","","","","","","","","","","","","NaN",""
"","S1","","html-keyboard-response","196","245207","0.0-1.0-254.0","0","0","84700","","null","","","null","28","","","","","","","","","","","","","","","",""
"","ISI","","html-keyboard-response","197","247208","0.0-1.0-255.0","0","0","84700","","null","","","null","28","NaN","","","","","","","","","","","","","","",""
"","S2","","html-keyboard-response","198","247360","0.0-1.0-256.0","0","0","84700","","null","","","null","28","","NaN","","","","","","","","","","","","","",""
"","response","","html-keyboard-response","199","249210","0.0-1.0-257.0-0.0","0","0","84700","","null","","","null","28","","","1","28","training","adjacent","BC","2","3","R.jpg","P.jpg","NaN","1","0","",""
"","too_slow_prompt","","html-keyboard-response","200","250212","0.0-1.0-259.0-0.0","1","0","84700","","null","","","null","","","","","","","","","","","","","","","","",""
"","time_out","","html-keyboard-response","201","252214","0.0-1.0-260.0-0.0","0","0","84700","","null","","","null","28","","","","","","","","","","","","","","","",""
"","ITI","","html-keyboard-response","202","253216","0.0-1.0-261.0","0","0","84700","","null","","","null","28","","","","","","","","","","","","","","","NaN",""
"","S1","","html-keyboard-response","203","253368","0.0-1.0-263.0","0","0","84700","","null","","","null","29","","","","","","","","","","","","","","","",""
"","ISI","","html-keyboard-response","204","255370","0.0-1.0-264.0","0","0","84700","","null","","","null","29","NaN","","","","","","","","","","","","","","",""
"","S2","","html-keyboard-response","205","255521","0.0-1.0-265.0","0","0","84700","","null","","","null","29","","NaN","","","","","","","","","","","","","",""
"","response","","html-keyboard-response","206","257373","0.0-1.0-266.0-0.0","0","0","84700","","null","","","null","29","","","1","29","training","adjacent","ED","5","4","N.jpg","O.jpg","NaN","0","0","",""
"","too_slow_prompt","","html-keyboard-response","207","258374","0.0-1.0-268.0-0.0","1","0","84700","","null","","","null","","","","","","","","","","","","","","","","",""
"","time_out","","html-keyboard-response","208","260377","0.0-1.0-269.0-0.0","0","0","84700","","null","","","null","29","","","","","","","","","","","","","","","",""
"","ITI","","html-keyboard-response","209","261378","0.0-1.0-270.0","0","0","84700","","null","","","null","29","","","","","","","","","","","","","","","NaN",""
"","S1","","html-keyboard-response","210","261529","0.0-1.0-272.0","0","0","84700","","null","","","null","30","","","","","","","","","","","","","","","",""
"","ISI","","html-keyboard-response","211","263529","0.0-1.0-273.0","0","0","84700","","null","","","null","30","NaN","","","","","","","","","","","","","","",""
"","S2","","html-keyboard-response","212","263681","0.0-1.0-274.0","0","0","84700","","null","","","null","30","","NaN","","","","","","","","","","","","","",""
"","response","","html-keyboard-response","213","264049","0.0-1.0-275.0-0.0","0","0","84700","","367","","","75","30","","","1","30","training","adjacent","EF","5","6","N.jpg","L.jpg","0","1","0","",""
"","feedback","","html-keyboard-response","214","265050","0.0-1.0-276.0-0.0","0","0","84700","","null","","","null","30","","","","","","","","","","","","","","","",""
"","time_out","","html-keyboard-response","215","267051","0.0-1.0-278.0-0.0","0","0","84700","","null","","","null","30","","","","","","","","","","","","","","","",""
"","ITI","","html-keyboard-response","216","268053","0.0-1.0-279.0","0","0","84700","","null","","","null","30","","","","","","","","","","","","","","","NaN",""
"","S1","","html-keyboard-response","217","268203","0.0-1.0-281.0","0","0","84700","","null","","","null","31","","","","","","","","","","","","","","","",""
"","ISI","","html-keyboard-response","218","270204","0.0-1.0-282.0","0","0","84700","","null","","","null","31","NaN","","","","","","","","","","","","","","",""
"","S2","","html-keyboard-response","219","270355","0.0-1.0-283.0","0","0","84700","","null","","","null","31","","NaN","","","","","","","","","","","","","",""
"","response","","html-keyboard-response","220","272206","0.0-1.0-284.0-0.0","0","0","84700","","null","","","null","31","","","1","31","training","adjacent","GF","7","6","Q.jpg","L.jpg","NaN","0","0","",""
"","too_slow_prompt","","html-keyboard-response","221","273208","0.0-1.0-286.0-0.0","1","0","84700","","null","","","null","","","","","","","","","","","","","","","","",""
"","time_out","","html-keyboard-response","222","275210","0.0-1.0-287.0-0.0","0","0","84700","","null","","","null","31","","","","","","","","","","","","","","","",""
"","ITI","","html-keyboard-response","223","276211","0.0-1.0-288.0","0","0","84700","","null","","","null","31","","","","","","","","","","","","","","","NaN",""
"","S1","","html-keyboard-response","224","276362","0.0-1.0-290.0","0","0","84700","","null","","","null","32","","","","","","","","","","","","","","","",""
"","ISI","","html-keyboard-response","225","278363","0.0-1.0-291.0","0","0","84700","","null","","","null","32","NaN","","","","","","","","","","","","","","",""
"","S2","","html-keyboard-response","226","278514","0.0-1.0-292.0","0","0","84700","","null","","","null","32","","NaN","","","","","","","","","","","","","",""
"","response","","html-keyboard-response","227","278731","0.0-1.0-293.0-0.0","0","0","84700","","216","","","75","32","","","1","32","training","adjacent","ED","5","4","N.jpg","O.jpg","0","0","1","",""
"","feedback","","html-keyboard-response","228","279732","0.0-1.0-294.0-0.0","0","0","84700","","null","","","null","32","","","","","","","","","","","","","","","",""
"","ITI","","html-keyboard-response","229","280733","0.0-1.0-297.0","0","0","84700","","null","","","null","32","","","","","","","","","","","","","","","NaN",""
"","S1","","html-keyboard-response","230","280884","0.0-1.0-299.0","0","0","84700","","null","","","null","33","","","","","","","","","","","","","","","",""
"","ISI","","html-keyboard-response","231","282886","0.0-1.0-300.0","0","0","84700","","null","","","null","33","NaN","","","","","","","","","","","","","","",""
"","S2","","html-keyboard-response","232","283037","0.0-1.0-301.0","0","0","84700","","null","","","null","33","","NaN","","","","","","","","","","","","","",""
"","response","","html-keyboard-response","233","284223","0.0-1.0-302.0-0.0","0","0","84700","","1185","","","75","33","","","1","33","training","adjacent","GF","7","6","Q.jpg","L.jpg","0","0","1","",""
"","feedback","","html-keyboard-response","234","285224","0.0-1.0-303.0-0.0","0","0","84700","","null","","","null","33","","","","","","","","","","","","","","","",""
"","ITI","","html-keyboard-response","235","286225","0.0-1.0-306.0","0","0","84700","","null","","","null","33","","","","","","","","","","","","","","","NaN",""
"","S1","","html-keyboard-response","236","286376","0.0-1.0-308.0","0","0","84700","","null","","","null","34","","","","","","","","","","","","","","","",""
"","ISI","","html-keyboard-response","237","288377","0.0-1.0-309.0","0","0","84700","","null","","","null","34","NaN","","","","","","","","","","","","","","",""
"","S2","","html-keyboard-response","238","288528","0.0-1.0-310.0","0","0","84700","","null","","","null","34","","NaN","","","","","","","","","","","","","",""
"","response","","html-keyboard-response","239","290379","0.0-1.0-311.0-0.0","0","0","84700","","null","","","null","34","","","1","34","training","adjacent","BC","2","3","R.jpg","P.jpg","NaN","1","0","",""
"","too_slow_prompt","","html-keyboard-response","240","291381","0.0-1.0-313.0-0.0","1","0","84700","","null","","","null","","","","","","","","","","","","","","","","",""
"","time_out","","html-keyboard-response","241","293384","0.0-1.0-314.0-0.0","0","0","84700","","null","","","null","34","","","","","","","","","","","","","","","",""
"","ITI","","html-keyboard-response","242","294385","0.0-1.0-315.0","0","0","84700","","null","","","null","34","","","","","","","","","","","","","","","NaN",""
"","S1","","html-keyboard-response","243","294536","0.0-1.0-317.0","0","0","84700","","null","","","null","35","","","","","","","","","","","","","","","",""
"","ISI","","html-keyboard-response","244","296536","0.0-1.0-318.0","0","0","84700","","null","","","null","35","NaN","","","","","","","","","","","","","","",""
"","S2","","html-keyboard-response","245","296688","0.0-1.0-319.0","0","0","84700","","null","","","null","35","","NaN","","","","","","","","","","","","","",""
"","response","","html-keyboard-response","246","297221","0.0-1.0-320.0-0.0","0","0","84700","","532","","","68","35","","","1","35","training","adjacent","BA","2","1","R.jpg","M.jpg","1","0","0","",""
"","feedback","","html-keyboard-response","247","298222","0.0-1.0-321.0-0.0","0","0","84700","","null","","","null","35","","","","","","","","","","","","","","","",""
"","time_out","","html-keyboard-response","248","300224","0.0-1.0-323.0-0.0","0","0","84700","","null","","","null","35","","","","","","","","","","","","","","","",""
"","ITI","","html-keyboard-response","249","301224","0.0-1.0-324.0","0","0","84700","","null","","","null","35","","","","","","","","","","","","","","","NaN",""
"","S1","","html-keyboard-response","250","301376","0.0-1.0-326.0","0","0","84700","","null","","","null","36","","","","","","","","","","","","","","","",""
"","ISI","","html-keyboard-response","251","303376","0.0-1.0-327.0","0","0","84700","","null","","","null","36","NaN","","","","","","","","","","","","","","",""
"","S2","","html-keyboard-response","252","303527","0.0-1.0-328.0","0","0","84700","","null","","","null","36","","NaN","","","","","","","","","","","","","",""
"","response","","html-keyboard-response","253","303869","0.0-1.0-329.0-0.0","0","0","84700","","341","","","68","36","","","1","36","training","adjacent","CB","3","2","P.jpg","R.jpg","1","0","0","",""
"","feedback","","html-keyboard-response","254","304869","0.0-1.0-330.0-0.0","0","0","84700","","null","","","null","36","","","","","","","","","","","","","","","",""
"","time_out","","html-keyboard-response","255","306871","0.0-1.0-332.0-0.0","0","0","84700","","null","","","null","36","","","","","","","","","","","","","","","",""
"","ITI","","html-keyboard-response","256","307873","0.0-1.0-333.0","0","0","84700","","null","","","null","36","","","","","","","","","","","","","","","NaN",""
"","S1","","html-keyboard-response","257","308023","0.0-1.0-335.0","0","0","84700","","null","","","null","37","","","","","","","","","","","","","","","",""
"","ISI","","html-keyboard-response","258","310024","0.0-1.0-336.0","0","0","84700","","null","","","null","37","NaN","","","","","","","","","","","","","","",""
"","S2","","html-keyboard-response","259","310175","0.0-1.0-337.0","0","0","84700","","null","","","null","37","","NaN","","","","","","","","","","","","","",""
"","response","","html-keyboard-response","260","310995","0.0-1.0-338.0-0.0","0","0","84700","","819","","","68","37","","","1","37","training","adjacent","ED","5","4","N.jpg","O.jpg","1","0","0","",""
"","feedback","","html-keyboard-response","261","311997","0.0-1.0-339.0-0.0","0","0","84700","","null","","","null","37","","","","","","","","","","","","","","","",""
"","time_out","","html-keyboard-response","262","313998","0.0-1.0-341.0-0.0","0","0","84700","","null","","","null","37","","","","","","","","","","","","","","","",""
"","ITI","","html-keyboard-response","263","314999","0.0-1.0-342.0","0","0","84700","","60","","","75","37","","","","","","","","","","","","","","","k",""
"","S1","","html-keyboard-response","264","315151","0.0-1.0-344.0","0","0","84700","","null","","","null","38","","","","","","","","","","","","","","","",""
"","ISI","","html-keyboard-response","265","317153","0.0-1.0-345.0","0","0","84700","","35","","","68","38","d","","","","","","","","","","","","","","",""
"","S2","","html-keyboard-response","266","317305","0.0-1.0-346.0","0","0","84700","","null","","","null","38","","NaN","","","","","","","","","","","","","",""
"","response","","html-keyboard-response","267","317671","0.0-1.0-347.0-0.0","0","0","84700","","364","","","68","38","","","1","38","training","adjacent","AB","1","2","M.jpg","R.jpg","1","1","1","",""
"","feedback","","html-keyboard-response","268","318672","0.0-1.0-348.0-0.0","0","0","84700","","null","","","null","38","","","","","","","","","","","","","","","",""
"","ITI","","html-keyboard-response","269","319673","0.0-1.0-351.0","0","0","84700","","null","","","null","38","","","","","","","","","","","","","","","NaN",""
"","S1","","html-keyboard-response","270","319824","0.0-1.0-353.0","0","0","84700","","null","","","null","39","","","","","","","","","","","","","","","",""
"","ISI","","html-keyboard-response","271","321826","0.0-1.0-354.0","0","0","84700","","null","","","null","39","NaN","","","","","","","","","","","","","","",""
"","S2","","html-keyboard-response","272","321978","0.0-1.0-355.0","0","0","84700","","null","","","null","39","","NaN","","","","","","","","","","","","","",""
"","response","","html-keyboard-response","273","322362","0.0-1.0-356.0-0.0","0","0","84700","","384","","","68","39","","","1","39","training","adjacent","FG","6","7","L.jpg","Q.jpg","1","1","1","",""
"","feedback","","html-keyboard-response","274","323363","0.0-1.0-357.0-0.0","0","0","84700","","null","","","null","39","","","","","","","","","","","","","","","",""
"","ITI","","html-keyboard-response","275","324366","0.0-1.0-360.0","0","0","84700","","null","","","null","39","","","","","","","","","","","","","","","NaN",""
"","S1","","html-keyboard-response","276","324516","0.0-1.0-362.0","0","0","84700","","null","","","null","40","","","","","","","","","","","","","","","",""
"","ISI","","html-keyboard-response","277","326517","0.0-1.0-363.0","0","0","84700","","null","","","null","40","NaN","","","","","","","","","","","","","","",""
"","S2","","html-keyboard-response","278","326668","0.0-1.0-364.0","0","0","84700","","null","","","null","40","","NaN","","","","","","","","","","","","","",""
"","response","","html-keyboard-response","279","327035","0.0-1.0-365.0-0.0","0","0","84700","","366","","","68","40","","","1","40","training","adjacent","AB","1","2","M.jpg","R.jpg","1","1","1","",""
"","feedback","","html-keyboard-response","280","328036","0.0-1.0-366.0-0.0","0","0","84700","","null","","","null","40","","","","","","","","","","","","","","","",""
"","ITI","","html-keyboard-response","281","329037","0.0-1.0-369.0","0","0","84700","","null","","","null","40","","","","","","","","","","","","","","","NaN",""
"","S1","","html-keyboard-response","282","329188","0.0-1.0-371.0","0","0","84700","","null","","","null","41","","","","","","","","","","","","","","","",""
"","ISI","","html-keyboard-response","283","331190","0.0-1.0-372.0","0","0","84700","","null","","","null","41","NaN","","","","","","","","","","","","","","",""
"","S2","","html-keyboard-response","284","331341","0.0-1.0-373.0","0","0","84700","","null","","","null","41","","NaN","","","","","","","","","","","","","",""
"","response","","html-keyboard-response","285","331501","0.0-1.0-374.0-0.0","0","0","84700","","159","","","68","41","","","1","41","training","adjacent","CD","3","4","P.jpg","O.jpg","1","1","1","",""
"","feedback","","html-keyboard-response","286","332502","0.0-1.0-375.0-0.0","0","0","84700","","null","","","null","41","","","","","","","","","","","","","","","",""
"","ITI","","html-keyboard-response","287","333505","0.0-1.0-378.0","0","0","84700","","null","","","null","41","","","","","","","","","","","","","","","NaN",""
"","S1","","html-keyboard-response","288","333655","0.0-1.0-380.0","0","0","84700","","null","","","null","42","","","","","","","","","","","","","","","",""
"","ISI","","html-keyboard-response","289","335656","0.0-1.0-381.0","0","0","84700","","null","","","null","42","NaN","","","","","","","","","","","","","","",""
"","S2","","html-keyboard-response","290","335807","0.0-1.0-382.0","0","0","84700","","null","","","null","42","","NaN","","","","","","","","","","","","","",""
"","response","","html-keyboard-response","291","335921","0.0-1.0-383.0-0.0","0","0","84700","","113","","","68","42","","","1","42","training","adjacent","CB","3","2","P.jpg","R.jpg","1","0","0","",""
"","feedback","","html-keyboard-response","292","336922","0.0-1.0-384.0-0.0","0","0","84700","","null","","","null","42","","","","","","","","","","","","","","","",""
"","time_out","","html-keyboard-response","293","338924","0.0-1.0-386.0-0.0","0","0","84700","","null","","","null","42","","","","","","","","","","","","","","","",""
"","ITI","","html-keyboard-response","294","339925","0.0-1.0-387.0","0","0","84700","","null","","","null","42","","","","","","","","","","","","","","","NaN",""
"","S1","","html-keyboard-response","295","340076","0.0-1.0-389.0","0","0","84700","","null","","","null","43","","","","","","","","","","","","","","","",""
"","ISI","","html-keyboard-response","296","342077","0.0-1.0-390.0","0","0","84700","","null","","","null","43","NaN","","","","","","","","","","","","","","",""
"","S2","","html-keyboard-response","297","342227","0.0-1.0-391.0","0","0","84700","","null","","","null","43","","NaN","","","","","","","","","","","","","",""
"","response","","html-keyboard-response","298","342477","0.0-1.0-392.0-0.0","0","0","84700","","249","","","68","43","","","1","43","training","adjacent","FE","6","5","L.jpg","N.jpg","1","0","0","",""
"","feedback","","html-keyboard-response","299","343479","0.0-1.0-393.0-0.0","0","0","84700","","null","","","null","43","","","","","","","","","","","","","","","",""
"","time_out","","html-keyboard-response","300","345479","0.0-1.0-395.0-0.0","0","0","84700","","null","","","null","43","","","","","","","","","","","","","","","",""
"","ITI","","html-keyboard-response","301","346481","0.0-1.0-396.0","0","0","84700","","null","","","null","43","","","","","","","","","","","","","","","NaN",""
"","S1","","html-keyboard-response","302","346632","0.0-1.0-398.0","0","0","84700","","null","","","null","44","","","","","","","","","","","","","","","",""
"","ISI","","html-keyboard-response","303","348633","0.0-1.0-399.0","0","0","84700","","null","","","null","44","NaN","","","","","","","","","","","","","","",""
"","S2","","html-keyboard-response","304","348784","0.0-1.0-400.0","0","0","84700","","null","","","null","44","","NaN","","","","","","","","","","","","","",""
"","response","","html-keyboard-response","305","349105","0.0-1.0-401.0-0.0","0","0","84700","","320","","","68","44","","","1","44","training","adjacent","CB","3","2","P.jpg","R.jpg","1","0","0","",""
"","feedback","","html-keyboard-response","306","350105","0.0-1.0-402.0-0.0","0","0","84700","","null","","","null","44","","","","","","","","","","","","","","","",""
"","time_out","","html-keyboard-response","307","352107","0.0-1.0-404.0-0.0","0","0","84700","","null","","","null","44","","","","","","","","","","","","","","","",""
"","ITI","","html-keyboard-response","308","353108","0.0-1.0-405.0","0","0","84700","","null","","","null","44","","","","","","","","","","","","","","","NaN",""
"","S1","","html-keyboard-response","309","353259","0.0-1.0-407.0","0","0","84700","","null","","","null","45","","","","","","","","","","","","","","","",""
"","ISI","","html-keyboard-response","310","355259","0.0-1.0-408.0","0","0","84700","","332","","","75","45","k","","","","","","","","","","","","","","",""
"","S2","","html-keyboard-response","311","355411","0.0-1.0-409.0","0","0","84700","","null","","","null","45","","NaN","","","","","","","","","","","","","",""
"","response","","html-keyboard-response","312","355864","0.0-1.0-410.0-0.0","0","0","84700","","452","","","75","45","","","1","45","training","adjacent","DE","4","5","O.jpg","N.jpg","0","1","0","",""
"","feedback","","html-keyboard-response","313","356865","0.0-1.0-411.0-0.0","0","0","84700","","null","","","null","45","","","","","","","","","","","","","","","",""
"","time_out","","html-keyboard-response","314","358866","0.0-1.0-413.0-0.0","0","0","84700","","null","","","null","45","","","","","","","","","","","","","","","",""
"","ITI","","html-keyboard-response","315","359867","0.0-1.0-414.0","0","0","84700","","null","","","null","45","","","","","","","","","","","","","","","NaN",""
"","S1","","html-keyboard-response","316","360019","0.0-1.0-416.0","0","0","84700","","null","","","null","46","","","","","","","","","","","","","","","",""
"","ISI","","html-keyboard-response","317","362020","0.0-1.0-417.0","0","0","84700","","null","","","null","46","NaN","","","","","","","","","","","","","","",""
"","S2","","html-keyboard-response","318","362170","0.0-1.0-418.0","0","0","84700","","null","","","null","46","","NaN","","","","","","","","","","","","","",""
"","response","","html-keyboard-response","319","362210","0.0-1.0-419.0-0.0","0","0","84700","","39","","","75","46","","","1","46","training","adjacent","DE","4","5","O.jpg","N.jpg","0","1","0","",""
"","feedback","","html-keyboard-response","320","363211","0.0-1.0-420.0-0.0","0","0","84700","","null","","","null","46","","","","","","","","","","","","","","","",""
"","time_out","","html-keyboard-response","321","365214","0.0-1.0-422.0-0.0","0","0","84700","","null","","","null","46","","","","","","","","","","","","","","","",""
"","ITI","","html-keyboard-response","322","366216","0.0-1.0-423.0","0","0","84700","","null","","","null","46","","","","","","","","","","","","","","","NaN",""
"","S1","","html-keyboard-response","323","366367","0.0-1.0-425.0","0","0","84700","","null","","","null","47","","","","","","","","","","","","","","","",""
"","ISI","","html-keyboard-response","324","368367","0.0-1.0-426.0","0","0","84700","","null","","","null","47","NaN","","","","","","","","","","","","","","",""
"","S2","","html-keyboard-response","325","368518","0.0-1.0-427.0","0","0","84700","","null","","","null","47","","NaN","","","","","","","","","","","","","",""
"","response","","html-keyboard-response","326","369305","0.0-1.0-428.0-0.0","0","0","84700","","786","","","68","47","","","1","47","training","adjacent","EF","5","6","N.jpg","L.jpg","1","1","1","",""
"","feedback","","html-keyboard-response","327","370308","0.0-1.0-429.0-0.0","0","0","84700","","null","","","null","47","","","","","","","","","","","","","","","",""
"","ITI","","html-keyboard-response","328","371309","0.0-1.0-432.0","0","0","84700","","null","","","null","47","","","","","","","","","","","","","","","NaN",""
"","block_over","","html-keyboard-response","329","374081","0.0-1.0-433.0-0.0","0","0","84700","","2770","","","32","47","","","","","","","","","","","","","","","",""
"","S1","","html-keyboard-response","330","374232","0.0-1.0-434.0","0","0","84700","","null","","","null","48","","","","","","","","","","","","","","","",""
"","ISI","","html-keyboard-response","331","376233","0.0-1.0-435.0","0","0","84700","","null","","","null","48","NaN","","","","","","","","","","","","","","",""
"","S2","","html-keyboard-response","332","376384","0.0-1.0-436.0","0","0","84700","","null","","","null","48","","NaN","","","","","","","","","","","","","",""
"","response","","html-keyboard-response","333","376642","0.0-1.0-437.0-0.0","0","0","84700","","257","","","75","48","","","2","48","training","adjacent","BA","2","1","R.jpg","M.jpg","0","0","1","",""
"","feedback","","html-keyboard-response","334","377643","0.0-1.0-438.0-0.0","0","0","84700","","null","","","null","48","","","","","","","","","","","","","","","",""
"","ITI","","html-keyboard-response","335","378645","0.0-1.0-441.0","0","0","84700","","null","","","null","48","","","","","","","","","","","","","","","NaN",""
"","S1","","html-keyboard-response","336","378796","0.0-1.0-443.0","0","0","84700","","null","","","null","49","","","","","","","","","","","","","","","",""
"","ISI","","html-keyboard-response","337","380798","0.0-1.0-444.0","0","0","84700","","null","","","null","49","NaN","","","","","","","","","","","","","","",""
"","S2","","html-keyboard-response","338","380950","0.0-1.0-445.0","0","0","84700","","null","","","null","49","","NaN","","","","","","","","","","","","","",""
"","response","","html-keyboard-response","339","381374","0.0-1.0-446.0-0.0","0","0","84700","","421","","","75","49","","","2","49","training","adjacent","FE","6","5","L.jpg","N.jpg","0","0","1","",""
"","feedback","","html-keyboard-response","340","382375","0.0-1.0-447.0-0.0","0","0","84700","","null","","","null","49","","","","","","","","","","","","","","","",""
"","ITI","","html-keyboard-response","341","383376","0.0-1.0-450.0","0","0","84700","","null","","","null","49","","","","","","","","","","","","","","","NaN",""
"","S1","","html-keyboard-response","342","383527","0.0-1.0-452.0","0","0","84700","","null","","","null","50","","","","","","","","","","","","","","","",""
"","ISI","","html-keyboard-response","343","385528","0.0-1.0-453.0","0","0","84700","","null","","","null","50","NaN","","","","","","","","","","","","","","",""
"","S2","","html-keyboard-response","344","385680","0.0-1.0-454.0","0","0","84700","","null","","","null","50","","NaN","","","","","","","","","","","","","",""
"","response","","html-keyboard-response","345","385957","0.0-1.0-455.0-0.0","0","0","84700","","276","","","68","50","","","2","50","training","adjacent","EF","5","6","N.jpg","L.jpg","1","1","1","",""
"","feedback","","html-keyboard-response","346","386958","0.0-1.0-456.0-0.0","0","0","84700","","null","","","null","50","","","","","","","","","","","","","","","",""
"","ITI","","html-keyboard-response","347","387960","0.0-1.0-459.0","0","0","84700","","null","","","null","50","","","","","","","","","","","","","","","NaN",""
"","S1","","html-keyboard-response","348","388111","0.0-1.0-461.0","0","0","84700","","null","","","null","51","","","","","","","","","","","","","","","",""
"","ISI","","html-keyboard-response","349","390112","0.0-1.0-462.0","0","0","84700","","null","","","null","51","NaN","","","","","","","","","","","","","","",""
"","S2","","html-keyboard-response","350","390263","0.0-1.0-463.0","0","0","84700","","null","","","null","51","","NaN","","","","","","","","","","","","","",""
"","response","","html-keyboard-response","351","390556","0.0-1.0-464.0-0.0","0","0","84700","","292","","","68","51","","","2","51","training","adjacent","CD","3","4","P.jpg","O.jpg","1","1","1","",""
"","feedback","","html-keyboard-response","352","391557","0.0-1.0-465.0-0.0","0","0","84700","","null","","","null","51","","","","","","","","","","","","","","","",""
"","ITI","","html-keyboard-response","353","392559","0.0-1.0-468.0","0","0","84700","","null","","","null","51","","","","","","","","","","","","","","","NaN",""
"","S1","","html-keyboard-response","354","392710","0.0-1.0-470.0","0","0","84700","","null","","","null","52","","","","","","","","","","","","","","","",""
"","ISI","","html-keyboard-response","355","394711","0.0-1.0-471.0","0","0","84700","","null","","","null","52","NaN","","","","","","","","","","","","","","",""
"","S2","","html-keyboard-response","356","394862","0.0-1.0-472.0","0","0","84700","","null","","","null","52","","NaN","","","","","","","","","","","","","",""
"","response","","html-keyboard-response","357","395192","0.0-1.0-473.0-0.0","0","0","84700","","329","","","68","52","","","2","52","training","adjacent","BA","2","1","R.jpg","M.jpg","1","0","0","",""
"","feedback","","html-keyboard-response","358","396194","0.0-1.0-474.0-0.0","0","0","84700","","null","","","null","52","","","","","","","","","","","","","","","",""
"","time_out","","html-keyboard-response","359","398195","0.0-1.0-476.0-0.0","0","0","84700","","null","","","null","52","","","","","","","","","","","","","","","",""
"","ITI","","html-keyboard-response","360","399196","0.0-1.0-477.0","0","0","84700","","null","","","null","52","","","","","","","","","","","","","","","NaN",""
"","S1","","html-keyboard-response","361","399347","0.0-1.0-479.0","0","0","84700","","null","","","null","53","","","","","","","","","","","","","","","",""
"","ISI","","html-keyboard-response","362","401349","0.0-1.0-480.0","0","0","84700","","411","","","68","53","d","","","","","","","","","","","","","","",""
"","S2","","html-keyboard-response","363","401499","0.0-1.0-481.0","0","0","84700","","null","","","null","53","","NaN","","","","","","","","","","","","","",""
"","response","","html-keyboard-response","364","401996","0.0-1.0-482.0-0.0","0","0","84700","","496","","","75","53","","","2","53","training","adjacent","DC","4","3","O.jpg","P.jpg","0","0","1","",""
"","feedback","","html-keyboard-response","365","402996","0.0-1.0-483.0-0.0","0","0","84700","","null","","","null","53","","","","","","","","","","","","","","","",""
"","ITI","","html-keyboard-response","366","403998","0.0-1.0-486.0","0","0","84700","","null","","","null","53","","","","","","","","","","","","","","","NaN",""
"","S1","","html-keyboard-response","367","404149","0.0-1.0-488.0","0","0","84700","","null","","","null","54","","","","","","","","","","","","","","","",""
"","ISI","","html-keyboard-response","368","406150","0.0-1.0-489.0","0","0","84700","","null","","","null","54","NaN","","","","","","","","","","","","","","",""
"","S2","","html-keyboard-response","369","406301","0.0-1.0-490.0","0","0","84700","","null","","","null","54","","NaN","","","","","","","","","","","","","",""
"","response","","html-keyboard-response","370","406507","0.0-1.0-491.0-0.0","0","0","84700","","205","","","68","54","","","2","54","training","adjacent","DE","4","5","O.jpg","N.jpg","1","1","1","",""
"","feedback","","html-keyboard-response","371","407507","0.0-1.0-492.0-0.0","0","0","84700","","null","","","null","54","","","","","","","","","","","","","","","",""
"","ITI","","html-keyboard-response","372","408510","0.0-1.0-495.0","0","0","84700","","null","","","null","54","","","","","","","","","","","","","","","NaN",""
"","S1","","html-keyboard-response","373","408661","0.0-1.0-497.0","0","0","84700","","null","","","null","55","","","","","","","","","","","","","","","",""
"","ISI","","html-keyboard-response","374","410661","0.0-1.0-498.0","0","0","84700","","null","","","null","55","NaN","","","","","","","","","","","","","","",""
"","S2","","html-keyboard-response","375","410812","0.0-1.0-499.0","0","0","84700","","null","","","null","55","","NaN","","","","","","","","","","","","","",""
"","response","","html-keyboard-response","376","411022","0.0-1.0-500.0-0.0","0","0","84700","","210","","","68","55","","","2","55","training","adjacent","ED","5","4","N.jpg","O.jpg","1","0","0","",""
"","feedback","","html-keyboard-response","377","412023","0.0-1.0-501.0-0.0","0","0","84700","","null","","","null","55","","","","","","","","","","","","","","","",""
"","time_out","","html-keyboard-response","378","414025","0.0-1.0-503.0-0.0","0","0","84700","","null","","","null","55","","","","","","","","","","","","","","","",""
"","ITI","","html-keyboard-response","379","415026","0.0-1.0-504.0","0","0","84700","","null","","","null","55","","","","","","","","","","","","","","","NaN",""
"","S1","","html-keyboard-response","380","415177","0.0-1.0-506.0","0","0","84700","","null","","","null","56","","","","","","","","","","","","","","","",""
"","ISI","","html-keyboard-response","381","417178","0.0-1.0-507.0","0","0","84700","","null","","","null","56","NaN","","","","","","","","","","","","","","",""
"","S2","","html-keyboard-response","382","417328","0.0-1.0-508.0","0","0","84700","","null","","","null","56","","NaN","","","","","","","","","","","","","",""
"","response","","html-keyboard-response","383","417697","0.0-1.0-509.0-0.0","0","0","84700","","369","","","68","56","","","2","56","training","adjacent","ED","5","4","N.jpg","O.jpg","1","0","0","",""
"","feedback","","html-keyboard-response","384","418699","0.0-1.0-510.0-0.0","0","0","84700","","null","","","null","56","","","","","","","","","","","","","","","",""
"","time_out","","html-keyboard-response","385","420700","0.0-1.0-512.0-0.0","0","0","84700","","null","","","null","56","","","","","","","","","","","","","","","",""
"","ITI","","html-keyboard-response","386","421701","0.0-1.0-513.0","0","0","84700","","null","","","null","56","","","","","","","","","","","","","","","NaN",""
"","S1","","html-keyboard-response","387","421852","0.0-1.0-515.0","0","0","84700","","null","","","null","57","","","","","","","","","","","","","","","",""
"","ISI","","html-keyboard-response","388","423854","0.0-1.0-516.0","0","0","84700","","null","","","null","57","NaN","","","","","","","","","","","","","","",""
"","S2","","html-keyboard-response","389","424005","0.0-1.0-517.0","0","0","84700","","null","","","null","57","","NaN","","","","","","","","","","","","","",""
"","response","","html-keyboard-response","390","424157","0.0-1.0-518.0-0.0","0","0","84700","","151","","","68","57","","","2","57","training","adjacent","GF","7","6","Q.jpg","L.jpg","1","0","0","",""
"","feedback","","html-keyboard-response","391","425159","0.0-1.0-519.0-0.0","0","0","84700","","null","","","null","57","","","","","","","","","","","","","","","",""
"","time_out","","html-keyboard-response","392","427160","0.0-1.0-521.0-0.0","0","0","84700","","null","","","null","57","","","","","","","","","","","","","","","",""
"","ITI","","html-keyboard-response","393","428161","0.0-1.0-522.0","0","0","84700","","null","","","null","57","","","","","","","","","","","","","","","NaN",""
"","S1","","html-keyboard-response","394","428312","0.0-1.0-524.0","0","0","84700","","null","","","null","58","","","","","","","","","","","","","","","",""
"","ISI","","html-keyboard-response","395","430313","0.0-1.0-525.0","0","0","84700","","null","","","null","58","NaN","","","","","","","","","","","","","","",""
"","S2","","html-keyboard-response","396","430464","0.0-1.0-526.0","0","0","84700","","null","","","null","58","","NaN","","","","","","","","","","","","","",""
"","response","","html-keyboard-response","397","430924","0.0-1.0-527.0-0.0","0","0","84700","","460","","","68","58","","","2","58","training","adjacent","EF","5","6","N.jpg","L.jpg","1","1","1","",""
"","feedback","","html-keyboard-response","398","431925","0.0-1.0-528.0-0.0","0","0","84700","","null","","","null","58","","","","","","","","","","","","","","","",""
"","ITI","","html-keyboard-response","399","432927","0.0-1.0-531.0","0","0","84700","","null","","","null","58","","","","","","","","","","","","","","","NaN",""
"","S1","","html-keyboard-response","400","433079","0.0-1.0-533.0","0","0","84700","","null","","","null","59","","","","","","","","","","","","","","","",""
"","ISI","","html-keyboard-response","401","435080","0.0-1.0-534.0","0","0","84700","","null","","","null","59","NaN","","","","","","","","","","","","","","",""
"","S2","","html-keyboard-response","402","435230","0.0-1.0-535.0","0","0","84700","","null","","","null","59","","NaN","","","","","","","","","","","","","",""
"","response","","html-keyboard-response","403","435768","0.0-1.0-536.0-0.0","0","0","84700","","536","","","68","59","","","2","59","training","adjacent","FG","6","7","L.jpg","Q.jpg","1","1","1","",""
"","feedback","","html-keyboard-response","404","436770","0.0-1.0-537.0-0.0","0","0","84700","","null","","","null","59","","","","","","","","","","","","","","","",""
"","ITI","","html-keyboard-response","405","437771","0.0-1.0-540.0","0","0","84700","","null","","","null","59","","","","","","","","","","","","","","","NaN",""
"","S1","","html-keyboard-response","406","437921","0.0-1.0-542.0","0","0","84700","","null","","","null","60","","","","","","","","","","","","","","","",""
"","ISI","","html-keyboard-response","407","439922","0.0-1.0-543.0","0","0","84700","","null","","","null","60","NaN","","","","","","","","","","","","","","",""
"","S2","","html-keyboard-response","408","440074","0.0-1.0-544.0","0","0","84700","","null","","","null","60","","NaN","","","","","","","","","","","","","",""
"","response","","html-keyboard-response","409","440476","0.0-1.0-545.0-0.0","0","0","84700","","401","","","68","60","","","2","60","training","adjacent","GF","7","6","Q.jpg","L.jpg","1","0","0","",""
"","feedback","","html-keyboard-response","410","441477","0.0-1.0-546.0-0.0","0","0","84700","","null","","","null","60","","","","","","","","","","","","","","","",""
"","time_out","","html-keyboard-response","411","443480","0.0-1.0-548.0-0.0","0","0","84700","","null","","","null","60","","","","","","","","","","","","","","","",""
"","ITI","","html-keyboard-response","412","444482","0.0-1.0-549.0","0","0","84700","","null","","","null","60","","","","","","","","","","","","","","","NaN",""
"","S1","","html-keyboard-response","413","444634","0.0-1.0-551.0","0","0","84700","","null","","","null","61","","","","","","","","","","","","","","","",""
"","ISI","","html-keyboard-response","414","446636","0.0-1.0-552.0","0","0","84700","","null","","","null","61","NaN","","","","","","","","","","","","","","",""
"","S2","","html-keyboard-response","415","446789","0.0-1.0-553.0","0","0","84700","","null","","","null","61","","NaN","","","","","","","","","","","","","",""
"","response","","html-keyboard-response","416","446963","0.0-1.0-554.0-0.0","0","0","84700","","174","","","68","61","","","2","61","training","adjacent","CD","3","4","P.jpg","O.jpg","1","1","1","",""
"","feedback","","html-keyboard-response","417","447966","0.0-1.0-555.0-0.0","0","0","84700","","null","","","null","61","","","","","","","","","","","","","","","",""
"","ITI","","html-keyboard-response","418","448967","0.0-1.0-558.0","0","0","84700","","null","","","null","61","","","","","","","","","","","","","","","NaN",""
"","S1","","html-keyboard-response","419","449118","0.0-1.0-560.0","0","0","84700","","null","","","null","62","","","","","","","","","","","","","","","",""
"","ISI","","html-keyboard-response","420","451120","0.0-1.0-561.0","0","0","84700","","null","","","null","62","NaN","","","","","","","","","","","","","","",""
"","S2","","html-keyboard-response","421","451272","0.0-1.0-562.0","0","0","84700","","null","","","null","62","","NaN","","","","","","","","","","","","","",""
"","response","","html-keyboard-response","422","452562","0.0-1.0-563.0-0.0","0","0","84700","","1289","","","68","62","","","2","62","training","adjacent","BA","2","1","R.jpg","M.jpg","1","0","0","",""
"","feedback","","html-keyboard-response","423","453564","0.0-1.0-564.0-0.0","0","0","84700","","null","","","null","62","","","","","","","","","","","","","","","",""
"","time_out","","html-keyboard-response","424","455566","0.0-1.0-566.0-0.0","0","0","84700","","null","","","null","62","","","","","","","","","","","","","","","",""
"","ITI","","html-keyboard-response","425","456567","0.0-1.0-567.0","0","0","84700","","null","","","null","62","","","","","","","","","","","","","","","NaN",""
"","S1","","html-keyboard-response","426","456717","0.0-1.0-569.0","0","0","84700","","null","","","null","63","","","","","","","","","","","","","","","",""
"","ISI","","html-keyboard-response","427","458718","0.0-1.0-570.0","0","0","84700","","null","","","null","63","NaN","","","","","","","","","","","","","","",""
"","S2","","html-keyboard-response","428","458869","0.0-1.0-571.0","0","0","84700","","null","","","null","63","","NaN","","","","","","","","","","","","","",""
"","response","","html-keyboard-response","429","459046","0.0-1.0-572.0-0.0","0","0","84700","","176","","","68","63","","","2","63","training","adjacent","CB","3","2","P.jpg","R.jpg","1","0","0","",""
"","feedback","","html-keyboard-response","430","460048","0.0-1.0-573.0-0.0","0","0","84700","","null","","","null","63","","","","","","","","","","","","","","","",""
"","time_out","","html-keyboard-response","431","462050","0.0-1.0-575.0-0.0","0","0","84700","","null","","","null","63","","","","","","","","","","","","","","","",""
"","ITI","","html-keyboard-response","432","463051","0.0-1.0-576.0","0","0","84700","","null","","","null","63","","","","","","","","","","","","","","","NaN",""
"","S1","","html-keyboard-response","433","463202","0.0-1.0-578.0","0","0","84700","","null","","","null","64","","","","","","","","","","","","","","","",""
"","ISI","","html-keyboard-response","434","465204","0.0-1.0-579.0","0","0","84700","","null","","","null","64","NaN","","","","","","","","","","","","","","",""
"","S2","","html-keyboard-response","435","465354","0.0-1.0-580.0","0","0","84700","","null","","","null","64","","NaN","","","","","","","","","","","","","",""
"","response","","html-keyboard-response","436","465582","0.0-1.0-581.0-0.0","0","0","84700","","227","","","68","64","","","2","64","training","adjacent","AB","1","2","M.jpg","R.jpg","1","1","1","",""
"","feedback","","html-keyboard-response","437","466584","0.0-1.0-582.0-0.0","0","0","84700","","null","","","null","64","","","","","","","","","","","","","","","",""
"","ITI","","html-keyboard-response","438","467584","0.0-1.0-585.0","0","0","84700","","null","","","null","64","","","","","","","","","","","","","","","NaN",""
"","S1","","html-keyboard-response","439","467736","0.0-1.0-587.0","0","0","84700","","null","","","null","65","","","","","","","","","","","","","","","",""
"","ISI","","html-keyboard-response","440","469737","0.0-1.0-588.0","0","0","84700","","null","","","null","65","NaN","","","","","","","","","","","","","","",""
"","S2","","html-keyboard-response","441","469887","0.0-1.0-589.0","0","0","84700","","null","","","null","65","","NaN","","","","","","","","","","","","","",""
"","response","","html-keyboard-response","442","470156","0.0-1.0-590.0-0.0","0","0","84700","","269","","","68","65","","","2","65","training","adjacent","BC","2","3","R.jpg","P.jpg","1","1","1","",""
"","feedback","","html-keyboard-response","443","471158","0.0-1.0-591.0-0.0","0","0","84700","","null","","","null","65","","","","","","","","","","","","","","","",""
"","ITI","","html-keyboard-response","444","472161","0.0-1.0-594.0","0","0","84700","","null","","","null","65","","","","","","","","","","","","","","","NaN",""
"","S1","","html-keyboard-response","445","472313","0.0-1.0-596.0","0","0","84700","","null","","","null","66","","","","","","","","","","","","","","","",""
"","ISI","","html-keyboard-response","446","474314","0.0-1.0-597.0","0","0","84700","","null","","","null","66","NaN","","","","","","","","","","","","","","",""
"","S2","","html-keyboard-response","447","474464","0.0-1.0-598.0","0","0","84700","","null","","","null","66","","NaN","","","","","","","","","","","","","",""
"","response","","html-keyboard-response","448","474892","0.0-1.0-599.0-0.0","0","0","84700","","427","","","68","66","","","2","66","training","adjacent","FG","6","7","L.jpg","Q.jpg","1","1","1","",""
"","feedback","","html-keyboard-response","449","475894","0.0-1.0-600.0-0.0","0","0","84700","","null","","","null","66","","","","","","","","","","","","","","","",""
"","ITI","","html-keyboard-response","450","476895","0.0-1.0-603.0","0","0","84700","","null","","","null","66","","","","","","","","","","","","","","","NaN",""
"","S1","","html-keyboard-response","451","477046","0.0-1.0-605.0","0","0","84700","","null","","","null","67","","","","","","","","","","","","","","","",""
"","ISI","","html-keyboard-response","452","479048","0.0-1.0-606.0","0","0","84700","","null","","","null","67","NaN","","","","","","","","","","","","","","",""
"","S2","","html-keyboard-response","453","479198","0.0-1.0-607.0","0","0","84700","","null","","","null","67","","NaN","","","","","","","","","","","","","",""
"","response","","html-keyboard-response","454","479672","0.0-1.0-608.0-0.0","0","0","84700","","473","","","68","67","","","2","67","training","adjacent","DE","4","5","O.jpg","N.jpg","1","1","1","",""
"","feedback","","html-keyboard-response","455","480674","0.0-1.0-609.0-0.0","0","0","84700","","null","","","null","67","","","","","","","","","","","","","","","",""
"","ITI","","html-keyboard-response","456","481675","0.0-1.0-612.0","0","0","84700","","null","","","null","67","","","","","","","","","","","","","","","NaN",""
"","S1","","html-keyboard-response","457","481826","0.0-1.0-614.0","0","0","84700","","null","","","null","68","","","","","","","","","","","","","","","",""
"","ISI","","html-keyboard-response","458","483828","0.0-1.0-615.0","0","0","84700","","null","","","null","68","NaN","","","","","","","","","","","","","","",""
"","S2","","html-keyboard-response","459","483978","0.0-1.0-616.0","0","0","84700","","null","","","null","68","","NaN","","","","","","","","","","","","","",""
"","response","","html-keyboard-response","460","484160","0.0-1.0-617.0-0.0","0","0","84700","","180","","","68","68","","","2","68","training","adjacent","DE","4","5","O.jpg","N.jpg","1","1","1","",""
"","feedback","","html-keyboard-response","461","485162","0.0-1.0-618.0-0.0","0","0","84700","","null","","","null","68","","","","","","","","","","","","","","","",""
"","ITI","","html-keyboard-response","462","486163","0.0-1.0-621.0","0","0","84700","","null","","","null","68","","","","","","","","","","","","","","","NaN",""
"","S1","","html-keyboard-response","463","486314","0.0-1.0-623.0","0","0","84700","","null","","","null","69","","","","","","","","","","","","","","","",""
"","ISI","","html-keyboard-response","464","488314","0.0-1.0-624.0","0","0","84700","","null","","","null","69","NaN","","","","","","","","","","","","","","",""
"","S2","","html-keyboard-response","465","488465","0.0-1.0-625.0","0","0","84700","","null","","","null","69","","NaN","","","","","","","","","","","","","",""
"","response","","html-keyboard-response","466","488640","0.0-1.0-626.0-0.0","0","0","84700","","174","","","68","69","","","2","69","training","adjacent","BC","2","3","R.jpg","P.jpg","1","1","1","",""
"","feedback","","html-keyboard-response","467","489641","0.0-1.0-627.0-0.0","0","0","84700","","null","","","null","69","","","","","","","","","","","","","","","",""
"","ITI","","html-keyboard-response","468","490642","0.0-1.0-630.0","0","0","84700","","null","","","null","69","","","","","","","","","","","","","","","NaN",""
"","S1","","html-keyboard-response","469","490793","0.0-1.0-632.0","0","0","84700","","null","","","null","70","","","","","","","","","","","","","","","",""
"","ISI","","html-keyboard-response","470","492795","0.0-1.0-633.0","0","0","84700","","null","","","null","70","NaN","","","","","","","","","","","","","","",""
"","S2","","html-keyboard-response","471","492945","0.0-1.0-634.0","0","0","84700","","null","","","null","70","","NaN","","","","","","","","","","","","","",""
"","response","","html-keyboard-response","472","493183","0.0-1.0-635.0-0.0","0","0","84700","","237","","","68","70","","","2","70","training","adjacent","AB","1","2","M.jpg","R.jpg","1","1","1","",""
"","feedback","","html-keyboard-response","473","494185","0.0-1.0-636.0-0.0","0","0","84700","","null","","","null","70","","","","","","","","","","","","","","","",""
"","ITI","","html-keyboard-response","474","495186","0.0-1.0-639.0","0","0","84700","","null","","","null","70","","","","","","","","","","","","","","","NaN",""
"","S1","","html-keyboard-response","475","495338","0.0-1.0-641.0","0","0","84700","","null","","","null","71","","","","","","","","","","","","","","","",""
"","ISI","","html-keyboard-response","476","497339","0.0-1.0-642.0","0","0","84700","","null","","","null","71","NaN","","","","","","","","","","","","","","",""
"","S2","","html-keyboard-response","477","497490","0.0-1.0-643.0","0","0","84700","","null","","","null","71","","NaN","","","","","","","","","","","","","",""
"","response","","html-keyboard-response","478","498010","0.0-1.0-644.0-0.0","0","0","84700","","519","","","68","71","","","2","71","training","adjacent","CB","3","2","P.jpg","R.jpg","1","0","0","",""
"","feedback","","html-keyboard-response","479","499012","0.0-1.0-645.0-0.0","0","0","84700","","null","","","null","71","","","","","","","","","","","","","","","",""
"","time_out","","html-keyboard-response","480","501013","0.0-1.0-647.0-0.0","0","0","84700","","null","","","null","71","","","","","","","","","","","","","","","",""
"","ITI","","html-keyboard-response","481","502014","0.0-1.0-648.0","0","0","84700","","null","","","null","71","","","","","","","","","","","","","","","NaN",""
"","S1","","html-keyboard-response","482","502165","0.0-1.0-650.0","0","0","84700","","null","","","null","72","","","","","","","","","","","","","","","",""
"","ISI","","html-keyboard-response","483","504166","0.0-1.0-651.0","0","0","84700","","436","","","68","72","d","","","","","","","","","","","","","","",""
"","S2","","html-keyboard-response","484","504318","0.0-1.0-652.0","0","0","84700","","null","","","null","72","","NaN","","","","","","","","","","","","","",""
"","response","","html-keyboard-response","485","504570","0.0-1.0-653.0-0.0","0","0","84700","","252","","","68","72","","","2","72","training","adjacent","AB","1","2","M.jpg","R.jpg","1","1","1","",""
"","feedback","","html-keyboard-response","486","505571","0.0-1.0-654.0-0.0","0","0","84700","","null","","","null","72","","","","","","","","","","","","","","","",""
"","ITI","","html-keyboard-response","487","506572","0.0-1.0-657.0","0","0","84700","","null","","","null","72","","","","","","","","","","","","","","","NaN",""
"","S1","","html-keyboard-response","488","506724","0.0-1.0-659.0","0","0","84700","","null","","","null","73","","","","","","","","","","","","","","","",""
"","ISI","","html-keyboard-response","489","508726","0.0-1.0-660.0","0","0","84700","","null","","","null","73","NaN","","","","","","","","","","","","","","",""
"","S2","","html-keyboard-response","490","508877","0.0-1.0-661.0","0","0","84700","","null","","","null","73","","NaN","","","","","","","","","","","","","",""
"","response","","html-keyboard-response","491","510729","0.0-1.0-662.0-0.0","0","0","84700","","null","","","null","73","","","2","73","training","adjacent","FE","6","5","L.jpg","N.jpg","NaN","0","0","",""
"","too_slow_prompt","","html-keyboard-response","492","511732","0.0-1.0-664.0-0.0","1","0","84700","","null","","","null","","","","","","","","","","","","","","","","",""
"","time_out","","html-keyboard-response","493","513734","0.0-1.0-665.0-0.0","0","0","84700","","null","","","null","73","","","","","","","","","","","","","","","",""
"","ITI","","html-keyboard-response","494","514734","0.0-1.0-666.0","0","0","84700","","null","","","null","73","","","","","","","","","","","","","","","NaN",""
"","S1","","html-keyboard-response","495","514886","0.0-1.0-668.0","0","0","84700","","null","","","null","74","","","","","","","","","","","","","","","",""
"","ISI","","html-keyboard-response","496","516887","0.0-1.0-669.0","0","0","84700","","null","","","null","74","NaN","","","","","","","","","","","","","","",""
"","S2","","html-keyboard-response","497","517037","0.0-1.0-670.0","0","0","84700","","null","","","null","74","","NaN","","","","","","","","","","","","","",""
"","response","","html-keyboard-response","498","517329","0.0-1.0-671.0-0.0","0","0","84700","","291","","","68","74","","","2","74","training","adjacent","CB","3","2","P.jpg","R.jpg","1","0","0","",""
"","feedback","","html-keyboard-response","499","518330","0.0-1.0-672.0-0.0","0","0","84700","","null","","","null","74","","","","","","","","","","","","","","","",""
"","time_out","","html-keyboard-response","500","520331","0.0-1.0-674.0-0.0","0","0","84700","","null","","","null","74","","","","","","","","","","","","","","","",""
"","ITI","","html-keyboard-response","501","521333","0.0-1.0-675.0","0","0","84700","","null","","","null","74","","","","","","","","","","","","","","","NaN",""
"","S1","","html-keyboard-response","502","521484","0.0-1.0-677.0","0","0","84700","","null","","","null","75","","","","","","","","","","","","","","","",""
"","ISI","","html-keyboard-response","503","523485","0.0-1.0-678.0","0","0","84700","","null","","","null","75","NaN","","","","","","","","","","","","","","",""
"","S2","","html-keyboard-response","504","523636","0.0-1.0-679.0","0","0","84700","","null","","","null","75","","NaN","","","","","","","","","","","","","",""
"","response","","html-keyboard-response","505","524121","0.0-1.0-680.0-0.0","0","0","84700","","484","","","68","75","","","2","75","training","adjacent","FG","6","7","L.jpg","Q.jpg","1","1","1","",""
"","feedback","","html-keyboard-response","506","525121","0.0-1.0-681.0-0.0","0","0","84700","","null","","","null","75","","","","","","","","","","","","","","","",""
"","ITI","","html-keyboard-response","507","526123","0.0-1.0-684.0","0","0","84700","","null","","","null","75","","","","","","","","","","","","","","","NaN",""
"","S1","","html-keyboard-response","508","526275","0.0-1.0-686.0","0","0","84700","","null","","","null","76","","","","","","","","","","","","","","","",""
"","ISI","","html-keyboard-response","509","528276","0.0-1.0-687.0","0","0","84700","","1124","","","68","76","d","","","","","","","","","","","","","","",""
"","S2","","html-keyboard-response","510","528428","0.0-1.0-688.0","0","0","84700","","null","","","null","76","","NaN","","","","","","","","","","","","","",""
"","response","","html-keyboard-response","511","528783","0.0-1.0-689.0-0.0","0","0","84700","","355","","","68","76","","","2","76","training","adjacent","CB","3","2","P.jpg","R.jpg","1","0","0","",""
"","feedback","","html-keyboard-response","512","529784","0.0-1.0-690.0-0.0","0","0","84700","","null","","","null","76","","","","","","","","","","","","","","","",""
"","time_out","","html-keyboard-response","513","531786","0.0-1.0-692.0-0.0","0","0","84700","","null","","","null","76","","","","","","","","","","","","","","","",""
"","ITI","","html-keyboard-response","514","532786","0.0-1.0-693.0","0","0","84700","","null","","","null","76","","","","","","","","","","","","","","","NaN",""
"","S1","","html-keyboard-response","515","532938","0.0-1.0-695.0","0","0","84700","","null","","","null","77","","","","","","","","","","","","","","","",""
"","ISI","","html-keyboard-response","516","534939","0.0-1.0-696.0","0","0","84700","","null","","","null","77","NaN","","","","","","","","","","","","","","",""
"","S2","","html-keyboard-response","517","535089","0.0-1.0-697.0","0","0","84700","","null","","","null","77","","NaN","","","","","","","","","","","","","",""
"","response","","html-keyboard-response","518","535318","0.0-1.0-698.0-0.0","0","0","84700","","228","","","68","77","","","2","77","training","adjacent","GF","7","6","Q.jpg","L.jpg","1","0","0","",""
"","feedback","","html-keyboard-response","519","536320","0.0-1.0-699.0-0.0","0","0","84700","","null","","","null","77","","","","","","","","","","","","","","","",""
"","time_out","","html-keyboard-response","520","538322","0.0-1.0-701.0-0.0","0","0","84700","","null","","","null","77","","","","","","","","","","","","","","","",""
"","ITI","","html-keyboard-response","521","539322","0.0-1.0-702.0","0","0","84700","","null","","","null","77","","","","","","","","","","","","","","","NaN",""
"","S1","","html-keyboard-response","522","539474","0.0-1.0-704.0","0","0","84700","","null","","","null","78","","","","","","","","","","","","","","","",""
"","ISI","","html-keyboard-response","523","541476","0.0-1.0-705.0","0","0","84700","","null","","","null","78","NaN","","","","","","","","","","","","","","",""
"","S2","","html-keyboard-response","524","541627","0.0-1.0-706.0","0","0","84700","","null","","","null","78","","NaN","","","","","","","","","","","","","",""
"","response","","html-keyboard-response","525","542111","0.0-1.0-707.0-0.0","0","0","84700","","483","","","68","78","","","2","78","training","adjacent","CD","3","4","P.jpg","O.jpg","1","1","1","",""
"","feedback","","html-keyboard-response","526","543112","0.0-1.0-708.0-0.0","0","0","84700","","null","","","null","78","","","","","","","","","","","","","","","",""
"","ITI","","html-keyboard-response","527","544113","0.0-1.0-711.0","0","0","84700","","null","","","null","78","","","","","","","","","","","","","","","NaN",""
"","S1","","html-keyboard-response","528","544265","0.0-1.0-713.0","0","0","84700","","null","","","null","79","","","","","","","","","","","","","","","",""
"","ISI","","html-keyboard-response","529","546265","0.0-1.0-714.0","0","0","84700","","null","","","null","79","NaN","","","","","","","","","","","","","","",""
"","S2","","html-keyboard-response","530","546417","0.0-1.0-715.0","0","0","84700","","null","","","null","79","","NaN","","","","","","","","","","","","","",""
"","response","","html-keyboard-response","531","547086","0.0-1.0-716.0-0.0","0","0","84700","","668","","","68","79","","","2","79","training","adjacent","ED","5","4","N.jpg","O.jpg","1","0","0","",""
"","feedback","","html-keyboard-response","532","548089","0.0-1.0-717.0-0.0","0","0","84700","","null","","","null","79","","","","","","","","","","","","","","","",""
"","time_out","","html-keyboard-response","533","550091","0.0-1.0-719.0-0.0","0","0","84700","","null","","","null","79","","","","","","","","","","","","","","","",""
"","ITI","","html-keyboard-response","534","551092","0.0-1.0-720.0","0","0","84700","","null","","","null","79","","","","","","","","","","","","","","","NaN",""
"","S1","","html-keyboard-response","535","551243","0.0-1.0-722.0","0","0","84700","","null","","","null","80","","","","","","","","","","","","","","","",""
"","ISI","","html-keyboard-response","536","553244","0.0-1.0-723.0","0","0","84700","","null","","","null","80","NaN","","","","","","","","","","","","","","",""
"","S2","","html-keyboard-response","537","553396","0.0-1.0-724.0","0","0","84700","","null","","","null","80","","NaN","","","","","","","","","","","","","",""
"","response","","html-keyboard-response","538","553505","0.0-1.0-725.0-0.0","0","0","84700","","108","","","68","80","","","2","80","training","adjacent","EF","5","6","N.jpg","L.jpg","1","1","1","",""
"","feedback","","html-keyboard-response","539","554506","0.0-1.0-726.0-0.0","0","0","84700","","null","","","null","80","","","","","","","","","","","","","","","",""
"","ITI","","html-keyboard-response","540","555507","0.0-1.0-729.0","0","0","84700","","null","","","null","80","","","","","","","","","","","","","","","NaN",""
"","S1","","html-keyboard-response","541","555659","0.0-1.0-731.0","0","0","84700","","null","","","null","81","","","","","","","","","","","","","","","",""
"","ISI","","html-keyboard-response","542","557659","0.0-1.0-732.0","0","0","84700","","null","","","null","81","NaN","","","","","","","","","","","","","","",""
"","S2","","html-keyboard-response","543","557811","0.0-1.0-733.0","0","0","84700","","null","","","null","81","","NaN","","","","","","","","","","","","","",""
"","response","","html-keyboard-response","544","558189","0.0-1.0-734.0-0.0","0","0","84700","","377","","","68","81","","","2","81","training","adjacent","CD","3","4","P.jpg","O.jpg","1","1","1","",""
"","feedback","","html-keyboard-response","545","559190","0.0-1.0-735.0-0.0","0","0","84700","","null","","","null","81","","","","","","","","","","","","","","","",""
"","ITI","","html-keyboard-response","546","560191","0.0-1.0-738.0","0","0","84700","","null","","","null","81","","","","","","","","","","","","","","","NaN",""
"","S1","","html-keyboard-response","547","560342","0.0-1.0-740.0","0","0","84700","","null","","","null","82","","","","","","","","","","","","","","","",""
"","ISI","","html-keyboard-response","548","562343","0.0-1.0-741.0","0","0","84700","","null","","","null","82","NaN","","","","","","","","","","","","","","",""
"","S2","","html-keyboard-response","549","562494","0.0-1.0-742.0","0","0","84700","","null","","","null","82","","NaN","","","","","","","","","","","","","",""
"","response","","html-keyboard-response","550","562813","0.0-1.0-743.0-0.0","0","0","84700","","318","","","68","82","","","2","82","training","adjacent","BC","2","3","R.jpg","P.jpg","1","1","1","",""
"","feedback","","html-keyboard-response","551","563814","0.0-1.0-744.0-0.0","0","0","84700","","null","","","null","82","","","","","","","","","","","","","","","",""
"","ITI","","html-keyboard-response","552","564815","0.0-1.0-747.0","0","0","84700","","null","","","null","82","","","","","","","","","","","","","","","NaN",""
"","S1","","html-keyboard-response","553","564967","0.0-1.0-749.0","0","0","84700","","null","","","null","83","","","","","","","","","","","","","","","",""
"","ISI","","html-keyboard-response","554","566968","0.0-1.0-750.0","0","0","84700","","null","","","null","83","NaN","","","","","","","","","","","","","","",""
"","S2","","html-keyboard-response","555","567119","0.0-1.0-751.0","0","0","84700","","null","","","null","83","","NaN","","","","","","","","","","","","","",""
"","response","","html-keyboard-response","556","567496","0.0-1.0-752.0-0.0","0","0","84700","","377","","","68","83","","","2","83","training","adjacent","FE","6","5","L.jpg","N.jpg","1","0","0","",""
"","feedback","","html-keyboard-response","557","568498","0.0-1.0-753.0-0.0","0","0","84700","","null","","","null","83","","","","","","","","","","","","","","","",""
"","time_out","","html-keyboard-response","558","570500","0.0-1.0-755.0-0.0","0","0","84700","","null","","","null","83","","","","","","","","","","","","","","","",""
"","ITI","","html-keyboard-response","559","571501","0.0-1.0-756.0","0","0","84700","","null","","","null","83","","","","","","","","","","","","","","","NaN",""
"","S1","","html-keyboard-response","560","571652","0.0-1.0-758.0","0","0","84700","","null","","","null","84","","","","","","","","","","","","","","","",""
"","ISI","","html-keyboard-response","561","573654","0.0-1.0-759.0","0","0","84700","","null","","","null","84","NaN","","","","","","","","","","","","","","",""
"","S2","","html-keyboard-response","562","573806","0.0-1.0-760.0","0","0","84700","","null","","","null","84","","NaN","","","","","","","","","","","","","",""
"","response","","html-keyboard-response","563","573943","0.0-1.0-761.0-0.0","0","0","84700","","135","","","68","84","","","2","84","training","adjacent","DC","4","3","O.jpg","P.jpg","1","0","0","",""
"","feedback","","html-keyboard-response","564","574945","0.0-1.0-762.0-0.0","0","0","84700","","null","","","null","84","","","","","","","","","","","","","","","",""
"","time_out","","html-keyboard-response","565","576947","0.0-1.0-764.0-0.0","0","0","84700","","null","","","null","84","","","","","","","","","","","","","","","",""
"","ITI","","html-keyboard-response","566","577949","0.0-1.0-765.0","0","0","84700","","null","","","null","84","","","","","","","","","","","","","","","NaN",""
"","S1","","html-keyboard-response","567","578100","0.0-1.0-767.0","0","0","84700","","null","","","null","85","","","","","","","","","","","","","","","",""
"","ISI","","html-keyboard-response","568","580101","0.0-1.0-768.0","0","0","84700","","330","","","68","85","d","","","","","","","","","","","","","","",""
"","S2","","html-keyboard-response","569","580253","0.0-1.0-769.0","0","0","84700","","null","","","null","85","","NaN","","","","","","","","","","","","","",""
"","response","","html-keyboard-response","570","580683","0.0-1.0-770.0-0.0","0","0","84700","","429","","","68","85","","","2","85","training","adjacent","DC","4","3","O.jpg","P.jpg","1","0","0","",""
"","feedback","","html-keyboard-response","571","581685","0.0-1.0-771.0-0.0","0","0","84700","","null","","","null","85","","","","","","","","","","","","","","","",""
"","time_out","","html-keyboard-response","572","583687","0.0-1.0-773.0-0.0","0","0","84700","","null","","","null","85","","","","","","","","","","","","","","","",""
"","ITI","","html-keyboard-response","573","584688","0.0-1.0-774.0","0","0","84700","","null","","","null","85","","","","","","","","","","","","","","","NaN",""
"","S1","","html-keyboard-response","574","584840","0.0-1.0-776.0","0","0","84700","","null","","","null","86","","","","","","","","","","","","","","","",""
"","ISI","","html-keyboard-response","575","586842","0.0-1.0-777.0","0","0","84700","","null","","","null","86","NaN","","","","","","","","","","","","","","",""
"","S2","","html-keyboard-response","576","586992","0.0-1.0-778.0","0","0","84700","","null","","","null","86","","NaN","","","","","","","","","","","","","",""
"","response","","html-keyboard-response","577","587967","0.0-1.0-779.0-0.0","0","0","84700","","974","","","68","86","","","2","86","training","adjacent","BA","2","1","R.jpg","M.jpg","1","0","0","",""
"","feedback","","html-keyboard-response","578","588969","0.0-1.0-780.0-0.0","0","0","84700","","null","","","null","86","","","","","","","","","","","","","","","",""
"","time_out","","html-keyboard-response","579","590971","0.0-1.0-782.0-0.0","0","0","84700","","null","","","null","86","","","","","","","","","","","","","","","",""
"","ITI","","html-keyboard-response","580","591972","0.0-1.0-783.0","0","0","84700","","null","","","null","86","","","","","","","","","","","","","","","NaN",""
"","S1","","html-keyboard-response","581","592124","0.0-1.0-785.0","0","0","84700","","null","","","null","87","","","","","","","","","","","","","","","",""
