"success","ttype","start_time","trial_type","trial_index","time_elapsed","internal_node_id","warning","missed_checkup","PID","view_history","rt","responses","repeat_instructions","key_press","index","keypress_isi","keypress_S2","block","trial_num","phase","group_type","pair_type","S1_stim","S2_stim","S1_img","S2_img","S1_chosen","S1_higher","accuracy","keypress_iti","total_bonus_tally"
"true","full_screen","d04062023hr2125","fullscreen","0","6650","0.0-0.0","0","0","89647","","","","","","","","","","","","","","","","","","","","","",""
"","instructions","","instructions","1","65626","0.0-1.0-0.0-0.0","0","0","89647","[{""page_index"":0,""viewing_time"":24138},{""page_index"":1,""viewing_time"":24801},{""page_index"":2,""viewing_time"":7110},{""page_index"":3,""viewing_time"":2925}]","58974","","","","","","","","","","","","","","","","","","","",""
"","comprehension_check","","survey-multi-choice","2","85503","0.0-1.0-0.0-1.0","0","0","89647","","19873","{""Q0"":""True"",""Q1"":""D"",""Q2"":""Once the second image appears and while the screen 'MAKE A CHOICE' is shown"",""Q3"":""Green mark"",""Q4"":""either D or K""}","1","","","","","","","","","","","","","","","","","",""
"","missed_instruction_checkup","","html-keyboard-response","3","87458","0.0-1.0-0.0-2.0-0.0","0","1","89647","","1952","","","32","","","","","","","","","","","","","","","","",""
"","instructions","","instructions","4","112626","0.0-1.0-0.1-0.1","0","0","89647","[{""page_index"":0,""viewing_time"":1948},{""page_index"":1,""viewing_time"":19887},{""page_index"":2,""viewing_time"":1941},{""page_index"":3,""viewing_time"":1391}]","25167","","","","","","","","","","","","","","","","","","","",""
"","comprehension_check","","survey-multi-choice","5","125103","0.0-1.0-0.1-1.1","0","0","89647","","12474","{""Q0"":""True"",""Q1"":""K"",""Q2"":""Once the second image appears and while the screen 'MAKE A CHOICE' is shown"",""Q3"":""Green mark"",""Q4"":""either D or K""}","0","","","","","","","","","","","","","","","","","",""
"","start_exp","","html-keyboard-response","6","135194","0.0-1.0-1.0","0","0","89647","","10087","","","32","","","","","","","","","","","","","","","","",""
"","S1","","html-keyboard-response","7","135347","0.0-1.0-2.0","0","0","89647","","null","","","null","0","","","","","","","","","","","","","","","",""
"","ISI","","html-keyboard-response","8","137349","0.0-1.0-3.0","0","0","89647","","null","","","null","0","NaN","","","","","","","","","","","","","","",""
"","S2","","html-keyboard-response","9","137501","0.0-1.0-4.0","0","0","89647","","null","","","null","0","","NaN","","","","","","","","","","","","","",""
"","response","","html-keyboard-response","10","139352","0.0-1.0-5.0-0.0","0","0","89647","","null","","","null","0","","","1","0","training","adjacent","DE","4","5","L.jpg","M.jpg","NaN","1","0","",""
"","too_slow_prompt","","html-keyboard-response","11","140355","0.0-1.0-7.0-0.0","1","0","89647","","null","","","null","","","","","","","","","","","","","","","","",""
"","time_out","","html-keyboard-response","12","142356","0.0-1.0-8.0-0.0","0","0","89647","","null","","","null","0","","","","","","","","","","","","","","","",""
"","ITI","","html-keyboard-response","13","143358","0.0-1.0-9.0","0","0","89647","","null","","","null","0","","","","","","","","","","","","","","","NaN",""
"","S1","","html-keyboard-response","14","143509","0.0-1.0-11.0","0","0","89647","","null","","","null","1","","","","","","","","","","","","","","","",""
"","ISI","","html-keyboard-response","15","145512","0.0-1.0-12.0","0","0","89647","","null","","","null","1","NaN","","","","","","","","","","","","","","",""
"","S2","","html-keyboard-response","16","145663","0.0-1.0-13.0","0","0","89647","","null","","","null","1","","NaN","","","","","","","","","","","","","",""
"","response","","html-keyboard-response","17","146120","0.0-1.0-14.0-0.0","0","0","89647","","455","","","75","1","","","1","1","training","adjacent","DE","4","5","L.jpg","M.jpg","1","1","1","",""
"","feedback","","html-keyboard-response","18","147122","0.0-1.0-15.0-0.0","0","0","89647","","null","","","null","1","","","","","","","","","","","","","","","",""
"","ITI","","html-keyboard-response","19","148124","0.0-1.0-18.0","0","0","89647","","null","","","null","1","","","","","","","","","","","","","","","NaN",""
"","S1","","html-keyboard-response","20","148276","0.0-1.0-20.0","0","0","89647","","null","","","null","2","","","","","","","","","","","","","","","",""
"","ISI","","html-keyboard-response","21","150277","0.0-1.0-21.0","0","0","89647","","null","","","null","2","NaN","","","","","","","","","","","","","","",""
"","S2","","html-keyboard-response","22","150430","0.0-1.0-22.0","0","0","89647","","null","","","null","2","","NaN","","","","","","","","","","","","","",""
"","response","","html-keyboard-response","23","151169","0.0-1.0-23.0-0.0","0","0","89647","","737","","","75","2","","","1","2","training","adjacent","CD","3","4","R.jpg","L.jpg","1","1","1","",""
"","feedback","","html-keyboard-response","24","152172","0.0-1.0-24.0-0.0","0","0","89647","","null","","","null","2","","","","","","","","","","","","","","","",""
"","ITI","","html-keyboard-response","25","153173","0.0-1.0-27.0","0","0","89647","","null","","","null","2","","","","","","","","","","","","","","","NaN",""
"","S1","","html-keyboard-response","26","153325","0.0-1.0-29.0","0","0","89647","","null","","","null","3","","","","","","","","","","","","","","","",""
"","ISI","","html-keyboard-response","27","155328","0.0-1.0-30.0","0","0","89647","","null","","","null","3","NaN","","","","","","","","","","","","","","",""
"","S2","","html-keyboard-response","28","155481","0.0-1.0-31.0","0","0","89647","","null","","","null","3","","NaN","","","","","","","","","","","","","",""
"","response","","html-keyboard-response","29","156289","0.0-1.0-32.0-0.0","0","0","89647","","806","","","68","3","","","1","3","training","adjacent","BA","2","1","P.jpg","O.jpg","0","0","1","",""
"","feedback","","html-keyboard-response","30","157290","0.0-1.0-33.0-0.0","0","0","89647","","null","","","null","3","","","","","","","","","","","","","","","",""
"","ITI","","html-keyboard-response","31","158294","0.0-1.0-36.0","0","0","89647","","null","","","null","3","","","","","","","","","","","","","","","NaN",""
"","S1","","html-keyboard-response","32","158446","0.0-1.0-38.0","0","0","89647","","null","","","null","4","","","","","","","","","","","","","","","",""
"","ISI","","html-keyboard-response","33","160448","0.0-1.0-39.0","0","0","89647","","null","","","null","4","NaN","","","","","","","","","","","","","","",""
"","S2","","html-keyboard-response","34","160600","0.0-1.0-40.0","0","0","89647","","null","","","null","4","","NaN","","","","","","","","","","","","","",""
"","response","","html-keyboard-response","35","161334","0.0-1.0-41.0-0.0","0","0","89647","","733","","","68","4","","","1","4","training","adjacent","FE","6","5","N.jpg","M.jpg","0","0","1","",""
"","feedback","","html-keyboard-response","36","162336","0.0-1.0-42.0-0.0","0","0","89647","","null","","","null","4","","","","","","","","","","","","","","","",""
"","ITI","","html-keyboard-response","37","163339","0.0-1.0-45.0","0","0","89647","","null","","","null","4","","","","","","","","","","","","","","","NaN",""
"","S1","","html-keyboard-response","38","163491","0.0-1.0-47.0","0","0","89647","","null","","","null","5","","","","","","","","","","","","","","","",""
"","ISI","","html-keyboard-response","39","165493","0.0-1.0-48.0","0","0","89647","","null","","","null","5","NaN","","","","","","","","","","","","","","",""
"","S2","","html-keyboard-response","40","165644","0.0-1.0-49.0","0","0","89647","","null","","","null","5","","NaN","","","","","","","","","","","","","",""
"","response","","html-keyboard-response","41","165906","0.0-1.0-50.0-0.0","0","0","89647","","260","","","75","5","","","1","5","training","adjacent","FG","6","7","N.jpg","Q.jpg","1","1","1","",""
"","feedback","","html-keyboard-response","42","166908","0.0-1.0-51.0-0.0","0","0","89647","","null","","","null","5","","","","","","","","","","","","","","","",""
"","ITI","","html-keyboard-response","43","167911","0.0-1.0-54.0","0","0","89647","","null","","","null","5","","","","","","","","","","","","","","","NaN",""
"","S1","","html-keyboard-response","44","168063","0.0-1.0-56.0","0","0","89647","","null","","","null","6","","","","","","","","","","","","","","","",""
"","ISI","","html-keyboard-response","45","170064","0.0-1.0-57.0","0","0","89647","","null","","","null","6","NaN","","","","","","","","","","","","","","",""
"","S2","","html-keyboard-response","46","170217","0.0-1.0-58.0","0","0","89647","","null","","","null","6","","NaN","","","","","","","","","","","","","",""
"","response","","html-keyboard-response","47","171040","0.0-1.0-59.0-0.0","0","0","89647","","821","","","75","6","","","1","6","training","adjacent","ED","5","4","M.jpg","L.jpg","1","0","0","",""
"","feedback","","html-keyboard-response","48","172042","0.0-1.0-60.0-0.0","0","0","89647","","null","","","null","6","","","","","","","","","","","","","","","",""
"","time_out","","html-keyboard-response","49","174044","0.0-1.0-62.0-0.0","0","0","89647","","null","","","null","6","","","","","","","","","","","","","","","",""
"","ITI","","html-keyboard-response","50","175045","0.0-1.0-63.0","0","0","89647","","null","","","null","6","","","","","","","","","","","","","","","NaN",""
"","S1","","html-keyboard-response","51","175199","0.0-1.0-65.0","0","0","89647","","null","","","null","7","","","","","","","","","","","","","","","",""
"","ISI","","html-keyboard-response","52","177201","0.0-1.0-66.0","0","0","89647","","null","","","null","7","NaN","","","","","","","","","","","","","","",""
"","S2","","html-keyboard-response","53","177353","0.0-1.0-67.0","0","0","89647","","null","","","null","7","","NaN","","","","","","","","","","","","","",""
"","response","","html-keyboard-response","54","177735","0.0-1.0-68.0-0.0","0","0","89647","","381","","","68","7","","","1","7","training","adjacent","BC","2","3","P.jpg","R.jpg","0","1","0","",""
"","feedback","","html-keyboard-response","55","178738","0.0-1.0-69.0-0.0","0","0","89647","","null","","","null","7","","","","","","","","","","","","","","","",""
"","time_out","","html-keyboard-response","56","180740","0.0-1.0-71.0-0.0","0","0","89647","","null","","","null","7","","","","","","","","","","","","","","","",""
"","ITI","","html-keyboard-response","57","181743","0.0-1.0-72.0","0","0","89647","","null","","","null","7","","","","","","","","","","","","","","","NaN",""
"","S1","","html-keyboard-response","58","181894","0.0-1.0-74.0","0","0","89647","","null","","","null","8","","","","","","","","","","","","","","","",""
"","ISI","","html-keyboard-response","59","183896","0.0-1.0-75.0","0","0","89647","","null","","","null","8","NaN","","","","","","","","","","","","","","",""
"","S2","","html-keyboard-response","60","184048","0.0-1.0-76.0","0","0","89647","","null","","","null","8","","NaN","","","","","","","","","","","","","",""
"","response","","html-keyboard-response","61","184328","0.0-1.0-77.0-0.0","0","0","89647","","278","","","75","8","","","1","8","training","adjacent","FE","6","5","N.jpg","M.jpg","1","0","0","",""
"","feedback","","html-keyboard-response","62","185329","0.0-1.0-78.0-0.0","0","0","89647","","null","","","null","8","","","","","","","","","","","","","","","",""
"","time_out","","html-keyboard-response","63","187330","0.0-1.0-80.0-0.0","0","0","89647","","null","","","null","8","","","","","","","","","","","","","","","",""
"","ITI","","html-keyboard-response","64","188332","0.0-1.0-81.0","0","0","89647","","null","","","null","8","","","","","","","","","","","","","","","NaN",""
"","S1","","html-keyboard-response","65","188484","0.0-1.0-83.0","0","0","89647","","null","","","null","9","","","","","","","","","","","","","","","",""
"","ISI","","html-keyboard-response","66","190485","0.0-1.0-84.0","0","0","89647","","null","","","null","9","NaN","","","","","","","","","","","","","","",""
"","S2","","html-keyboard-response","67","190639","0.0-1.0-85.0","0","0","89647","","null","","","null","9","","NaN","","","","","","","","","","","","","",""
"","response","","html-keyboard-response","68","191117","0.0-1.0-86.0-0.0","0","0","89647","","477","","","68","9","","","1","9","training","adjacent","BC","2","3","P.jpg","R.jpg","0","1","0","",""
"","feedback","","html-keyboard-response","69","192118","0.0-1.0-87.0-0.0","0","0","89647","","null","","","null","9","","","","","","","","","","","","","","","",""
"","time_out","","html-keyboard-response","70","194121","0.0-1.0-89.0-0.0","0","0","89647","","null","","","null","9","","","","","","","","","","","","","","","",""
"","ITI","","html-keyboard-response","71","195122","0.0-1.0-90.0","0","0","89647","","null","","","null","9","","","","","","","","","","","","","","","NaN",""
"","S1","","html-keyboard-response","72","195274","0.0-1.0-92.0","0","0","89647","","null","","","null","10","","","","","","","","","","","","","","","",""
"","ISI","","html-keyboard-response","73","197276","0.0-1.0-93.0","0","0","89647","","null","","","null","10","NaN","","","","","","","","","","","","","","",""
"","S2","","html-keyboard-response","74","197427","0.0-1.0-94.0","0","0","89647","","null","","","null","10","","NaN","","","","","","","","","","","","","",""
"","response","","html-keyboard-response","75","198323","0.0-1.0-95.0-0.0","0","0","89647","","894","","","75","10","","","1","10","training","adjacent","BA","2","1","P.jpg","O.jpg","1","0","0","",""
"","feedback","","html-keyboard-response","76","199325","0.0-1.0-96.0-0.0","0","0","89647","","null","","","null","10","","","","","","","","","","","","","","","",""
"","time_out","","html-keyboard-response","77","201327","0.0-1.0-98.0-0.0","0","0","89647","","null","","","null","10","","","","","","","","","","","","","","","",""
"","ITI","","html-keyboard-response","78","202328","0.0-1.0-99.0","0","0","89647","","null","","","null","10","","","","","","","","","","","","","","","NaN",""
"","S1","","html-keyboard-response","79","202480","0.0-1.0-101.0","0","0","89647","","null","","","null","11","","","","","","","","","","","","","","","",""
"","ISI","","html-keyboard-response","80","204482","0.0-1.0-102.0","0","0","89647","","null","","","null","11","NaN","","","","","","","","","","","","","","",""
"","S2","","html-keyboard-response","81","204633","0.0-1.0-103.0","0","0","89647","","null","","","null","11","","NaN","","","","","","","","","","","","","",""
"","response","","html-keyboard-response","82","204950","0.0-1.0-104.0-0.0","0","0","89647","","315","","","75","11","","","1","11","training","adjacent","DC","4","3","L.jpg","R.jpg","1","0","0","",""
"","feedback","","html-keyboard-response","83","205953","0.0-1.0-105.0-0.0","0","0","89647","","null","","","null","11","","","","","","","","","","","","","","","",""
"","time_out","","html-keyboard-response","84","207955","0.0-1.0-107.0-0.0","0","0","89647","","null","","","null","11","","","","","","","","","","","","","","","",""
"","ITI","","html-keyboard-response","85","208957","0.0-1.0-108.0","0","0","89647","","null","","","null","11","","","","","","","","","","","","","","","NaN",""
"","S1","","html-keyboard-response","86","209108","0.0-1.0-110.0","0","0","89647","","null","","","null","12","","","","","","","","","","","","","","","",""
"","ISI","","html-keyboard-response","87","211110","0.0-1.0-111.0","0","0","89647","","null","","","null","12","NaN","","","","","","","","","","","","","","",""
"","S2","","html-keyboard-response","88","211263","0.0-1.0-112.0","0","0","89647","","null","","","null","12","","NaN","","","","","","","","","","","","","",""
"","response","","html-keyboard-response","89","211880","0.0-1.0-113.0-0.0","0","0","89647","","615","","","68","12","","","1","12","training","adjacent","EF","5","6","M.jpg","N.jpg","0","1","0","",""
"","feedback","","html-keyboard-response","90","212883","0.0-1.0-114.0-0.0","0","0","89647","","null","","","null","12","","","","","","","","","","","","","","","",""
"","time_out","","html-keyboard-response","91","214884","0.0-1.0-116.0-0.0","0","0","89647","","null","","","null","12","","","","","","","","","","","","","","","",""
"","ITI","","html-keyboard-response","92","215885","0.0-1.0-117.0","0","0","89647","","null","","","null","12","","","","","","","","","","","","","","","NaN",""
"","S1","","html-keyboard-response","93","216037","0.0-1.0-119.0","0","0","89647","","null","","","null","13","","","","","","","","","","","","","","","",""
"","ISI","","html-keyboard-response","94","218040","0.0-1.0-120.0","0","0","89647","","null","","","null","13","NaN","","","","","","","","","","","","","","",""
"","S2","","html-keyboard-response","95","218191","0.0-1.0-121.0","0","0","89647","","null","","","null","13","","NaN","","","","","","","","","","","","","",""
"","response","","html-keyboard-response","96","218958","0.0-1.0-122.0-0.0","0","0","89647","","765","","","68","13","","","1","13","training","adjacent","AB","1","2","O.jpg","P.jpg","0","1","0","",""
"","feedback","","html-keyboard-response","97","219959","0.0-1.0-123.0-0.0","0","0","89647","","null","","","null","13","","","","","","","","","","","","","","","",""
"","time_out","","html-keyboard-response","98","221960","0.0-1.0-125.0-0.0","0","0","89647","","null","","","null","13","","","","","","","","","","","","","","","",""
"","ITI","","html-keyboard-response","99","222963","0.0-1.0-126.0","0","0","89647","","null","","","null","13","","","","","","","","","","","","","","","NaN",""
"","S1","","html-keyboard-response","100","223115","0.0-1.0-128.0","0","0","89647","","null","","","null","14","","","","","","","","","","","","","","","",""
"","ISI","","html-keyboard-response","101","225116","0.0-1.0-129.0","0","0","89647","","null","","","null","14","NaN","","","","","","","","","","","","","","",""
"","S2","","html-keyboard-response","102","225267","0.0-1.0-130.0","0","0","89647","","null","","","null","14","","NaN","","","","","","","","","","","","","",""
"","response","","html-keyboard-response","103","226284","0.0-1.0-131.0-0.0","0","0","89647","","1014","","","68","14","","","1","14","training","adjacent","AB","1","2","O.jpg","P.jpg","0","1","0","",""
"","feedback","","html-keyboard-response","104","227285","0.0-1.0-132.0-0.0","0","0","89647","","null","","","null","14","","","","","","","","","","","","","","","",""
"","time_out","","html-keyboard-response","105","229287","0.0-1.0-134.0-0.0","0","0","89647","","null","","","null","14","","","","","","","","","","","","","","","",""
"","ITI","","html-keyboard-response","106","230288","0.0-1.0-135.0","0","0","89647","","null","","","null","14","","","","","","","","","","","","","","","NaN",""
"","S1","","html-keyboard-response","107","230440","0.0-1.0-137.0","0","0","89647","","null","","","null","15","","","","","","","","","","","","","","","",""
"","ISI","","html-keyboard-response","108","232441","0.0-1.0-138.0","0","0","89647","","null","","","null","15","NaN","","","","","","","","","","","","","","",""
"","S2","","html-keyboard-response","109","232593","0.0-1.0-139.0","0","0","89647","","null","","","null","15","","NaN","","","","","","","","","","","","","",""
"","response","","html-keyboard-response","110","232932","0.0-1.0-140.0-0.0","0","0","89647","","337","","","75","15","","","1","15","training","adjacent","DE","4","5","L.jpg","M.jpg","1","1","1","",""
"","feedback","","html-keyboard-response","111","233934","0.0-1.0-141.0-0.0","0","0","89647","","null","","","null","15","","","","","","","","","","","","","","","",""
"","ITI","","html-keyboard-response","112","234936","0.0-1.0-144.0","0","0","89647","","null","","","null","15","","","","","","","","","","","","","","","NaN",""
"","S1","","html-keyboard-response","113","235088","0.0-1.0-146.0","0","0","89647","","null","","","null","16","","","","","","","","","","","","","","","",""
"","ISI","","html-keyboard-response","114","237090","0.0-1.0-147.0","0","0","89647","","null","","","null","16","NaN","","","","","","","","","","","","","","",""
"","S2","","html-keyboard-response","115","237241","0.0-1.0-148.0","0","0","89647","","null","","","null","16","","NaN","","","","","","","","","","","","","",""
"","response","","html-keyboard-response","116","238224","0.0-1.0-149.0-0.0","0","0","89647","","980","","","75","16","","","1","16","training","adjacent","CD","3","4","R.jpg","L.jpg","1","1","1","",""
"","feedback","","html-keyboard-response","117","239225","0.0-1.0-150.0-0.0","0","0","89647","","null","","","null","16","","","","","","","","","","","","","","","",""
"","ITI","","html-keyboard-response","118","240228","0.0-1.0-153.0","0","0","89647","","null","","","null","16","","","","","","","","","","","","","","","NaN",""
"","S1","","html-keyboard-response","119","240381","0.0-1.0-155.0","0","0","89647","","null","","","null","17","","","","","","","","","","","","","","","",""
"","ISI","","html-keyboard-response","120","242383","0.0-1.0-156.0","0","0","89647","","null","","","null","17","NaN","","","","","","","","","","","","","","",""
"","S2","","html-keyboard-response","121","242535","0.0-1.0-157.0","0","0","89647","","null","","","null","17","","NaN","","","","","","","","","","","","","",""
"","response","","html-keyboard-response","122","243265","0.0-1.0-158.0-0.0","0","0","89647","","728","","","68","17","","","1","17","training","adjacent","ED","5","4","M.jpg","L.jpg","0","0","1","",""
"","feedback","","html-keyboard-response","123","244266","0.0-1.0-159.0-0.0","0","0","89647","","null","","","null","17","","","","","","","","","","","","","","","",""
"","ITI","","html-keyboard-response","124","245268","0.0-1.0-162.0","0","0","89647","","null","","","null","17","","","","","","","","","","","","","","","NaN",""
"","S1","","html-keyboard-response","125","245420","0.0-1.0-164.0","0","0","89647","","null","","","null","18","","","","","","","","","","","","","","","",""
"","ISI","","html-keyboard-response","126","247422","0.0-1.0-165.0","0","0","89647","","null","","","null","18","NaN","","","","","","","","","","","","","","",""
"","S2","","html-keyboard-response","127","247573","0.0-1.0-166.0","0","0","89647","","null","","","null","18","","NaN","","","","","","","","","","","","","",""
"","response","","html-keyboard-response","128","248303","0.0-1.0-167.0-0.0","0","0","89647","","728","","","75","18","","","1","18","training","adjacent","BC","2","3","P.jpg","R.jpg","1","1","1","",""
"","feedback","","html-keyboard-response","129","249305","0.0-1.0-168.0-0.0","0","0","89647","","null","","","null","18","","","","","","","","","","","","","","","",""
"","ITI","","html-keyboard-response","130","250306","0.0-1.0-171.0","0","0","89647","","null","","","null","18","","","","","","","","","","","","","","","NaN",""
"","S1","","html-keyboard-response","131","250458","0.0-1.0-173.0","0","0","89647","","null","","","null","19","","","","","","","","","","","","","","","",""
"","ISI","","html-keyboard-response","132","252461","0.0-1.0-174.0","0","0","89647","","null","","","null","19","NaN","","","","","","","","","","","","","","",""
"","S2","","html-keyboard-response","133","252612","0.0-1.0-175.0","0","0","89647","","null","","","null","19","","NaN","","","","","","","","","","","","","",""
"","response","","html-keyboard-response","134","252989","0.0-1.0-176.0-0.0","0","0","89647","","375","","","68","19","","","1","19","training","adjacent","FG","6","7","N.jpg","Q.jpg","0","1","0","",""
"","feedback","","html-keyboard-response","135","253992","0.0-1.0-177.0-0.0","0","0","89647","","null","","","null","19","","","","","","","","","","","","","","","",""
"","time_out","","html-keyboard-response","136","255994","0.0-1.0-179.0-0.0","0","0","89647","","null","","","null","19","","","","","","","","","","","","","","","",""
"","ITI","","html-keyboard-response","137","256995","0.0-1.0-180.0","0","0","89647","","null","","","null","19","","","","","","","","","","","","","","","NaN",""
"","S1","","html-keyboard-response","138","257147","0.0-1.0-182.0","0","0","89647","","null","","","null","20","","","","","","","","","","","","","","","",""
"","ISI","","html-keyboard-response","139","259149","0.0-1.0-183.0","0","0","89647","","null","","","null","20","NaN","","","","","","","","","","","","","","",""
"","S2","","html-keyboard-response","140","259301","0.0-1.0-184.0","0","0","89647","","null","","","null","20","","NaN","","","","","","","","","","","","","",""
"","response","","html-keyboard-response","141","259765","0.0-1.0-185.0-0.0","0","0","89647","","463","","","75","20","","","1","20","training","adjacent","CB","3","2","R.jpg","P.jpg","1","0","0","",""
"","feedback","","html-keyboard-response","142","260767","0.0-1.0-186.0-0.0","0","0","89647","","null","","","null","20","","","","","","","","","","","","","","","",""
"","time_out","","html-keyboard-response","143","262769","0.0-1.0-188.0-0.0","0","0","89647","","null","","","null","20","","","","","","","","","","","","","","","",""
"","ITI","","html-keyboard-response","144","263771","0.0-1.0-189.0","0","0","89647","","null","","","null","20","","","","","","","","","","","","","","","NaN",""
"","S1","","html-keyboard-response","145","263923","0.0-1.0-191.0","0","0","89647","","null","","","null","21","","","","","","","","","","","","","","","",""
"","ISI","","html-keyboard-response","146","265924","0.0-1.0-192.0","0","0","89647","","null","","","null","21","NaN","","","","","","","","","","","","","","",""
"","S2","","html-keyboard-response","147","266077","0.0-1.0-193.0","0","0","89647","","null","","","null","21","","NaN","","","","","","","","","","","","","",""
"","response","","html-keyboard-response","148","266502","0.0-1.0-194.0-0.0","0","0","89647","","424","","","68","21","","","1","21","training","adjacent","EF","5","6","M.jpg","N.jpg","0","1","0","",""
"","feedback","","html-keyboard-response","149","267503","0.0-1.0-195.0-0.0","0","0","89647","","null","","","null","21","","","","","","","","","","","","","","","",""
"","time_out","","html-keyboard-response","150","269505","0.0-1.0-197.0-0.0","0","0","89647","","null","","","null","21","","","","","","","","","","","","","","","",""
"","ITI","","html-keyboard-response","151","270507","0.0-1.0-198.0","0","0","89647","","null","","","null","21","","","","","","","","","","","","","","","NaN",""
"","S1","","html-keyboard-response","152","270659","0.0-1.0-200.0","0","0","89647","","null","","","null","22","","","","","","","","","","","","","","","",""
"","ISI","","html-keyboard-response","153","272661","0.0-1.0-201.0","0","0","89647","","null","","","null","22","NaN","","","","","","","","","","","","","","",""
"","S2","","html-keyboard-response","154","272812","0.0-1.0-202.0","0","0","89647","","null","","","null","22","","NaN","","","","","","","","","","","","","",""
"","response","","html-keyboard-response","155","273456","0.0-1.0-203.0-0.0","0","0","89647","","641","","","75","22","","","1","22","training","adjacent","AB","1","2","O.jpg","P.jpg","1","1","1","",""
"","feedback","","html-keyboard-response","156","274458","0.0-1.0-204.0-0.0","0","0","89647","","null","","","null","22","","","","","","","","","","","","","","","",""
"","ITI","","html-keyboard-response","157","275460","0.0-1.0-207.0","0","0","89647","","null","","","null","22","","","","","","","","","","","","","","","NaN",""
"","S1","","html-keyboard-response","158","275612","0.0-1.0-209.0","0","0","89647","","null","","","null","23","","","","","","","","","","","","","","","",""
"","ISI","","html-keyboard-response","159","277613","0.0-1.0-210.0","0","0","89647","","null","","","null","23","NaN","","","","","","","","","","","","","","",""
"","S2","","html-keyboard-response","160","277764","0.0-1.0-211.0","0","0","89647","","null","","","null","23","","NaN","","","","","","","","","","","","","",""
"","response","","html-keyboard-response","161","278615","0.0-1.0-212.0-0.0","0","0","89647","","849","","","68","23","","","1","23","training","adjacent","BA","2","1","P.jpg","O.jpg","0","0","1","",""
"","feedback","","html-keyboard-response","162","279617","0.0-1.0-213.0-0.0","0","0","89647","","null","","","null","23","","","","","","","","","","","","","","","",""
"","ITI","","html-keyboard-response","163","280619","0.0-1.0-216.0","0","0","89647","","null","","","null","23","","","","","","","","","","","","","","","NaN",""
"","S1","","html-keyboard-response","164","280771","0.0-1.0-218.0","0","0","89647","","null","","","null","24","","","","","","","","","","","","","","","",""
"","ISI","","html-keyboard-response","165","282773","0.0-1.0-219.0","0","0","89647","","null","","","null","24","NaN","","","","","","","","","","","","","","",""
"","S2","","html-keyboard-response","166","282924","0.0-1.0-220.0","0","0","89647","","null","","","null","24","","NaN","","","","","","","","","","","","","",""
"","response","","html-keyboard-response","167","283359","0.0-1.0-221.0-0.0","0","0","89647","","432","","","75","24","","","1","24","training","adjacent","GF","7","6","Q.jpg","N.jpg","1","0","0","",""
"","feedback","","html-keyboard-response","168","284363","0.0-1.0-222.0-0.0","0","0","89647","","null","","","null","24","","","","","","","","","","","","","","","",""
"","time_out","","html-keyboard-response","169","286365","0.0-1.0-224.0-0.0","0","0","89647","","null","","","null","24","","","","","","","","","","","","","","","",""
"","ITI","","html-keyboard-response","170","287366","0.0-1.0-225.0","0","0","89647","","null","","","null","24","","","","","","","","","","","","","","","NaN",""
"","S1","","html-keyboard-response","171","287518","0.0-1.0-227.0","0","0","89647","","null","","","null","25","","","","","","","","","","","","","","","",""
"","ISI","","html-keyboard-response","172","289521","0.0-1.0-228.0","0","0","89647","","null","","","null","25","NaN","","","","","","","","","","","","","","",""
"","S2","","html-keyboard-response","173","289674","0.0-1.0-229.0","0","0","89647","","null","","","null","25","","NaN","","","","","","","","","","","","","",""
"","response","","html-keyboard-response","174","290452","0.0-1.0-230.0-0.0","0","0","89647","","776","","","68","25","","","1","25","training","adjacent","GF","7","6","Q.jpg","N.jpg","0","0","1","",""
"","feedback","","html-keyboard-response","175","291454","0.0-1.0-231.0-0.0","0","0","89647","","null","","","null","25","","","","","","","","","","","","","","","",""
"","ITI","","html-keyboard-response","176","292455","0.0-1.0-234.0","0","0","89647","","null","","","null","25","","","","","","","","","","","","","","","NaN",""
"","S1","","html-keyboard-response","177","292608","0.0-1.0-236.0","0","0","89647","","null","","","null","26","","","","","","","","","","","","","","","",""
"","ISI","","html-keyboard-response","178","294609","0.0-1.0-237.0","0","0","89647","","null","","","null","26","NaN","","","","","","","","","","","","","","",""
"","S2","","html-keyboard-response","179","294761","0.0-1.0-238.0","0","0","89647","","null","","","null","26","","NaN","","","","","","","","","","","","","",""
"","response","","html-keyboard-response","180","295313","0.0-1.0-239.0-0.0","0","0","89647","","551","","","68","26","","","1","26","training","adjacent","BC","2","3","P.jpg","R.jpg","0","1","0","",""
"","feedback","","html-keyboard-response","181","296315","0.0-1.0-240.0-0.0","0","0","89647","","null","","","null","26","","","","","","","","","","","","","","","",""
"","time_out","","html-keyboard-response","182","298318","0.0-1.0-242.0-0.0","0","0","89647","","null","","","null","26","","","","","","","","","","","","","","","",""
"","ITI","","html-keyboard-response","183","299320","0.0-1.0-243.0","0","0","89647","","null","","","null","26","","","","","","","","","","","","","","","NaN",""
"","S1","","html-keyboard-response","184","299471","0.0-1.0-245.0","0","0","89647","","null","","","null","27","","","","","","","","","","","","","","","",""
"","ISI","","html-keyboard-response","185","301473","0.0-1.0-246.0","0","0","89647","","null","","","null","27","NaN","","","","","","","","","","","","","","",""
"","S2","","html-keyboard-response","186","301624","0.0-1.0-247.0","0","0","89647","","null","","","null","27","","NaN","","","","","","","","","","","","","",""
"","response","","html-keyboard-response","187","301698","0.0-1.0-248.0-0.0","0","0","89647","","73","","","75","27","","","1","27","training","adjacent","FE","6","5","N.jpg","M.jpg","1","0","0","",""
"","feedback","","html-keyboard-response","188","302701","0.0-1.0-249.0-0.0","0","0","89647","","null","","","null","27","","","","","","","","","","","","","","","",""
"","time_out","","html-keyboard-response","189","304702","0.0-1.0-251.0-0.0","0","0","89647","","null","","","null","27","","","","","","","","","","","","","","","",""
"","ITI","","html-keyboard-response","190","305705","0.0-1.0-252.0","0","0","89647","","null","","","null","27","","","","","","","","","","","","","","","NaN",""
"","S1","","html-keyboard-response","191","305856","0.0-1.0-254.0","0","0","89647","","null","","","null","28","","","","","","","","","","","","","","","",""
"","ISI","","html-keyboard-response","192","307858","0.0-1.0-255.0","0","0","89647","","null","","","null","28","NaN","","","","","","","","","","","","","","",""
"","S2","","html-keyboard-response","193","308009","0.0-1.0-256.0","0","0","89647","","null","","","null","28","","NaN","","","","","","","","","","","","","",""
"","response","","html-keyboard-response","194","308136","0.0-1.0-257.0-0.0","0","0","89647","","125","","","75","28","","","1","28","training","adjacent","GF","7","6","Q.jpg","N.jpg","1","0","0","",""
"","feedback","","html-keyboard-response","195","309138","0.0-1.0-258.0-0.0","0","0","89647","","null","","","null","28","","","","","","","","","","","","","","","",""
"","time_out","","html-keyboard-response","196","311141","0.0-1.0-260.0-0.0","0","0","89647","","null","","","null","28","","","","","","","","","","","","","","","",""
"","ITI","","html-keyboard-response","197","312143","0.0-1.0-261.0","0","0","89647","","null","","","null","28","","","","","","","","","","","","","","","NaN",""
"","S1","","html-keyboard-response","198","312294","0.0-1.0-263.0","0","0","89647","","null","","","null","29","","","","","","","","","","","","","","","",""
"","ISI","","html-keyboard-response","199","314296","0.0-1.0-264.0","0","0","89647","","null","","","null","29","NaN","","","","","","","","","","","","","","",""
"","S2","","html-keyboard-response","200","314447","0.0-1.0-265.0","0","0","89647","","null","","","null","29","","NaN","","","","","","","","","","","","","",""
"","response","","html-keyboard-response","201","314622","0.0-1.0-266.0-0.0","0","0","89647","","174","","","68","29","","","1","29","training","adjacent","CB","3","2","R.jpg","P.jpg","0","0","1","",""
"","feedback","","html-keyboard-response","202","315624","0.0-1.0-267.0-0.0","0","0","89647","","null","","","null","29","","","","","","","","","","","","","","","",""
"","ITI","","html-keyboard-response","203","316627","0.0-1.0-270.0","0","0","89647","","null","","","null","29","","","","","","","","","","","","","","","NaN",""
"","S1","","html-keyboard-response","204","316778","0.0-1.0-272.0","0","0","89647","","null","","","null","30","","","","","","","","","","","","","","","",""
"","ISI","","html-keyboard-response","205","318780","0.0-1.0-273.0","0","0","89647","","null","","","null","30","NaN","","","","","","","","","","","","","","",""
"","S2","","html-keyboard-response","206","318931","0.0-1.0-274.0","0","0","89647","","null","","","null","30","","NaN","","","","","","","","","","","","","",""
"","response","","html-keyboard-response","207","319182","0.0-1.0-275.0-0.0","0","0","89647","","250","","","75","30","","","1","30","training","adjacent","CB","3","2","R.jpg","P.jpg","1","0","0","",""
"","feedback","","html-keyboard-response","208","320184","0.0-1.0-276.0-0.0","0","0","89647","","null","","","null","30","","","","","","","","","","","","","","","",""
"","time_out","","html-keyboard-response","209","322185","0.0-1.0-278.0-0.0","0","0","89647","","null","","","null","30","","","","","","","","","","","","","","","",""
"","ITI","","html-keyboard-response","210","323187","0.0-1.0-279.0","0","0","89647","","null","","","null","30","","","","","","","","","","","","","","","NaN",""
"","S1","","html-keyboard-response","211","323339","0.0-1.0-281.0","0","0","89647","","null","","","null","31","","","","","","","","","","","","","","","",""
"","ISI","","html-keyboard-response","212","325341","0.0-1.0-282.0","0","0","89647","","null","","","null","31","NaN","","","","","","","","","","","","","","",""
"","S2","","html-keyboard-response","213","325492","0.0-1.0-283.0","0","0","89647","","null","","","null","31","","NaN","","","","","","","","","","","","","",""
"","response","","html-keyboard-response","214","326158","0.0-1.0-284.0-0.0","0","0","89647","","664","","","68","31","","","1","31","training","adjacent","ED","5","4","M.jpg","L.jpg","0","0","1","",""
"","feedback","","html-keyboard-response","215","327160","0.0-1.0-285.0-0.0","0","0","89647","","null","","","null","31","","","","","","","","","","","","","","","",""
"","ITI","","html-keyboard-response","216","328163","0.0-1.0-288.0","0","0","89647","","null","","","null","31","","","","","","","","","","","","","","","NaN",""
"","S1","","html-keyboard-response","217","328314","0.0-1.0-290.0","0","0","89647","","null","","","null","32","","","","","","","","","","","","","","","",""
"","ISI","","html-keyboard-response","218","330316","0.0-1.0-291.0","0","0","89647","","null","","","null","32","NaN","","","","","","","","","","","","","","",""
"","S2","","html-keyboard-response","219","330467","0.0-1.0-292.0","0","0","89647","","null","","","null","32","","NaN","","","","","","","","","","","","","",""
"","response","","html-keyboard-response","220","330773","0.0-1.0-293.0-0.0","0","0","89647","","304","","","75","32","","","1","32","training","adjacent","BA","2","1","P.jpg","O.jpg","1","0","0","",""
"","feedback","","html-keyboard-response","221","331775","0.0-1.0-294.0-0.0","0","0","89647","","null","","","null","32","","","","","","","","","","","","","","","",""
"","time_out","","html-keyboard-response","222","333777","0.0-1.0-296.0-0.0","0","0","89647","","null","","","null","32","","","","","","","","","","","","","","","",""
"","ITI","","html-keyboard-response","223","334778","0.0-1.0-297.0","0","0","89647","","null","","","null","32","","","","","","","","","","","","","","","NaN",""
"","S1","","html-keyboard-response","224","334929","0.0-1.0-299.0","0","0","89647","","null","","","null","33","","","","","","","","","","","","","","","",""
"","ISI","","html-keyboard-response","225","336931","0.0-1.0-300.0","0","0","89647","","null","","","null","33","NaN","","","","","","","","","","","","","","",""
"","S2","","html-keyboard-response","226","337082","0.0-1.0-301.0","0","0","89647","","null","","","null","33","","NaN","","","","","","","","","","","","","",""
"","response","","html-keyboard-response","227","337608","0.0-1.0-302.0-0.0","0","0","89647","","524","","","68","33","","","1","33","training","adjacent","DC","4","3","L.jpg","R.jpg","0","0","1","",""
"","feedback","","html-keyboard-response","228","338611","0.0-1.0-303.0-0.0","0","0","89647","","null","","","null","33","","","","","","","","","","","","","","","",""
"","ITI","","html-keyboard-response","229","339613","0.0-1.0-306.0","0","0","89647","","null","","","null","33","","","","","","","","","","","","","","","NaN",""
"","S1","","html-keyboard-response","230","339764","0.0-1.0-308.0","0","0","89647","","null","","","null","34","","","","","","","","","","","","","","","",""
"","ISI","","html-keyboard-response","231","341766","0.0-1.0-309.0","0","0","89647","","null","","","null","34","NaN","","","","","","","","","","","","","","",""
"","S2","","html-keyboard-response","232","341917","0.0-1.0-310.0","0","0","89647","","null","","","null","34","","NaN","","","","","","","","","","","","","",""
"","response","","html-keyboard-response","233","342050","0.0-1.0-311.0-0.0","0","0","89647","","131","","","75","34","","","1","34","training","adjacent","CD","3","4","R.jpg","L.jpg","1","1","1","",""
"","feedback","","html-keyboard-response","234","343053","0.0-1.0-312.0-0.0","0","0","89647","","null","","","null","34","","","","","","","","","","","","","","","",""
"","ITI","","html-keyboard-response","235","344056","0.0-1.0-315.0","0","0","89647","","null","","","null","34","","","","","","","","","","","","","","","NaN",""
"","S1","","html-keyboard-response","236","344208","0.0-1.0-317.0","0","0","89647","","null","","","null","35","","","","","","","","","","","","","","","",""
"","ISI","","html-keyboard-response","237","346209","0.0-1.0-318.0","0","0","89647","","null","","","null","35","NaN","","","","","","","","","","","","","","",""
"","S2","","html-keyboard-response","238","346360","0.0-1.0-319.0","0","0","89647","","null","","","null","35","","NaN","","","","","","","","","","","","","",""
"","response","","html-keyboard-response","239","346536","0.0-1.0-320.0-0.0","0","0","89647","","174","","","68","35","","","1","35","training","adjacent","AB","1","2","O.jpg","P.jpg","0","1","0","",""
"","feedback","","html-keyboard-response","240","347539","0.0-1.0-321.0-0.0","0","0","89647","","null","","","null","35","","","","","","","","","","","","","","","",""
"","time_out","","html-keyboard-response","241","349541","0.0-1.0-323.0-0.0","0","0","89647","","null","","","null","35","","","","","","","","","","","","","","","",""
"","ITI","","html-keyboard-response","242","350542","0.0-1.0-324.0","0","0","89647","","null","","","null","35","","","","","","","","","","","","","","","NaN",""
"","S1","","html-keyboard-response","243","350694","0.0-1.0-326.0","0","0","89647","","null","","","null","36","","","","","","","","","","","","","","","",""
"","ISI","","html-keyboard-response","244","352695","0.0-1.0-327.0","0","0","89647","","null","","","null","36","NaN","","","","","","","","","","","","","","",""
"","S2","","html-keyboard-response","245","352848","0.0-1.0-328.0","0","0","89647","","null","","","null","36","","NaN","","","","","","","","","","","","","",""
"","response","","html-keyboard-response","246","352985","0.0-1.0-329.0-0.0","0","0","89647","","135","","","75","36","","","1","36","training","adjacent","DC","4","3","L.jpg","R.jpg","1","0","0","",""
"","feedback","","html-keyboard-response","247","353988","0.0-1.0-330.0-0.0","0","0","89647","","null","","","null","36","","","","","","","","","","","","","","","",""
"","time_out","","html-keyboard-response","248","355990","0.0-1.0-332.0-0.0","0","0","89647","","null","","","null","36","","","","","","","","","","","","","","","",""
"","ITI","","html-keyboard-response","249","356990","0.0-1.0-333.0","0","0","89647","","null","","","null","36","","","","","","","","","","","","","","","NaN",""
"","S1","","html-keyboard-response","250","357142","0.0-1.0-335.0","0","0","89647","","null","","","null","37","","","","","","","","","","","","","","","",""
"","ISI","","html-keyboard-response","251","359144","0.0-1.0-336.0","0","0","89647","","null","","","null","37","NaN","","","","","","","","","","","","","","",""
"","S2","","html-keyboard-response","252","359296","0.0-1.0-337.0","0","0","89647","","null","","","null","37","","NaN","","","","","","","","","","","","","",""
"","response","","html-keyboard-response","253","359784","0.0-1.0-338.0-0.0","0","0","89647","","486","","","75","37","","","1","37","training","adjacent","FE","6","5","N.jpg","M.jpg","1","0","0","",""
"","feedback","","html-keyboard-response","254","360785","0.0-1.0-339.0-0.0","0","0","89647","","null","","","null","37","","","","","","","","","","","","","","","",""
"","time_out","","html-keyboard-response","255","362787","0.0-1.0-341.0-0.0","0","0","89647","","null","","","null","37","","","","","","","","","","","","","","","",""
"","ITI","","html-keyboard-response","256","363789","0.0-1.0-342.0","0","0","89647","","null","","","null","37","","","","","","","","","","","","","","","NaN",""
"","S1","","html-keyboard-response","257","363940","0.0-1.0-344.0","0","0","89647","","null","","","null","38","","","","","","","","","","","","","","","",""
"","ISI","","html-keyboard-response","258","365944","0.0-1.0-345.0","0","0","89647","","null","","","null","38","NaN","","","","","","","","","","","","","","",""
"","S2","","html-keyboard-response","259","366096","0.0-1.0-346.0","0","0","89647","","null","","","null","38","","NaN","","","","","","","","","","","","","",""
"","response","","html-keyboard-response","260","366458","0.0-1.0-347.0-0.0","0","0","89647","","360","","","68","38","","","1","38","training","adjacent","EF","5","6","M.jpg","N.jpg","0","1","0","",""
"","feedback","","html-keyboard-response","261","367458","0.0-1.0-348.0-0.0","0","0","89647","","null","","","null","38","","","","","","","","","","","","","","","",""
"","time_out","","html-keyboard-response","262","369460","0.0-1.0-350.0-0.0","0","0","89647","","null","","","null","38","","","","","","","","","","","","","","","",""
"","ITI","","html-keyboard-response","263","370462","0.0-1.0-351.0","0","0","89647","","null","","","null","38","","","","","","","","","","","","","","","NaN",""
"","S1","","html-keyboard-response","264","370614","0.0-1.0-353.0","0","0","89647","","null","","","null","39","","","","","","","","","","","","","","","",""
"","ISI","","html-keyboard-response","265","372615","0.0-1.0-354.0","0","0","89647","","null","","","null","39","NaN","","","","","","","","","","","","","","",""
"","S2","","html-keyboard-response","266","372768","0.0-1.0-355.0","0","0","89647","","null","","","null","39","","NaN","","","","","","","","","","","","","",""
"","response","","html-keyboard-response","267","373370","0.0-1.0-356.0-0.0","0","0","89647","","600","","","75","39","","","1","39","training","adjacent","CD","3","4","R.jpg","L.jpg","1","1","1","",""
"","feedback","","html-keyboard-response","268","374373","0.0-1.0-357.0-0.0","0","0","89647","","null","","","null","39","","","","","","","","","","","","","","","",""
"","ITI","","html-keyboard-response","269","375374","0.0-1.0-360.0","0","0","89647","","null","","","null","39","","","","","","","","","","","","","","","NaN",""
"","S1","","html-keyboard-response","270","375527","0.0-1.0-362.0","0","0","89647","","null","","","null","40","","","","","","","","","","","","","","","",""
"","ISI","","html-keyboard-response","271","377528","0.0-1.0-363.0","0","0","89647","","null","","","null","40","NaN","","","","","","","","","","","","","","",""
"","S2","","html-keyboard-response","272","377680","0.0-1.0-364.0","0","0","89647","","null","","","null","40","","NaN","","","","","","","","","","","","","",""
"","response","","html-keyboard-response","273","378162","0.0-1.0-365.0-0.0","0","0","89647","","480","","","68","40","","","1","40","training","adjacent","ED","5","4","M.jpg","L.jpg","0","0","1","",""
"","feedback","","html-keyboard-response","274","379164","0.0-1.0-366.0-0.0","0","0","89647","","null","","","null","40","","","","","","","","","","","","","","","",""
"","ITI","","html-keyboard-response","275","380165","0.0-1.0-369.0","0","0","89647","","null","","","null","40","","","","","","","","","","","","","","","NaN",""
"","S1","","html-keyboard-response","276","380317","0.0-1.0-371.0","0","0","89647","","null","","","null","41","","","","","","","","","","","","","","","",""
"","ISI","","html-keyboard-response","277","382319","0.0-1.0-372.0","0","0","89647","","null","","","null","41","NaN","","","","","","","","","","","","","","",""
"","S2","","html-keyboard-response","278","382471","0.0-1.0-373.0","0","0","89647","","null","","","null","41","","NaN","","","","","","","","","","","","","",""
"","response","","html-keyboard-response","279","383050","0.0-1.0-374.0-0.0","0","0","89647","","578","","","75","41","","","1","41","training","adjacent","CB","3","2","R.jpg","P.jpg","1","0","0","",""
"","feedback","","html-keyboard-response","280","384052","0.0-1.0-375.0-0.0","0","0","89647","","null","","","null","41","","","","","","","","","","","","","","","",""
"","time_out","","html-keyboard-response","281","386054","0.0-1.0-377.0-0.0","0","0","89647","","null","","","null","41","","","","","","","","","","","","","","","",""
"","ITI","","html-keyboard-response","282","387055","0.0-1.0-378.0","0","0","89647","","null","","","null","41","","","","","","","","","","","","","","","NaN",""
"","S1","","html-keyboard-response","283","387206","0.0-1.0-380.0","0","0","89647","","null","","","null","42","","","","","","","","","","","","","","","",""
"","ISI","","html-keyboard-response","284","389208","0.0-1.0-381.0","0","0","89647","","null","","","null","42","NaN","","","","","","","","","","","","","","",""
"","S2","","html-keyboard-response","285","389361","0.0-1.0-382.0","0","0","89647","","null","","","null","42","","NaN","","","","","","","","","","","","","",""
"","response","","html-keyboard-response","286","389939","0.0-1.0-383.0-0.0","0","0","89647","","577","","","75","42","","","1","42","training","adjacent","GF","7","6","Q.jpg","N.jpg","1","0","0","",""
"","feedback","","html-keyboard-response","287","390943","0.0-1.0-384.0-0.0","0","0","89647","","null","","","null","42","","","","","","","","","","","","","","","",""
"","time_out","","html-keyboard-response","288","392945","0.0-1.0-386.0-0.0","0","0","89647","","null","","","null","42","","","","","","","","","","","","","","","",""
"","ITI","","html-keyboard-response","289","393947","0.0-1.0-387.0","0","0","89647","","null","","","null","42","","","","","","","","","","","","","","","NaN",""
"","S1","","html-keyboard-response","290","394099","0.0-1.0-389.0","0","0","89647","","null","","","null","43","","","","","","","","","","","","","","","",""
"","ISI","","html-keyboard-response","291","396101","0.0-1.0-390.0","0","0","89647","","null","","","null","43","NaN","","","","","","","","","","","","","","",""
"","S2","","html-keyboard-response","292","396254","0.0-1.0-391.0","0","0","89647","","null","","","null","43","","NaN","","","","","","","","","","","","","",""
"","response","","html-keyboard-response","293","396674","0.0-1.0-392.0-0.0","0","0","89647","","419","","","75","43","","","1","43","training","adjacent","DE","4","5","L.jpg","M.jpg","1","1","1","",""
"","feedback","","html-keyboard-response","294","397676","0.0-1.0-393.0-0.0","0","0","89647","","null","","","null","43","","","","","","","","","","","","","","","",""
"","ITI","","html-keyboard-response","295","398678","0.0-1.0-396.0","0","0","89647","","null","","","null","43","","","","","","","","","","","","","","","NaN",""
"","S1","","html-keyboard-response","296","398829","0.0-1.0-398.0","0","0","89647","","null","","","null","44","","","","","","","","","","","","","","","",""
"","ISI","","html-keyboard-response","297","400831","0.0-1.0-399.0","0","0","89647","","null","","","null","44","NaN","","","","","","","","","","","","","","",""
"","S2","","html-keyboard-response","298","400983","0.0-1.0-400.0","0","0","89647","","null","","","null","44","","NaN","","","","","","","","","","","","","",""
"","response","","html-keyboard-response","299","402046","0.0-1.0-401.0-0.0","0","0","89647","","1062","","","68","44","","","1","44","training","adjacent","FG","6","7","N.jpg","Q.jpg","0","1","0","",""
"","feedback","","html-keyboard-response","300","403049","0.0-1.0-402.0-0.0","0","0","89647","","null","","","null","44","","","","","","","","","","","","","","","",""
"","time_out","","html-keyboard-response","301","405051","0.0-1.0-404.0-0.0","0","0","89647","","null","","","null","44","","","","","","","","","","","","","","","",""
"","ITI","","html-keyboard-response","302","406054","0.0-1.0-405.0","0","0","89647","","null","","","null","44","","","","","","","","","","","","","","","NaN",""
"","S1","","html-keyboard-response","303","406205","0.0-1.0-407.0","0","0","89647","","null","","","null","45","","","","","","","","","","","","","","","",""
"","ISI","","html-keyboard-response","304","408208","0.0-1.0-408.0","0","0","89647","","null","","","null","45","NaN","","","","","","","","","","","","","","",""
"","S2","","html-keyboard-response","305","408360","0.0-1.0-409.0","0","0","89647","","null","","","null","45","","NaN","","","","","","","","","","","","","",""
"","response","","html-keyboard-response","306","409324","0.0-1.0-410.0-0.0","0","0","89647","","963","","","75","45","","","1","45","training","adjacent","DC","4","3","L.jpg","R.jpg","1","0","0","",""
"","feedback","","html-keyboard-response","307","410326","0.0-1.0-411.0-0.0","0","0","89647","","null","","","null","45","","","","","","","","","","","","","","","",""
"","time_out","","html-keyboard-response","308","412328","0.0-1.0-413.0-0.0","0","0","89647","","null","","","null","45","","","","","","","","","","","","","","","",""
"","ITI","","html-keyboard-response","309","413331","0.0-1.0-414.0","0","0","89647","","null","","","null","45","","","","","","","","","","","","","","","NaN",""
"","S1","","html-keyboard-response","310","413484","0.0-1.0-416.0","0","0","89647","","null","","","null","46","","","","","","","","","","","","","","","",""
"","ISI","","html-keyboard-response","311","415485","0.0-1.0-417.0","0","0","89647","","null","","","null","46","NaN","","","","","","","","","","","","","","",""
"","S2","","html-keyboard-response","312","415638","0.0-1.0-418.0","0","0","89647","","null","","","null","46","","NaN","","","","","","","","","","","","","",""
"","response","","html-keyboard-response","313","416158","0.0-1.0-419.0-0.0","0","0","89647","","518","","","68","46","","","1","46","training","adjacent","FG","6","7","N.jpg","Q.jpg","0","1","0","",""
"","feedback","","html-keyboard-response","314","417161","0.0-1.0-420.0-0.0","0","0","89647","","null","","","null","46","","","","","","","","","","","","","","","",""
"","time_out","","html-keyboard-response","315","419162","0.0-1.0-422.0-0.0","0","0","89647","","null","","","null","46","","","","","","","","","","","","","","","",""
"","ITI","","html-keyboard-response","316","420164","0.0-1.0-423.0","0","0","89647","","null","","","null","46","","","","","","","","","","","","","","","NaN",""
"","S1","","html-keyboard-response","317","420317","0.0-1.0-425.0","0","0","89647","","null","","","null","47","","","","","","","","","","","","","","","",""
"","ISI","","html-keyboard-response","318","422319","0.0-1.0-426.0","0","0","89647","","null","","","null","47","NaN","","","","","","","","","","","","","","",""
"","S2","","html-keyboard-response","319","422471","0.0-1.0-427.0","0","0","89647","","null","","","null","47","","NaN","","","","","","","","","","","","","",""
"","response","","html-keyboard-response","320","422621","0.0-1.0-428.0-0.0","0","0","89647","","149","","","75","47","","","1","47","training","adjacent","EF","5","6","M.jpg","N.jpg","1","1","1","",""
"","feedback","","html-keyboard-response","321","423624","0.0-1.0-429.0-0.0","0","0","89647","","null","","","null","47","","","","","","","","","","","","","","","",""
"","ITI","","html-keyboard-response","322","424625","0.0-1.0-432.0","0","0","89647","","null","","","null","47","","","","","","","","","","","","","","","NaN",""
"","block_over","","html-keyboard-response","323","448267","0.0-1.0-433.0-0.0","0","0","89647","","23640","","","32","47","","","","","","","","","","","","","","","",""
"","S1","","html-keyboard-response","324","448418","0.0-1.0-434.0","0","0","89647","","null","","","null","48","","","","","","","","","","","","","","","",""
"","ISI","","html-keyboard-response","325","450419","0.0-1.0-435.0","0","0","89647","","null","","","null","48","NaN","","","","","","","","","","","","","","",""
"","S2","","html-keyboard-response","326","450572","0.0-1.0-436.0","0","0","89647","","null","","","null","48","","NaN","","","","","","","","","","","","","",""
"","response","","html-keyboard-response","327","451184","0.0-1.0-437.0-0.0","0","0","89647","","611","","","75","48","","","2","48","training","adjacent","BC","2","3","P.jpg","R.jpg","1","1","1","",""
"","feedback","","html-keyboard-response","328","452186","0.0-1.0-438.0-0.0","0","0","89647","","null","","","null","48","","","","","","","","","","","","","","","",""
"","ITI","","html-keyboard-response","329","453188","0.0-1.0-441.0","0","0","89647","","null","","","null","48","","","","","","","","","","","","","","","NaN",""
"","S1","","html-keyboard-response","330","453339","0.0-1.0-443.0","0","0","89647","","null","","","null","49","","","","","","","","","","","","","","","",""
"","ISI","","html-keyboard-response","331","455341","0.0-1.0-444.0","0","0","89647","","null","","","null","49","NaN","","","","","","","","","","","","","","",""
"","S2","","html-keyboard-response","332","455493","0.0-1.0-445.0","0","0","89647","","null","","","null","49","","NaN","","","","","","","","","","","","","",""
"","response","","html-keyboard-response","333","455633","0.0-1.0-446.0-0.0","0","0","89647","","139","","","68","49","","","2","49","training","adjacent","AB","1","2","O.jpg","P.jpg","0","1","0","",""
"","feedback","","html-keyboard-response","334","456634","0.0-1.0-447.0-0.0","0","0","89647","","null","","","null","49","","","","","","","","","","","","","","","",""
"","time_out","","html-keyboard-response","335","458635","0.0-1.0-449.0-0.0","0","0","89647","","null","","","null","49","","","","","","","","","","","","","","","",""
"","ITI","","html-keyboard-response","336","459637","0.0-1.0-450.0","0","0","89647","","null","","","null","49","","","","","","","","","","","","","","","NaN",""
"","S1","","html-keyboard-response","337","459789","0.0-1.0-452.0","0","0","89647","","null","","","null","50","","","","","","","","","","","","","","","",""
"","ISI","","html-keyboard-response","338","461790","0.0-1.0-453.0","0","0","89647","","null","","","null","50","NaN","","","","","","","","","","","","","","",""
"","S2","","html-keyboard-response","339","461943","0.0-1.0-454.0","0","0","89647","","null","","","null","50","","NaN","","","","","","","","","","","","","",""
"","response","","html-keyboard-response","340","462101","0.0-1.0-455.0-0.0","0","0","89647","","156","","","75","50","","","2","50","training","adjacent","DE","4","5","L.jpg","M.jpg","1","1","1","",""
"","feedback","","html-keyboard-response","341","463104","0.0-1.0-456.0-0.0","0","0","89647","","null","","","null","50","","","","","","","","","","","","","","","",""
"","ITI","","html-keyboard-response","342","464107","0.0-1.0-459.0","0","0","89647","","null","","","null","50","","","","","","","","","","","","","","","NaN",""
"","S1","","html-keyboard-response","343","464258","0.0-1.0-461.0","0","0","89647","","null","","","null","51","","","","","","","","","","","","","","","",""
"","ISI","","html-keyboard-response","344","466260","0.0-1.0-462.0","0","0","89647","","null","","","null","51","NaN","","","","","","","","","","","","","","",""
"","S2","","html-keyboard-response","345","466412","0.0-1.0-463.0","0","0","89647","","null","","","null","51","","NaN","","","","","","","","","","","","","",""
"","response","","html-keyboard-response","346","466720","0.0-1.0-464.0-0.0","0","0","89647","","307","","","68","51","","","2","51","training","adjacent","GF","7","6","Q.jpg","N.jpg","0","0","1","",""
"","feedback","","html-keyboard-response","347","467723","0.0-1.0-465.0-0.0","0","0","89647","","null","","","null","51","","","","","","","","","","","","","","","",""
"","ITI","","html-keyboard-response","348","468724","0.0-1.0-468.0","0","0","89647","","null","","","null","51","","","","","","","","","","","","","","","NaN",""
"","S1","","html-keyboard-response","349","468877","0.0-1.0-470.0","0","0","89647","","null","","","null","52","","","","","","","","","","","","","","","",""
"","ISI","","html-keyboard-response","350","470878","0.0-1.0-471.0","0","0","89647","","null","","","null","52","NaN","","","","","","","","","","","","","","",""
"","S2","","html-keyboard-response","351","471030","0.0-1.0-472.0","0","0","89647","","null","","","null","52","","NaN","","","","","","","","","","","","","",""
"","response","","html-keyboard-response","352","471314","0.0-1.0-473.0-0.0","0","0","89647","","282","","","68","52","","","2","52","training","adjacent","BC","2","3","P.jpg","R.jpg","0","1","0","",""
"","feedback","","html-keyboard-response","353","472315","0.0-1.0-474.0-0.0","0","0","89647","","null","","","null","52","","","","","","","","","","","","","","","",""
"","time_out","","html-keyboard-response","354","474317","0.0-1.0-476.0-0.0","0","0","89647","","null","","","null","52","","","","","","","","","","","","","","","",""
"","ITI","","html-keyboard-response","355","475319","0.0-1.0-477.0","0","0","89647","","null","","","null","52","","","","","","","","","","","","","","","NaN",""
"","S1","","html-keyboard-response","356","475471","0.0-1.0-479.0","0","0","89647","","null","","","null","53","","","","","","","","","","","","","","","",""
"","ISI","","html-keyboard-response","357","477472","0.0-1.0-480.0","0","0","89647","","null","","","null","53","NaN","","","","","","","","","","","","","","",""
"","S2","","html-keyboard-response","358","477625","0.0-1.0-481.0","0","0","89647","","null","","","null","53","","NaN","","","","","","","","","","","","","",""
"","response","","html-keyboard-response","359","477736","0.0-1.0-482.0-0.0","0","0","89647","","110","","","68","53","","","2","53","training","adjacent","ED","5","4","M.jpg","L.jpg","0","0","1","",""
"","feedback","","html-keyboard-response","360","478739","0.0-1.0-483.0-0.0","0","0","89647","","null","","","null","53","","","","","","","","","","","","","","","",""
"","ITI","","html-keyboard-response","361","479742","0.0-1.0-486.0","0","0","89647","","null","","","null","53","","","","","","","","","","","","","","","NaN",""
"","S1","","html-keyboard-response","362","479894","0.0-1.0-488.0","0","0","89647","","null","","","null","54","","","","","","","","","","","","","","","",""
"","ISI","","html-keyboard-response","363","481896","0.0-1.0-489.0","0","0","89647","","null","","","null","54","NaN","","","","","","","","","","","","","","",""
"","S2","","html-keyboard-response","364","482048","0.0-1.0-490.0","0","0","89647","","null","","","null","54","","NaN","","","","","","","","","","","","","",""
"","response","","html-keyboard-response","365","483125","0.0-1.0-491.0-0.0","0","0","89647","","1076","","","75","54","","","2","54","training","adjacent","BA","2","1","P.jpg","O.jpg","1","0","0","",""
"","feedback","","html-keyboard-response","366","484126","0.0-1.0-492.0-0.0","0","0","89647","","null","","","null","54","","","","","","","","","","","","","","","",""
"","time_out","","html-keyboard-response","367","486130","0.0-1.0-494.0-0.0","0","0","89647","","null","","","null","54","","","","","","","","","","","","","","","",""
"","ITI","","html-keyboard-response","368","487132","0.0-1.0-495.0","0","0","89647","","null","","","null","54","","","","","","","","","","","","","","","NaN",""
"","S1","","html-keyboard-response","369","487284","0.0-1.0-497.0","0","0","89647","","null","","","null","55","","","","","","","","","","","","","","","",""
"","ISI","","html-keyboard-response","370","489286","0.0-1.0-498.0","0","0","89647","","null","","","null","55","NaN","","","","","","","","","","","","","","",""
"","S2","","html-keyboard-response","371","489437","0.0-1.0-499.0","0","0","89647","","null","","","null","55","","NaN","","","","","","","","","","","","","",""
"","response","","html-keyboard-response","372","490074","0.0-1.0-500.0-0.0","0","0","89647","","635","","","68","55","","","2","55","training","adjacent","FE","6","5","N.jpg","M.jpg","0","0","1","",""
"","feedback","","html-keyboard-response","373","491077","0.0-1.0-501.0-0.0","0","0","89647","","null","","","null","55","","","","","","","","","","","","","","","",""
"","ITI","","html-keyboard-response","374","492079","0.0-1.0-504.0","0","0","89647","","null","","","null","55","","","","","","","","","","","","","","","NaN",""
"","S1","","html-keyboard-response","375","492231","0.0-1.0-506.0","0","0","89647","","null","","","null","56","","","","","","","","","","","","","","","",""
"","ISI","","html-keyboard-response","376","494234","0.0-1.0-507.0","0","0","89647","","null","","","null","56","NaN","","","","","","","","","","","","","","",""
"","S2","","html-keyboard-response","377","494387","0.0-1.0-508.0","0","0","89647","","null","","","null","56","","NaN","","","","","","","","","","","","","",""
"","response","","html-keyboard-response","378","494795","0.0-1.0-509.0-0.0","0","0","89647","","407","","","68","56","","","2","56","training","adjacent","CB","3","2","R.jpg","P.jpg","0","0","1","",""
"","feedback","","html-keyboard-response","379","495798","0.0-1.0-510.0-0.0","0","0","89647","","null","","","null","56","","","","","","","","","","","","","","","",""
"","ITI","","html-keyboard-response","380","496799","0.0-1.0-513.0","0","0","89647","","null","","","null","56","","","","","","","","","","","","","","","NaN",""
"","S1","","html-keyboard-response","381","496950","0.0-1.0-515.0","0","0","89647","","null","","","null","57","","","","","","","","","","","","","","","",""
"","ISI","","html-keyboard-response","382","498953","0.0-1.0-516.0","0","0","89647","","null","","","null","57","NaN","","","","","","","","","","","","","","",""
"","S2","","html-keyboard-response","383","499105","0.0-1.0-517.0","0","0","89647","","null","","","null","57","","NaN","","","","","","","","","","","","","",""
"","response","","html-keyboard-response","384","499749","0.0-1.0-518.0-0.0","0","0","89647","","643","","","75","57","","","2","57","training","adjacent","EF","5","6","M.jpg","N.jpg","1","1","1","",""
"","feedback","","html-keyboard-response","385","500751","0.0-1.0-519.0-0.0","0","0","89647","","null","","","null","57","","","","","","","","","","","","","","","",""
"","ITI","","html-keyboard-response","386","501753","0.0-1.0-522.0","0","0","89647","","null","","","null","57","","","","","","","","","","","","","","","NaN",""
"","S1","","html-keyboard-response","387","501905","0.0-1.0-524.0","0","0","89647","","null","","","null","58","","","","","","","","","","","","","","","",""
"","ISI","","html-keyboard-response","388","503906","0.0-1.0-525.0","0","0","89647","","null","","","null","58","NaN","","","","","","","","","","","","","","",""
"","S2","","html-keyboard-response","389","504059","0.0-1.0-526.0","0","0","89647","","null","","","null","58","","NaN","","","","","","","","","","","","","",""
"","response","","html-keyboard-response","390","504479","0.0-1.0-527.0-0.0","0","0","89647","","419","","","68","58","","","2","58","training","adjacent","EF","5","6","M.jpg","N.jpg","0","1","0","",""
"","feedback","","html-keyboard-response","391","505482","0.0-1.0-528.0-0.0","0","0","89647","","null","","","null","58","","","","","","","","","","","","","","","",""
"","time_out","","html-keyboard-response","392","507483","0.0-1.0-530.0-0.0","0","0","89647","","null","","","null","58","","","","","","","","","","","","","","","",""
"","ITI","","html-keyboard-response","393","508484","0.0-1.0-531.0","0","0","89647","","null","","","null","58","","","","","","","","","","","","","","","NaN",""
"","S1","","html-keyboard-response","394","508637","0.0-1.0-533.0","0","0","89647","","null","","","null","59","","","","","","","","","","","","","","","",""
"","ISI","","html-keyboard-response","395","510639","0.0-1.0-534.0","0","0","89647","","null","","","null","59","NaN","","","","","","","","","","","","","","",""
"","S2","","html-keyboard-response","396","510791","0.0-1.0-535.0","0","0","89647","","null","","","null","59","","NaN","","","","","","","","","","","","","",""
"","response","","html-keyboard-response","397","510894","0.0-1.0-536.0-0.0","0","0","89647","","100","","","68","59","","","2","59","training","adjacent","GF","7","6","Q.jpg","N.jpg","0","0","1","",""
"","feedback","","html-keyboard-response","398","511895","0.0-1.0-537.0-0.0","0","0","89647","","null","","","null","59","","","","","","","","","","","","","","","",""
"","ITI","","html-keyboard-response","399","512897","0.0-1.0-540.0","0","0","89647","","null","","","null","59","","","","","","","","","","","","","","","NaN",""
"","S1","","html-keyboard-response","400","513050","0.0-1.0-542.0","0","0","89647","","null","","","null","60","","","","","","","","","","","","","","","",""
"","ISI","","html-keyboard-response","401","515052","0.0-1.0-543.0","0","0","89647","","null","","","null","60","NaN","","","","","","","","","","","","","","",""
"","S2","","html-keyboard-response","402","515203","0.0-1.0-544.0","0","0","89647","","null","","","null","60","","NaN","","","","","","","","","","","","","",""
"","response","","html-keyboard-response","403","515979","0.0-1.0-545.0-0.0","0","0","89647","","774","","","75","60","","","2","60","training","adjacent","FG","6","7","N.jpg","Q.jpg","1","1","1","",""
"","feedback","","html-keyboard-response","404","516981","0.0-1.0-546.0-0.0","0","0","89647","","null","","","null","60","","","","","","","","","","","","","","","",""
"","ITI","","html-keyboard-response","405","517983","0.0-1.0-549.0","0","0","89647","","null","","","null","60","","","","","","","","","","","","","","","NaN",""
"","S1","","html-keyboard-response","406","518135","0.0-1.0-551.0","0","0","89647","","null","","","null","61","","","","","","","","","","","","","","","",""
"","ISI","","html-keyboard-response","407","520137","0.0-1.0-552.0","0","0","89647","","null","","","null","61","NaN","","","","","","","","","","","","","","",""
"","S2","","html-keyboard-response","408","520290","0.0-1.0-553.0","0","0","89647","","null","","","null","61","","NaN","","","","","","","","","","","","","",""
"","response","","html-keyboard-response","409","520527","0.0-1.0-554.0-0.0","0","0","89647","","237","","","75","61","","","2","61","training","adjacent","DC","4","3","L.jpg","R.jpg","1","0","0","",""
"","feedback","","html-keyboard-response","410","521530","0.0-1.0-555.0-0.0","0","0","89647","","null","","","null","61","","","","","","","","","","","","","","","",""
"","time_out","","html-keyboard-response","411","523533","0.0-1.0-557.0-0.0","0","0","89647","","null","","","null","61","","","","","","","","","","","","","","","",""
"","ITI","","html-keyboard-response","412","524535","0.0-1.0-558.0","0","0","89647","","null","","","null","61","","","","","","","","","","","","","","","NaN",""
"","S1","","html-keyboard-response","413","524687","0.0-1.0-560.0","0","0","89647","","null","","","null","62","","","","","","","","","","","","","","","",""
"","ISI","","html-keyboard-response","414","526688","0.0-1.0-561.0","0","0","89647","","null","","","null","62","NaN","","","","","","","","","","","","","","",""
"","S2","","html-keyboard-response","415","526840","0.0-1.0-562.0","0","0","89647","","null","","","null","62","","NaN","","","","","","","","","","","","","",""
"","response","","html-keyboard-response","416","527573","0.0-1.0-563.0-0.0","0","0","89647","","732","","","68","62","","","2","62","training","adjacent","ED","5","4","M.jpg","L.jpg","0","0","1","",""
"","feedback","","html-keyboard-response","417","528576","0.0-1.0-564.0-0.0","0","0","89647","","null","","","null","62","","","","","","","","","","","","","","","",""
"","ITI","","html-keyboard-response","418","529578","0.0-1.0-567.0","0","0","89647","","null","","","null","62","","","","","","","","","","","","","","","NaN",""
"","S1","","html-keyboard-response","419","529730","0.0-1.0-569.0","0","0","89647","","null","","","null","63","","","","","","","","","","","","","","","",""
"","ISI","","html-keyboard-response","420","531731","0.0-1.0-570.0","0","0","89647","","null","","","null","63","NaN","","","","","","","","","","","","","","",""
"","S2","","html-keyboard-response","421","531884","0.0-1.0-571.0","0","0","89647","","null","","","null","63","","NaN","","","","","","","","","","","","","",""
"","response","","html-keyboard-response","422","532479","0.0-1.0-572.0-0.0","0","0","89647","","594","","","75","63","","","2","63","training","adjacent","FG","6","7","N.jpg","Q.jpg","1","1","1","",""
"","feedback","","html-keyboard-response","423","533482","0.0-1.0-573.0-0.0","0","0","89647","","null","","","null","63","","","","","","","","","","","","","","","",""
"","ITI","","html-keyboard-response","424","534484","0.0-1.0-576.0","0","0","89647","","null","","","null","63","","","","","","","","","","","","","","","NaN",""
"","S1","","html-keyboard-response","425","534635","0.0-1.0-578.0","0","0","89647","","null","","","null","64","","","","","","","","","","","","","","","",""
"","ISI","","html-keyboard-response","426","536638","0.0-1.0-579.0","0","0","89647","","null","","","null","64","NaN","","","","","","","","","","","","","","",""
"","S2","","html-keyboard-response","427","536789","0.0-1.0-580.0","0","0","89647","","null","","","null","64","","NaN","","","","","","","","","","","","","",""
"","response","","html-keyboard-response","428","537028","0.0-1.0-581.0-0.0","0","0","89647","","238","","","75","64","","","2","64","training","adjacent","DC","4","3","L.jpg","R.jpg","1","0","0","",""
"","feedback","","html-keyboard-response","429","538031","0.0-1.0-582.0-0.0","0","0","89647","","null","","","null","64","","","","","","","","","","","","","","","",""
"","time_out","","html-keyboard-response","430","540032","0.0-1.0-584.0-0.0","0","0","89647","","null","","","null","64","","","","","","","","","","","","","","","",""
"","ITI","","html-keyboard-response","431","541035","0.0-1.0-585.0","0","0","89647","","null","","","null","64","","","","","","","","","","","","","","","NaN",""
"","S1","","html-keyboard-response","432","541187","0.0-1.0-587.0","0","0","89647","","null","","","null","65","","","","","","","","","","","","","","","",""
"","ISI","","html-keyboard-response","433","543189","0.0-1.0-588.0","0","0","89647","","null","","","null","65","NaN","","","","","","","","","","","","","","",""
"","S2","","html-keyboard-response","434","543341","0.0-1.0-589.0","0","0","89647","","null","","","null","65","","NaN","","","","","","","","","","","","","",""
"","response","","html-keyboard-response","435","543628","0.0-1.0-590.0-0.0","0","0","89647","","286","","","68","65","","","2","65","training","adjacent","DC","4","3","L.jpg","R.jpg","0","0","1","",""
"","feedback","","html-keyboard-response","436","544631","0.0-1.0-591.0-0.0","0","0","89647","","null","","","null","65","","","","","","","","","","","","","","","",""
"","ITI","","html-keyboard-response","437","545633","0.0-1.0-594.0","0","0","89647","","null","","","null","65","","","","","","","","","","","","","","","NaN",""
"","S1","","html-keyboard-response","438","545784","0.0-1.0-596.0","0","0","89647","","null","","","null","66","","","","","","","","","","","","","","","",""
"","ISI","","html-keyboard-response","439","547785","0.0-1.0-597.0","0","0","89647","","null","","","null","66","NaN","","","","","","","","","","","","","","",""
"","S2","","html-keyboard-response","440","547938","0.0-1.0-598.0","0","0","89647","","null","","","null","66","","NaN","","","","","","","","","","","","","",""
"","response","","html-keyboard-response","441","548082","0.0-1.0-599.0-0.0","0","0","89647","","143","","","75","66","","","2","66","training","adjacent","GF","7","6","Q.jpg","N.jpg","1","0","0","",""
"","feedback","","html-keyboard-response","442","549084","0.0-1.0-600.0-0.0","0","0","89647","","null","","","null","66","","","","","","","","","","","","","","","",""
"","time_out","","html-keyboard-response","443","551087","0.0-1.0-602.0-0.0","0","0","89647","","null","","","null","66","","","","","","","","","","","","","","","",""
"","ITI","","html-keyboard-response","444","552088","0.0-1.0-603.0","0","0","89647","","null","","","null","66","","","","","","","","","","","","","","","NaN",""
"","S1","","html-keyboard-response","445","552240","0.0-1.0-605.0","0","0","89647","","null","","","null","67","","","","","","","","","","","","","","","",""
"","ISI","","html-keyboard-response","446","554244","0.0-1.0-606.0","0","0","89647","","null","","","null","67","NaN","","","","","","","","","","","","","","",""
"","S2","","html-keyboard-response","447","554395","0.0-1.0-607.0","0","0","89647","","null","","","null","67","","NaN","","","","","","","","","","","","","",""
"","response","","html-keyboard-response","448","554975","0.0-1.0-608.0-0.0","0","0","89647","","577","","","68","67","","","2","67","training","adjacent","CD","3","4","R.jpg","L.jpg","0","1","0","",""
"","feedback","","html-keyboard-response","449","555976","0.0-1.0-609.0-0.0","0","0","89647","","null","","","null","67","","","","","","","","","","","","","","","",""
"","time_out","","html-keyboard-response","450","557978","0.0-1.0-611.0-0.0","0","0","89647","","null","","","null","67","","","","","","","","","","","","","","","",""
"","ITI","","html-keyboard-response","451","558980","0.0-1.0-612.0","0","0","89647","","null","","","null","67","","","","","","","","","","","","","","","NaN",""
"","S1","","html-keyboard-response","452","559132","0.0-1.0-614.0","0","0","89647","","null","","","null","68","","","","","","","","","","","","","","","",""
"","ISI","","html-keyboard-response","453","561134","0.0-1.0-615.0","0","0","89647","","null","","","null","68","NaN","","","","","","","","","","","","","","",""
"","S2","","html-keyboard-response","454","561286","0.0-1.0-616.0","0","0","89647","","null","","","null","68","","NaN","","","","","","","","","","","","","",""
"","response","","html-keyboard-response","455","561866","0.0-1.0-617.0-0.0","0","0","89647","","578","","","75","68","","","2","68","training","adjacent","AB","1","2","O.jpg","P.jpg","1","1","1","",""
"","feedback","","html-keyboard-response","456","562868","0.0-1.0-618.0-0.0","0","0","89647","","null","","","null","68","","","","","","","","","","","","","","","",""
"","ITI","","html-keyboard-response","457","563869","0.0-1.0-621.0","0","0","89647","","null","","","null","68","","","","","","","","","","","","","","","NaN",""
"","S1","","html-keyboard-response","458","564021","0.0-1.0-623.0","0","0","89647","","null","","","null","69","","","","","","","","","","","","","","","",""
"","ISI","","html-keyboard-response","459","566023","0.0-1.0-624.0","0","0","89647","","null","","","null","69","NaN","","","","","","","","","","","","","","",""
"","S2","","html-keyboard-response","460","566175","0.0-1.0-625.0","0","0","89647","","null","","","null","69","","NaN","","","","","","","","","","","","","",""
"","response","","html-keyboard-response","461","566383","0.0-1.0-626.0-0.0","0","0","89647","","206","","","75","69","","","2","69","training","adjacent","BA","2","1","P.jpg","O.jpg","1","0","0","",""
"","feedback","","html-keyboard-response","462","567385","0.0-1.0-627.0-0.0","0","0","89647","","null","","","null","69","","","","","","","","","","","","","","","",""
"","time_out","","html-keyboard-response","463","569387","0.0-1.0-629.0-0.0","0","0","89647","","null","","","null","69","","","","","","","","","","","","","","","",""
"","ITI","","html-keyboard-response","464","570388","0.0-1.0-630.0","0","0","89647","","null","","","null","69","","","","","","","","","","","","","","","NaN",""
"","S1","","html-keyboard-response","465","570541","0.0-1.0-632.0","0","0","89647","","null","","","null","70","","","","","","","","","","","","","","","",""
"","ISI","","html-keyboard-response","466","572542","0.0-1.0-633.0","0","0","89647","","null","","","null","70","NaN","","","","","","","","","","","","","","",""
"","S2","","html-keyboard-response","467","572694","0.0-1.0-634.0","0","0","89647","","null","","","null","70","","NaN","","","","","","","","","","","","","",""
"","response","","html-keyboard-response","468","573313","0.0-1.0-635.0-0.0","0","0","89647","","616","","","75","70","","","2","70","training","adjacent","FG","6","7","N.jpg","Q.jpg","1","1","1","",""
"","feedback","","html-keyboard-response","469","574316","0.0-1.0-636.0-0.0","0","0","89647","","null","","","null","70","","","","","","","","","","","","","","","",""
"","ITI","","html-keyboard-response","470","575318","0.0-1.0-639.0","0","0","89647","","null","","","null","70","","","","","","","","","","","","","","","NaN",""
"","S1","","html-keyboard-response","471","575469","0.0-1.0-641.0","0","0","89647","","null","","","null","71","","","","","","","","","","","","","","","",""
"","ISI","","html-keyboard-response","472","577471","0.0-1.0-642.0","0","0","89647","","null","","","null","71","NaN","","","","","","","","","","","","","","",""
"","S2","","html-keyboard-response","473","577623","0.0-1.0-643.0","0","0","89647","","null","","","null","71","","NaN","","","","","","","","","","","","","",""
"","response","","html-keyboard-response","474","577879","0.0-1.0-644.0-0.0","0","0","89647","","255","","","68","71","","","2","71","training","adjacent","EF","5","6","M.jpg","N.jpg","0","1","0","",""
"","feedback","","html-keyboard-response","475","578881","0.0-1.0-645.0-0.0","0","0","89647","","null","","","null","71","","","","","","","","","","","","","","","",""
"","time_out","","html-keyboard-response","476","580883","0.0-1.0-647.0-0.0","0","0","89647","","null","","","null","71","","","","","","","","","","","","","","","",""
"","ITI","","html-keyboard-response","477","581885","0.0-1.0-648.0","0","0","89647","","null","","","null","71","","","","","","","","","","","","","","","NaN",""
"","S1","","html-keyboard-response","478","582037","0.0-1.0-650.0","0","0","89647","","null","","","null","72","","","","","","","","","","","","","","","",""
"","ISI","","html-keyboard-response","479","584039","0.0-1.0-651.0","0","0","89647","","null","","","null","72","NaN","","","","","","","","","","","","","","",""
"","S2","","html-keyboard-response","480","584191","0.0-1.0-652.0","0","0","89647","","null","","","null","72","","NaN","","","","","","","","","","","","","",""
"","response","","html-keyboard-response","481","584833","0.0-1.0-653.0-0.0","0","0","89647","","640","","","68","72","","","2","72","training","adjacent","CB","3","2","R.jpg","P.jpg","0","0","1","",""
"","feedback","","html-keyboard-response","482","585834","0.0-1.0-654.0-0.0","0","0","89647","","null","","","null","72","","","","","","","","","","","","","","","",""
"","ITI","","html-keyboard-response","483","586836","0.0-1.0-657.0","0","0","89647","","null","","","null","72","","","","","","","","","","","","","","","NaN",""
"","S1","","html-keyboard-response","484","586988","0.0-1.0-659.0","0","0","89647","","null","","","null","73","","","","","","","","","","","","","","","",""
"","ISI","","html-keyboard-response","485","588991","0.0-1.0-660.0","0","0","89647","","null","","","null","73","NaN","","","","","","","","","","","","","","",""
"","S2","","html-keyboard-response","486","589144","0.0-1.0-661.0","0","0","89647","","null","","","null","73","","NaN","","","","","","","","","","","","","",""
"","response","","html-keyboard-response","487","589265","0.0-1.0-662.0-0.0","0","0","89647","","120","","","75","73","","","2","73","training","adjacent","DE","4","5","L.jpg","M.jpg","1","1","1","",""
"","feedback","","html-keyboard-response","488","590268","0.0-1.0-663.0-0.0","0","0","89647","","null","","","null","73","","","","","","","","","","","","","","","",""
"","ITI","","html-keyboard-response","489","591269","0.0-1.0-666.0","0","0","89647","","null","","","null","73","","","","","","","","","","","","","","","NaN",""
"","S1","","html-keyboard-response","490","591420","0.0-1.0-668.0","0","0","89647","","null","","","null","74","","","","","","","","","","","","","","","",""
"","ISI","","html-keyboard-response","491","593423","0.0-1.0-669.0","0","0","89647","","null","","","null","74","NaN","","","","","","","","","","","","","","",""
"","S2","","html-keyboard-response","492","593575","0.0-1.0-670.0","0","0","89647","","null","","","null","74","","NaN","","","","","","","","","","","","","",""
"","response","","html-keyboard-response","493","593832","0.0-1.0-671.0-0.0","0","0","89647","","256","","","75","74","","","2","74","training","adjacent","DC","4","3","L.jpg","R.jpg","1","0","0","",""
"","feedback","","html-keyboard-response","494","594834","0.0-1.0-672.0-0.0","0","0","89647","","null","","","null","74","","","","","","","","","","","","","","","",""
"","time_out","","html-keyboard-response","495","596836","0.0-1.0-674.0-0.0","0","0","89647","","null","","","null","74","","","","","","","","","","","","","","","",""
"","ITI","","html-keyboard-response","496","597837","0.0-1.0-675.0","0","0","89647","","null","","","null","74","","","","","","","","","","","","","","","NaN",""
"","S1","","html-keyboard-response","497","597989","0.0-1.0-677.0","0","0","89647","","null","","","null","75","","","","","","","","","","","","","","","",""
"","ISI","","html-keyboard-response","498","599991","0.0-1.0-678.0","0","0","89647","","null","","","null","75","NaN","","","","","","","","","","","","","","",""
"","S2","","html-keyboard-response","499","600143","0.0-1.0-679.0","0","0","89647","","null","","","null","75","","NaN","","","","","","","","","","","","","",""
"","response","","html-keyboard-response","500","600405","0.0-1.0-680.0-0.0","0","0","89647","","260","","","75","75","","","2","75","training","adjacent","CD","3","4","R.jpg","L.jpg","1","1","1","",""
"","feedback","","html-keyboard-response","501","601407","0.0-1.0-681.0-0.0","0","0","89647","","null","","","null","75","","","","","","","","","","","","","","","",""
"","ITI","","html-keyboard-response","502","602410","0.0-1.0-684.0","0","0","89647","","null","","","null","75","","","","","","","","","","","","","","","NaN",""
"","S1","","html-keyboard-response","503","602561","0.0-1.0-686.0","0","0","89647","","null","","","null","76","","","","","","","","","","","","","","","",""
"","ISI","","html-keyboard-response","504","604564","0.0-1.0-687.0","0","0","89647","","null","","","null","76","NaN","","","","","","","","","","","","","","",""
"","S2","","html-keyboard-response","505","604715","0.0-1.0-688.0","0","0","89647","","null","","","null","76","","NaN","","","","","","","","","","","","","",""
"","response","","html-keyboard-response","506","605031","0.0-1.0-689.0-0.0","0","0","89647","","314","","","75","76","","","2","76","training","adjacent","CB","3","2","R.jpg","P.jpg","1","0","0","",""
"","feedback","","html-keyboard-response","507","606034","0.0-1.0-690.0-0.0","0","0","89647","","null","","","null","76","","","","","","","","","","","","","","","",""
"","time_out","","html-keyboard-response","508","608035","0.0-1.0-692.0-0.0","0","0","89647","","null","","","null","76","","","","","","","","","","","","","","","",""
"","ITI","","html-keyboard-response","509","609037","0.0-1.0-693.0","0","0","89647","","null","","","null","76","","","","","","","","","","","","","","","NaN",""
"","S1","","html-keyboard-response","510","609189","0.0-1.0-695.0","0","0","89647","","null","","","null","77","","","","","","","","","","","","","","","",""
"","ISI","","html-keyboard-response","511","611192","0.0-1.0-696.0","0","0","89647","","null","","","null","77","NaN","","","","","","","","","","","","","","",""
"","S2","","html-keyboard-response","512","611345","0.0-1.0-697.0","0","0","89647","","null","","","null","77","","NaN","","","","","","","","","","","","","",""
"","response","","html-keyboard-response","513","611624","0.0-1.0-698.0-0.0","0","0","89647","","277","","","68","77","","","2","77","training","adjacent","FE","6","5","N.jpg","M.jpg","0","0","1","",""
"","feedback","","html-keyboard-response","514","612626","0.0-1.0-699.0-0.0","0","0","89647","","null","","","null","77","","","","","","","","","","","","","","","",""
"","ITI","","html-keyboard-response","515","613629","0.0-1.0-702.0","0","0","89647","","null","","","null","77","","","","","","","","","","","","","","","NaN",""
"","S1","","html-keyboard-response","516","613781","0.0-1.0-704.0","0","0","89647","","null","","","null","78","","","","","","","","","","","","","","","",""
"","ISI","","html-keyboard-response","517","615783","0.0-1.0-705.0","0","0","89647","","null","","","null","78","NaN","","","","","","","","","","","","","","",""
"","S2","","html-keyboard-response","518","615936","0.0-1.0-706.0","0","0","89647","","null","","","null","78","","NaN","","","","","","","","","","","","","",""
"","response","","html-keyboard-response","519","616530","0.0-1.0-707.0-0.0","0","0","89647","","592","","","75","78","","","2","78","training","adjacent","ED","5","4","M.jpg","L.jpg","1","0","0","",""
"","feedback","","html-keyboard-response","520","617532","0.0-1.0-708.0-0.0","0","0","89647","","null","","","null","78","","","","","","","","","","","","","","","",""
"","time_out","","html-keyboard-response","521","619534","0.0-1.0-710.0-0.0","0","0","89647","","null","","","null","78","","","","","","","","","","","","","","","",""
"","ITI","","html-keyboard-response","522","620536","0.0-1.0-711.0","0","0","89647","","null","","","null","78","","","","","","","","","","","","","","","NaN",""
"","S1","","html-keyboard-response","523","620688","0.0-1.0-713.0","0","0","89647","","null","","","null","79","","","","","","","","","","","","","","","",""
"","ISI","","html-keyboard-response","524","622690","0.0-1.0-714.0","0","0","89647","","null","","","null","79","NaN","","","","","","","","","","","","","","",""
"","S2","","html-keyboard-response","525","622842","0.0-1.0-715.0","0","0","89647","","null","","","null","79","","NaN","","","","","","","","","","","","","",""
"","response","","html-keyboard-response","526","622950","0.0-1.0-716.0-0.0","0","0","89647","","107","","","68","79","","","2","79","training","adjacent","FE","6","5","N.jpg","M.jpg","0","0","1","",""
"","feedback","","html-keyboard-response","527","623951","0.0-1.0-717.0-0.0","0","0","89647","","null","","","null","79","","","","","","","","","","","","","","","",""
"","ITI","","html-keyboard-response","528","624954","0.0-1.0-720.0","0","0","89647","","null","","","null","79","","","","","","","","","","","","","","","NaN",""
"","S1","","html-keyboard-response","529","625105","0.0-1.0-722.0","0","0","89647","","null","","","null","80","","","","","","","","","","","","","","","",""
"","ISI","","html-keyboard-response","530","627108","0.0-1.0-723.0","0","0","89647","","null","","","null","80","NaN","","","","","","","","","","","","","","",""
"","S2","","html-keyboard-response","531","627261","0.0-1.0-724.0","0","0","89647","","null","","","null","80","","NaN","","","","","","","","","","","","","",""
"","response","","html-keyboard-response","532","627545","0.0-1.0-725.0-0.0","0","0","89647","","283","","","68","80","","","2","80","training","adjacent","CD","3","4","R.jpg","L.jpg","0","1","0","",""
"","feedback","","html-keyboard-response","533","628547","0.0-1.0-726.0-0.0","0","0","89647","","null","","","null","80","","","","","","","","","","","","","","","",""
"","time_out","","html-keyboard-response","534","630549","0.0-1.0-728.0-0.0","0","0","89647","","null","","","null","80","","","","","","","","","","","","","","","",""
"","ITI","","html-keyboard-response","535","631552","0.0-1.0-729.0","0","0","89647","","null","","","null","80","","","","","","","","","","","","","","","NaN",""
"","S1","","html-keyboard-response","536","631704","0.0-1.0-731.0","0","0","89647","","null","","","null","81","","","","","","","","","","","","","","","",""
"","ISI","","html-keyboard-response","537","633705","0.0-1.0-732.0","0","0","89647","","null","","","null","81","NaN","","","","","","","","","","","","","","",""
"","S2","","html-keyboard-response","538","633858","0.0-1.0-733.0","0","0","89647","","null","","","null","81","","NaN","","","","","","","","","","","","","",""
"","response","","html-keyboard-response","539","634181","0.0-1.0-734.0-0.0","0","0","89647","","321","","","68","81","","","2","81","training","adjacent","AB","1","2","O.jpg","P.jpg","0","1","0","",""
"","feedback","","html-keyboard-response","540","635182","0.0-1.0-735.0-0.0","0","0","89647","","null","","","null","81","","","","","","","","","","","","","","","",""
"","time_out","","html-keyboard-response","541","637184","0.0-1.0-737.0-0.0","0","0","89647","","null","","","null","81","","","","","","","","","","","","","","","",""
"","ITI","","html-keyboard-response","542","638186","0.0-1.0-738.0","0","0","89647","","null","","","null","81","","","","","","","","","","","","","","","NaN",""
"","S1","","html-keyboard-response","543","638338","0.0-1.0-740.0","0","0","89647","","null","","","null","82","","","","","","","","","","","","","","","",""
"","ISI","","html-keyboard-response","544","640339","0.0-1.0-741.0","0","0","89647","","null","","","null","82","NaN","","","","","","","","","","","","","","",""
"","S2","","html-keyboard-response","545","640491","0.0-1.0-742.0","0","0","89647","","null","","","null","82","","NaN","","","","","","","","","","","","","",""
"","response","","html-keyboard-response","546","640948","0.0-1.0-743.0-0.0","0","0","89647","","455","","","75","82","","","2","82","training","adjacent","BA","2","1","P.jpg","O.jpg","1","0","0","",""
"","feedback","","html-keyboard-response","547","641950","0.0-1.0-744.0-0.0","0","0","89647","","null","","","null","82","","","","","","","","","","","","","","","",""
"","time_out","","html-keyboard-response","548","643952","0.0-1.0-746.0-0.0","0","0","89647","","null","","","null","82","","","","","","","","","","","","","","","",""
"","ITI","","html-keyboard-response","549","644953","0.0-1.0-747.0","0","0","89647","","null","","","null","82","","","","","","","","","","","","","","","NaN",""
"","S1","","html-keyboard-response","550","645105","0.0-1.0-749.0","0","0","89647","","null","","","null","83","","","","","","","","","","","","","","","",""
"","ISI","","html-keyboard-response","551","647108","0.0-1.0-750.0","0","0","89647","","null","","","null","83","NaN","","","","","","","","","","","","","","",""
"","S2","","html-keyboard-response","552","647260","0.0-1.0-751.0","0","0","89647","","null","","","null","83","","NaN","","","","","","","","","","","","","",""
"","response","","html-keyboard-response","553","647503","0.0-1.0-752.0-0.0","0","0","89647","","241","","","68","83","","","2","83","training","adjacent","EF","5","6","M.jpg","N.jpg","0","1","0","",""
"","feedback","","html-keyboard-response","554","648505","0.0-1.0-753.0-0.0","0","0","89647","","null","","","null","83","","","","","","","","","","","","","","","",""
"","time_out","","html-keyboard-response","555","650506","0.0-1.0-755.0-0.0","0","0","89647","","null","","","null","83","","","","","","","","","","","","","","","",""
"","ITI","","html-keyboard-response","556","651509","0.0-1.0-756.0","0","0","89647","","null","","","null","83","","","","","","","","","","","","","","","NaN",""
"","S1","","html-keyboard-response","557","651660","0.0-1.0-758.0","0","0","89647","","null","","","null","84","","","","","","","","","","","","","","","",""
"","ISI","","html-keyboard-response","558","653663","0.0-1.0-759.0","0","0","89647","","null","","","null","84","NaN","","","","","","","","","","","","","","",""
"","S2","","html-keyboard-response","559","653815","0.0-1.0-760.0","0","0","89647","","null","","","null","84","","NaN","","","","","","","","","","","","","",""
"","response","","html-keyboard-response","560","654069","0.0-1.0-761.0-0.0","0","0","89647","","253","","","75","84","","","2","84","training","adjacent","DE","4","5","L.jpg","M.jpg","1","1","1","",""
"","feedback","","html-keyboard-response","561","655072","0.0-1.0-762.0-0.0","0","0","89647","","null","","","null","84","","","","","","","","","","","","","","","",""
"","ITI","","html-keyboard-response","562","656074","0.0-1.0-765.0","0","0","89647","","null","","","null","84","","","","","","","","","","","","","","","NaN",""
"","S1","","html-keyboard-response","563","656227","0.0-1.0-767.0","0","0","89647","","null","","","null","85","","","","","","","","","","","","","","","",""
"","ISI","","html-keyboard-response","564","658230","0.0-1.0-768.0","0","0","89647","","null","","","null","85","NaN","","","","","","","","","","","","","","",""
"","S2","","html-keyboard-response","565","658382","0.0-1.0-769.0","0","0","89647","","null","","","null","85","","NaN","","","","","","","","","","","","","",""
"","response","","html-keyboard-response","566","658642","0.0-1.0-770.0-0.0","0","0","89647","","258","","","68","85","","","2","85","training","adjacent","FG","6","7","N.jpg","Q.jpg","0","1","0","",""
"","feedback","","html-keyboard-response","567","659645","0.0-1.0-771.0-0.0","0","0","89647","","null","","","null","85","","","","","","","","","","","","","","","",""
"","time_out","","html-keyboard-response","568","661647","0.0-1.0-773.0-0.0","0","0","89647","","null","","","null","85","","","","","","","","","","","","","","","",""
"","ITI","","html-keyboard-response","569","662648","0.0-1.0-774.0","0","0","89647","","null","","","null","85","","","","","","","","","","","","","","","NaN",""
"","S1","","html-keyboard-response","570","662801","0.0-1.0-776.0","0","0","89647","","null","","","null","86","","","","","","","","","","","","","","","",""
"","ISI","","html-keyboard-response","571","664803","0.0-1.0-777.0","0","0","89647","","null","","","null","86","NaN","","","","","","","","","","","","","","",""
"","S2","","html-keyboard-response","572","664955","0.0-1.0-778.0","0","0","89647","","null","","","null","86","","NaN","","","","","","","","","","","","","",""
"","response","","html-keyboard-response","573","665136","0.0-1.0-779.0-0.0","0","0","89647","","180","","","68","86","","","2","86","training","adjacent","BC","2","3","P.jpg","R.jpg","0","1","0","",""
"","feedback","","html-keyboard-response","574","666138","0.0-1.0-780.0-0.0","0","0","89647","","null","","","null","86","","","","","","","","","","","","","","","",""
"","time_out","","html-keyboard-response","575","668142","0.0-1.0-782.0-0.0","0","0","89647","","null","","","null","86","","","","","","","","","","","","","","","",""
"","ITI","","html-keyboard-response","576","669142","0.0-1.0-783.0","0","0","89647","","null","","","null","86","","","","","","","","","","","","","","","NaN",""
"","S1","","html-keyboard-response","577","669294","0.0-1.0-785.0","0","0","89647","","null","","","null","87","","","","","","","","","","","","","","","",""
"","ISI","","html-keyboard-response","578","671296","0.0-1.0-786.0","0","0","89647","","null","","","null","87","NaN","","","","","","","","","","","","","","",""
"","S2","","html-keyboard-response","579","671447","0.0-1.0-787.0","0","0","89647","","null","","","null","87","","NaN","","","","","","","","","","","","","",""
"","response","","html-keyboard-response","580","671625","0.0-1.0-788.0-0.0","0","0","89647","","176","","","75","87","","","2","87","training","adjacent","BA","2","1","P.jpg","O.jpg","1","0","0","",""
