"success","ttype","start_time","trial_type","trial_index","time_elapsed","internal_node_id","warning","missed_checkup","PID","view_history","rt","responses","repeat_instructions","key_press","index","keypress_isi","keypress_S2","block","trial_num","phase","group_type","pair_type","S1_stim","S2_stim","S1_img","S2_img","S1_chosen","S1_higher","accuracy","keypress_iti","total_bonus_tally"
"true","full_screen","d04142023hr0253","fullscreen","0","11717","0.0-0.0","0","0","46653","","","","","","","","","","","","","","","","","","","","","",""
"","instructions","","instructions","1","53564","0.0-1.0-0.0-0.0","0","0","46653","[{""page_index"":0,""viewing_time"":9051},{""page_index"":1,""viewing_time"":18809},{""page_index"":2,""viewing_time"":11671},{""page_index"":3,""viewing_time"":2313}]","41844","","","","","","","","","","","","","","","","","","","",""
"","comprehension_check","","survey-multi-choice","2","74733","0.0-1.0-0.0-1.0","0","0","46653","","21164","{""Q0"":""True"",""Q1"":""K"",""Q2"":""Once the second image appears and while the screen 'MAKE A CHOICE' is shown"",""Q3"":""Green mark"",""Q4"":""either D or K""}","0","","","","","","","","","","","","","","","","","",""
"","start_exp","","html-keyboard-response","3","77455","0.0-1.0-1.0","0","0","46653","","2718","","","32","","","","","","","","","","","","","","","","",""
"","S1","","html-keyboard-response","4","77710","0.0-1.0-2.0","0","0","46653","","null","","","null","0","","","","","","","","","","","","","","","",""
"","ISI","","html-keyboard-response","5","78713","0.0-1.0-3.0","0","0","46653","","null","","","null","0","NaN","","","","","","","","","","","","","","",""
"","S2","","html-keyboard-response","6","78982","0.0-1.0-4.0","0","0","46653","","null","","","null","0","","NaN","","","","","","","","","","","","","",""
"","response","","html-keyboard-response","7","79918","0.0-1.0-5.0-0.0","0","0","46653","","932","","","68","0","","","1","0","training","adjacent","AB","1","2","R.jpg","M.jpg","0","1","0","",""
"","feedback","","html-keyboard-response","8","80934","0.0-1.0-6.0-0.0","0","0","46653","","null","","","null","0","","","","","","","","","","","","","","","",""
"","time_out","","html-keyboard-response","9","82939","0.0-1.0-8.0-0.0","0","0","46653","","null","","","null","0","","","","","","","","","","","","","","","",""
"","ITI","","html-keyboard-response","10","83942","0.0-1.0-9.0","0","0","46653","","null","","","null","0","","","","","","","","","","","","","","","NaN",""
"","S1","","html-keyboard-response","11","84197","0.0-1.0-11.0","0","0","46653","","null","","","null","1","","","","","","","","","","","","","","","",""
"","ISI","","html-keyboard-response","12","85202","0.0-1.0-12.0","0","0","46653","","null","","","null","1","NaN","","","","","","","","","","","","","","",""
"","S2","","html-keyboard-response","13","85457","0.0-1.0-13.0","0","0","46653","","null","","","null","1","","NaN","","","","","","","","","","","","","",""
"","response","","html-keyboard-response","14","86174","0.0-1.0-14.0-0.0","0","0","46653","","715","","","75","1","","","1","1","training","adjacent","FG","6","7","L.jpg","N.jpg","1","1","1","",""
"","feedback","","html-keyboard-response","15","87178","0.0-1.0-15.0-0.0","0","0","46653","","null","","","null","1","","","","","","","","","","","","","","","",""
"","ITI","","html-keyboard-response","16","88180","0.0-1.0-18.0","0","0","46653","","null","","","null","1","","","","","","","","","","","","","","","NaN",""
"","S1","","html-keyboard-response","17","88433","0.0-1.0-20.0","0","0","46653","","null","","","null","2","","","","","","","","","","","","","","","",""
"","ISI","","html-keyboard-response","18","89436","0.0-1.0-21.0","0","0","46653","","null","","","null","2","NaN","","","","","","","","","","","","","","",""
"","S2","","html-keyboard-response","19","89691","0.0-1.0-22.0","0","0","46653","","null","","","null","2","","NaN","","","","","","","","","","","","","",""
"","response","","html-keyboard-response","20","90388","0.0-1.0-23.0-0.0","0","0","46653","","695","","","75","2","","","1","2","training","adjacent","BC","2","3","M.jpg","P.jpg","1","1","1","",""
"","feedback","","html-keyboard-response","21","91390","0.0-1.0-24.0-0.0","0","0","46653","","null","","","null","2","","","","","","","","","","","","","","","",""
"","ITI","","html-keyboard-response","22","92394","0.0-1.0-27.0","0","0","46653","","null","","","null","2","","","","","","","","","","","","","","","NaN",""
"","S1","","html-keyboard-response","23","92649","0.0-1.0-29.0","0","0","46653","","null","","","null","3","","","","","","","","","","","","","","","",""
"","ISI","","html-keyboard-response","24","93651","0.0-1.0-30.0","0","0","46653","","null","","","null","3","NaN","","","","","","","","","","","","","","",""
"","S2","","html-keyboard-response","25","93906","0.0-1.0-31.0","0","0","46653","","null","","","null","3","","NaN","","","","","","","","","","","","","",""
"","response","","html-keyboard-response","26","94382","0.0-1.0-32.0-0.0","0","0","46653","","473","","","75","3","","","1","3","training","adjacent","AB","1","2","R.jpg","M.jpg","1","1","1","",""
"","feedback","","html-keyboard-response","27","95386","0.0-1.0-33.0-0.0","0","0","46653","","null","","","null","3","","","","","","","","","","","","","","","",""
"","ITI","","html-keyboard-response","28","96390","0.0-1.0-36.0","0","0","46653","","null","","","null","3","","","","","","","","","","","","","","","NaN",""
"","S1","","html-keyboard-response","29","96643","0.0-1.0-38.0","0","0","46653","","null","","","null","4","","","","","","","","","","","","","","","",""
"","ISI","","html-keyboard-response","30","97647","0.0-1.0-39.0","0","0","46653","","null","","","null","4","NaN","","","","","","","","","","","","","","",""
"","S2","","html-keyboard-response","31","97901","0.0-1.0-40.0","0","0","46653","","null","","","null","4","","NaN","","","","","","","","","","","","","",""
"","response","","html-keyboard-response","32","98414","0.0-1.0-41.0-0.0","0","0","46653","","510","","","68","4","","","1","4","training","adjacent","CB","3","2","P.jpg","M.jpg","0","0","1","",""
"","feedback","","html-keyboard-response","33","99419","0.0-1.0-42.0-0.0","0","0","46653","","null","","","null","4","","","","","","","","","","","","","","","",""
"","ITI","","html-keyboard-response","34","100422","0.0-1.0-45.0","0","0","46653","","null","","","null","4","","","","","","","","","","","","","","","NaN",""
"","S1","","html-keyboard-response","35","100676","0.0-1.0-47.0","0","0","46653","","null","","","null","5","","","","","","","","","","","","","","","",""
"","ISI","","html-keyboard-response","36","101679","0.0-1.0-48.0","0","0","46653","","null","","","null","5","NaN","","","","","","","","","","","","","","",""
"","S2","","html-keyboard-response","37","101933","0.0-1.0-49.0","0","0","46653","","null","","","null","5","","NaN","","","","","","","","","","","","","",""
"","response","","html-keyboard-response","38","102998","0.0-1.0-50.0-0.0","0","0","46653","","1062","","","68","5","","","1","5","training","adjacent","CB","3","2","P.jpg","M.jpg","0","0","1","",""
"","feedback","","html-keyboard-response","39","104002","0.0-1.0-51.0-0.0","0","0","46653","","null","","","null","5","","","","","","","","","","","","","","","",""
"","ITI","","html-keyboard-response","40","105011","0.0-1.0-54.0","0","0","46653","","null","","","null","5","","","","","","","","","","","","","","","NaN",""
"","S1","","html-keyboard-response","41","105265","0.0-1.0-56.0","0","0","46653","","null","","","null","6","","","","","","","","","","","","","","","",""
"","ISI","","html-keyboard-response","42","106275","0.0-1.0-57.0","0","0","46653","","null","","","null","6","NaN","","","","","","","","","","","","","","",""
"","S2","","html-keyboard-response","43","106529","0.0-1.0-58.0","0","0","46653","","null","","","null","6","","NaN","","","","","","","","","","","","","",""
"","response","","html-keyboard-response","44","107238","0.0-1.0-59.0-0.0","0","0","46653","","706","","","68","6","","","1","6","training","adjacent","BA","2","1","M.jpg","R.jpg","0","0","1","",""
"","feedback","","html-keyboard-response","45","108242","0.0-1.0-60.0-0.0","0","0","46653","","null","","","null","6","","","","","","","","","","","","","","","",""
"","ITI","","html-keyboard-response","46","109247","0.0-1.0-63.0","0","0","46653","","null","","","null","6","","","","","","","","","","","","","","","NaN",""
"","S1","","html-keyboard-response","47","109501","0.0-1.0-65.0","0","0","46653","","null","","","null","7","","","","","","","","","","","","","","","",""
"","ISI","","html-keyboard-response","48","110504","0.0-1.0-66.0","0","0","46653","","null","","","null","7","NaN","","","","","","","","","","","","","","",""
"","S2","","html-keyboard-response","49","110757","0.0-1.0-67.0","0","0","46653","","null","","","null","7","","NaN","","","","","","","","","","","","","",""
"","response","","html-keyboard-response","50","111287","0.0-1.0-68.0-0.0","0","0","46653","","527","","","75","7","","","1","7","training","adjacent","GF","7","6","N.jpg","L.jpg","1","0","0","",""
"","feedback","","html-keyboard-response","51","112289","0.0-1.0-69.0-0.0","0","0","46653","","null","","","null","7","","","","","","","","","","","","","","","",""
"","time_out","","html-keyboard-response","52","114292","0.0-1.0-71.0-0.0","0","0","46653","","null","","","null","7","","","","","","","","","","","","","","","",""
"","ITI","","html-keyboard-response","53","115295","0.0-1.0-72.0","0","0","46653","","null","","","null","7","","","","","","","","","","","","","","","NaN",""
"","S1","","html-keyboard-response","54","115548","0.0-1.0-74.0","0","0","46653","","null","","","null","8","","","","","","","","","","","","","","","",""
"","ISI","","html-keyboard-response","55","116551","0.0-1.0-75.0","0","0","46653","","null","","","null","8","NaN","","","","","","","","","","","","","","",""
"","S2","","html-keyboard-response","56","116807","0.0-1.0-76.0","0","0","46653","","null","","","null","8","","NaN","","","","","","","","","","","","","",""
"","response","","html-keyboard-response","57","117287","0.0-1.0-77.0-0.0","0","0","46653","","477","","","75","8","","","1","8","training","adjacent","BC","2","3","M.jpg","P.jpg","1","1","1","",""
"","feedback","","html-keyboard-response","58","118291","0.0-1.0-78.0-0.0","0","0","46653","","null","","","null","8","","","","","","","","","","","","","","","",""
"","ITI","","html-keyboard-response","59","119294","0.0-1.0-81.0","0","0","46653","","null","","","null","8","","","","","","","","","","","","","","","NaN",""
"","S1","","html-keyboard-response","60","119548","0.0-1.0-83.0","0","0","46653","","null","","","null","9","","","","","","","","","","","","","","","",""
"","ISI","","html-keyboard-response","61","120551","0.0-1.0-84.0","0","0","46653","","null","","","null","9","NaN","","","","","","","","","","","","","","",""
"","S2","","html-keyboard-response","62","120806","0.0-1.0-85.0","0","0","46653","","null","","","null","9","","NaN","","","","","","","","","","","","","",""
"","response","","html-keyboard-response","63","121206","0.0-1.0-86.0-0.0","0","0","46653","","397","","","75","9","","","1","9","training","adjacent","BC","2","3","M.jpg","P.jpg","1","1","1","",""
"","feedback","","html-keyboard-response","64","122209","0.0-1.0-87.0-0.0","0","0","46653","","null","","","null","9","","","","","","","","","","","","","","","",""
"","ITI","","html-keyboard-response","65","123213","0.0-1.0-90.0","0","0","46653","","null","","","null","9","","","","","","","","","","","","","","","NaN",""
"","S1","","html-keyboard-response","66","123468","0.0-1.0-92.0","0","0","46653","","null","","","null","10","","","","","","","","","","","","","","","",""
"","ISI","","html-keyboard-response","67","124471","0.0-1.0-93.0","0","0","46653","","null","","","null","10","NaN","","","","","","","","","","","","","","",""
"","S2","","html-keyboard-response","68","124725","0.0-1.0-94.0","0","0","46653","","null","","","null","10","","NaN","","","","","","","","","","","","","",""
"","response","","html-keyboard-response","69","125622","0.0-1.0-95.0-0.0","0","0","46653","","894","","","75","10","","","1","10","training","adjacent","GF","7","6","N.jpg","L.jpg","1","0","0","",""
"","feedback","","html-keyboard-response","70","126626","0.0-1.0-96.0-0.0","0","0","46653","","null","","","null","10","","","","","","","","","","","","","","","",""
"","time_out","","html-keyboard-response","71","128629","0.0-1.0-98.0-0.0","0","0","46653","","null","","","null","10","","","","","","","","","","","","","","","",""
"","ITI","","html-keyboard-response","72","129632","0.0-1.0-99.0","0","0","46653","","null","","","null","10","","","","","","","","","","","","","","","NaN",""
"","S1","","html-keyboard-response","73","129887","0.0-1.0-101.0","0","0","46653","","null","","","null","11","","","","","","","","","","","","","","","",""
"","ISI","","html-keyboard-response","74","130890","0.0-1.0-102.0","0","0","46653","","null","","","null","11","NaN","","","","","","","","","","","","","","",""
"","S2","","html-keyboard-response","75","131144","0.0-1.0-103.0","0","0","46653","","null","","","null","11","","NaN","","","","","","","","","","","","","",""
"","response","","html-keyboard-response","76","131853","0.0-1.0-104.0-0.0","0","0","46653","","706","","","75","11","","","1","11","training","adjacent","ED","5","4","Q.jpg","O.jpg","1","0","0","",""
"","feedback","","html-keyboard-response","77","132857","0.0-1.0-105.0-0.0","0","0","46653","","null","","","null","11","","","","","","","","","","","","","","","",""
"","time_out","","html-keyboard-response","78","134862","0.0-1.0-107.0-0.0","0","0","46653","","null","","","null","11","","","","","","","","","","","","","","","",""
"","ITI","","html-keyboard-response","79","135866","0.0-1.0-108.0","0","0","46653","","null","","","null","11","","","","","","","","","","","","","","","NaN",""
"","S1","","html-keyboard-response","80","136120","0.0-1.0-110.0","0","0","46653","","null","","","null","12","","","","","","","","","","","","","","","",""
"","ISI","","html-keyboard-response","81","137123","0.0-1.0-111.0","0","0","46653","","null","","","null","12","NaN","","","","","","","","","","","","","","",""
"","S2","","html-keyboard-response","82","137379","0.0-1.0-112.0","0","0","46653","","null","","","null","12","","NaN","","","","","","","","","","","","","",""
"","response","","html-keyboard-response","83","138254","0.0-1.0-113.0-0.0","0","0","46653","","872","","","75","12","","","1","12","training","adjacent","AB","1","2","R.jpg","M.jpg","1","1","1","",""
"","feedback","","html-keyboard-response","84","139259","0.0-1.0-114.0-0.0","0","0","46653","","null","","","null","12","","","","","","","","","","","","","","","",""
"","ITI","","html-keyboard-response","85","140263","0.0-1.0-117.0","0","0","46653","","null","","","null","12","","","","","","","","","","","","","","","NaN",""
"","S1","","html-keyboard-response","86","140518","0.0-1.0-119.0","0","0","46653","","null","","","null","13","","","","","","","","","","","","","","","",""
"","ISI","","html-keyboard-response","87","141521","0.0-1.0-120.0","0","0","46653","","null","","","null","13","NaN","","","","","","","","","","","","","","",""
"","S2","","html-keyboard-response","88","141776","0.0-1.0-121.0","0","0","46653","","null","","","null","13","","NaN","","","","","","","","","","","","","",""
"","response","","html-keyboard-response","89","142247","0.0-1.0-122.0-0.0","0","0","46653","","468","","","68","13","","","1","13","training","adjacent","CD","3","4","P.jpg","O.jpg","0","1","0","",""
"","feedback","","html-keyboard-response","90","143251","0.0-1.0-123.0-0.0","0","0","46653","","null","","","null","13","","","","","","","","","","","","","","","",""
"","time_out","","html-keyboard-response","91","145254","0.0-1.0-125.0-0.0","0","0","46653","","null","","","null","13","","","","","","","","","","","","","","","",""
"","ITI","","html-keyboard-response","92","146257","0.0-1.0-126.0","0","0","46653","","null","","","null","13","","","","","","","","","","","","","","","NaN",""
"","S1","","html-keyboard-response","93","146510","0.0-1.0-128.0","0","0","46653","","null","","","null","14","","","","","","","","","","","","","","","",""
"","ISI","","html-keyboard-response","94","147514","0.0-1.0-129.0","0","0","46653","","null","","","null","14","NaN","","","","","","","","","","","","","","",""
"","S2","","html-keyboard-response","95","147769","0.0-1.0-130.0","0","0","46653","","null","","","null","14","","NaN","","","","","","","","","","","","","",""
"","response","","html-keyboard-response","96","148797","0.0-1.0-131.0-0.0","0","0","46653","","1025","","","68","14","","","1","14","training","adjacent","DE","4","5","O.jpg","Q.jpg","0","1","0","",""
"","feedback","","html-keyboard-response","97","149799","0.0-1.0-132.0-0.0","0","0","46653","","null","","","null","14","","","","","","","","","","","","","","","",""
"","time_out","","html-keyboard-response","98","151802","0.0-1.0-134.0-0.0","0","0","46653","","null","","","null","14","","","","","","","","","","","","","","","",""
"","ITI","","html-keyboard-response","99","152807","0.0-1.0-135.0","0","0","46653","","null","","","null","14","","","","","","","","","","","","","","","NaN",""
"","S1","","html-keyboard-response","100","153060","0.0-1.0-137.0","0","0","46653","","null","","","null","15","","","","","","","","","","","","","","","",""
"","ISI","","html-keyboard-response","101","154062","0.0-1.0-138.0","0","0","46653","","null","","","null","15","NaN","","","","","","","","","","","","","","",""
"","S2","","html-keyboard-response","102","154315","0.0-1.0-139.0","0","0","46653","","null","","","null","15","","NaN","","","","","","","","","","","","","",""
"","response","","html-keyboard-response","103","154510","0.0-1.0-140.0-0.0","0","0","46653","","191","","","75","15","","","1","15","training","adjacent","DC","4","3","O.jpg","P.jpg","1","0","0","",""
"","feedback","","html-keyboard-response","104","155514","0.0-1.0-141.0-0.0","0","0","46653","","null","","","null","15","","","","","","","","","","","","","","","",""
"","time_out","","html-keyboard-response","105","157518","0.0-1.0-143.0-0.0","0","0","46653","","null","","","null","15","","","","","","","","","","","","","","","",""
"","ITI","","html-keyboard-response","106","158521","0.0-1.0-144.0","0","0","46653","","null","","","null","15","","","","","","","","","","","","","","","NaN",""
"","S1","","html-keyboard-response","107","158776","0.0-1.0-146.0","0","0","46653","","null","","","null","16","","","","","","","","","","","","","","","",""
"","ISI","","html-keyboard-response","108","159779","0.0-1.0-147.0","0","0","46653","","null","","","null","16","NaN","","","","","","","","","","","","","","",""
"","S2","","html-keyboard-response","109","160033","0.0-1.0-148.0","0","0","46653","","null","","","null","16","","NaN","","","","","","","","","","","","","",""
"","response","","html-keyboard-response","110","160382","0.0-1.0-149.0-0.0","0","0","46653","","346","","","68","16","","","1","16","training","adjacent","EF","5","6","Q.jpg","L.jpg","0","1","0","",""
"","feedback","","html-keyboard-response","111","161385","0.0-1.0-150.0-0.0","0","0","46653","","null","","","null","16","","","","","","","","","","","","","","","",""
"","time_out","","html-keyboard-response","112","163388","0.0-1.0-152.0-0.0","0","0","46653","","null","","","null","16","","","","","","","","","","","","","","","",""
"","ITI","","html-keyboard-response","113","164392","0.0-1.0-153.0","0","0","46653","","null","","","null","16","","","","","","","","","","","","","","","NaN",""
"","S1","","html-keyboard-response","114","164647","0.0-1.0-155.0","0","0","46653","","null","","","null","17","","","","","","","","","","","","","","","",""
"","ISI","","html-keyboard-response","115","165649","0.0-1.0-156.0","0","0","46653","","null","","","null","17","NaN","","","","","","","","","","","","","","",""
"","S2","","html-keyboard-response","116","165902","0.0-1.0-157.0","0","0","46653","","null","","","null","17","","NaN","","","","","","","","","","","","","",""
"","response","","html-keyboard-response","117","166567","0.0-1.0-158.0-0.0","0","0","46653","","662","","","75","17","","","1","17","training","adjacent","EF","5","6","Q.jpg","L.jpg","1","1","1","",""
"","feedback","","html-keyboard-response","118","167571","0.0-1.0-159.0-0.0","0","0","46653","","null","","","null","17","","","","","","","","","","","","","","","",""
"","ITI","","html-keyboard-response","119","168575","0.0-1.0-162.0","0","0","46653","","null","","","null","17","","","","","","","","","","","","","","","NaN",""
"","S1","","html-keyboard-response","120","168829","0.0-1.0-164.0","0","0","46653","","null","","","null","18","","","","","","","","","","","","","","","",""
"","ISI","","html-keyboard-response","121","169833","0.0-1.0-165.0","0","0","46653","","null","","","null","18","NaN","","","","","","","","","","","","","","",""
"","S2","","html-keyboard-response","122","170089","0.0-1.0-166.0","0","0","46653","","null","","","null","18","","NaN","","","","","","","","","","","","","",""
"","response","","html-keyboard-response","123","171127","0.0-1.0-167.0-0.0","0","0","46653","","1034","","","68","18","","","1","18","training","adjacent","CD","3","4","P.jpg","O.jpg","0","1","0","",""
"","feedback","","html-keyboard-response","124","172132","0.0-1.0-168.0-0.0","0","0","46653","","null","","","null","18","","","","","","","","","","","","","","","",""
"","time_out","","html-keyboard-response","125","174136","0.0-1.0-170.0-0.0","0","0","46653","","null","","","null","18","","","","","","","","","","","","","","","",""
"","ITI","","html-keyboard-response","126","175140","0.0-1.0-171.0","0","0","46653","","null","","","null","18","","","","","","","","","","","","","","","NaN",""
"","S1","","html-keyboard-response","127","175393","0.0-1.0-173.0","0","0","46653","","null","","","null","19","","","","","","","","","","","","","","","",""
"","ISI","","html-keyboard-response","128","176396","0.0-1.0-174.0","0","0","46653","","null","","","null","19","NaN","","","","","","","","","","","","","","",""
"","S2","","html-keyboard-response","129","176649","0.0-1.0-175.0","0","0","46653","","null","","","null","19","","NaN","","","","","","","","","","","","","",""
"","response","","html-keyboard-response","130","176942","0.0-1.0-176.0-0.0","0","0","46653","","289","","","68","19","","","1","19","training","adjacent","GF","7","6","N.jpg","L.jpg","0","0","1","",""
"","feedback","","html-keyboard-response","131","177945","0.0-1.0-177.0-0.0","0","0","46653","","null","","","null","19","","","","","","","","","","","","","","","",""
"","ITI","","html-keyboard-response","132","178948","0.0-1.0-180.0","0","0","46653","","null","","","null","19","","","","","","","","","","","","","","","NaN",""
"","S1","","html-keyboard-response","133","179217","0.0-1.0-182.0","0","0","46653","","null","","","null","20","","","","","","","","","","","","","","","",""
"","ISI","","html-keyboard-response","134","180221","0.0-1.0-183.0","0","0","46653","","null","","","null","20","NaN","","","","","","","","","","","","","","",""
"","S2","","html-keyboard-response","135","180476","0.0-1.0-184.0","0","0","46653","","null","","","null","20","","NaN","","","","","","","","","","","","","",""
"","response","","html-keyboard-response","136","180604","0.0-1.0-185.0-0.0","0","0","46653","","127","","","68","20","","","1","20","training","adjacent","DC","4","3","O.jpg","P.jpg","0","0","1","",""
"","feedback","","html-keyboard-response","137","181607","0.0-1.0-186.0-0.0","0","0","46653","","null","","","null","20","","","","","","","","","","","","","","","",""
"","ITI","","html-keyboard-response","138","182611","0.0-1.0-189.0","0","0","46653","","null","","","null","20","","","","","","","","","","","","","","","NaN",""
"","S1","","html-keyboard-response","139","182865","0.0-1.0-191.0","0","0","46653","","null","","","null","21","","","","","","","","","","","","","","","",""
"","ISI","","html-keyboard-response","140","183869","0.0-1.0-192.0","0","0","46653","","null","","","null","21","NaN","","","","","","","","","","","","","","",""
"","S2","","html-keyboard-response","141","184122","0.0-1.0-193.0","0","0","46653","","null","","","null","21","","NaN","","","","","","","","","","","","","",""
"","response","","html-keyboard-response","142","184327","0.0-1.0-194.0-0.0","0","0","46653","","203","","","68","21","","","1","21","training","adjacent","CB","3","2","P.jpg","M.jpg","0","0","1","",""
"","feedback","","html-keyboard-response","143","185330","0.0-1.0-195.0-0.0","0","0","46653","","null","","","null","21","","","","","","","","","","","","","","","",""
"","ITI","","html-keyboard-response","144","186333","0.0-1.0-198.0","0","0","46653","","null","","","null","21","","","","","","","","","","","","","","","NaN",""
"","S1","","html-keyboard-response","145","186588","0.0-1.0-200.0","0","0","46653","","null","","","null","22","","","","","","","","","","","","","","","",""
"","ISI","","html-keyboard-response","146","187591","0.0-1.0-201.0","0","0","46653","","null","","","null","22","NaN","","","","","","","","","","","","","","",""
"","S2","","html-keyboard-response","147","187845","0.0-1.0-202.0","0","0","46653","","null","","","null","22","","NaN","","","","","","","","","","","","","",""
"","response","","html-keyboard-response","148","188527","0.0-1.0-203.0-0.0","0","0","46653","","678","","","68","22","","","1","22","training","adjacent","FE","6","5","L.jpg","Q.jpg","0","0","1","",""
"","feedback","","html-keyboard-response","149","189531","0.0-1.0-204.0-0.0","0","0","46653","","null","","","null","22","","","","","","","","","","","","","","","",""
"","ITI","","html-keyboard-response","150","190534","0.0-1.0-207.0","0","0","46653","","null","","","null","22","","","","","","","","","","","","","","","NaN",""
"","S1","","html-keyboard-response","151","190797","0.0-1.0-209.0","0","0","46653","","null","","","null","23","","","","","","","","","","","","","","","",""
"","ISI","","html-keyboard-response","152","191799","0.0-1.0-210.0","0","0","46653","","null","","","null","23","NaN","","","","","","","","","","","","","","",""
"","S2","","html-keyboard-response","153","192052","0.0-1.0-211.0","0","0","46653","","null","","","null","23","","NaN","","","","","","","","","","","","","",""
"","response","","html-keyboard-response","154","192127","0.0-1.0-212.0-0.0","0","0","46653","","71","","","68","23","","","1","23","training","adjacent","FG","6","7","L.jpg","N.jpg","0","1","0","",""
"","feedback","","html-keyboard-response","155","193131","0.0-1.0-213.0-0.0","0","0","46653","","null","","","null","23","","","","","","","","","","","","","","","",""
"","time_out","","html-keyboard-response","156","195135","0.0-1.0-215.0-0.0","0","0","46653","","null","","","null","23","","","","","","","","","","","","","","","",""
"","ITI","","html-keyboard-response","157","196139","0.0-1.0-216.0","0","0","46653","","null","","","null","23","","","","","","","","","","","","","","","NaN",""
"","S1","","html-keyboard-response","158","196393","0.0-1.0-218.0","0","0","46653","","null","","","null","24","","","","","","","","","","","","","","","",""
"","ISI","","html-keyboard-response","159","197395","0.0-1.0-219.0","0","0","46653","","null","","","null","24","NaN","","","","","","","","","","","","","","",""
"","S2","","html-keyboard-response","160","197648","0.0-1.0-220.0","0","0","46653","","null","","","null","24","","NaN","","","","","","","","","","","","","",""
"","response","","html-keyboard-response","161","198047","0.0-1.0-221.0-0.0","0","0","46653","","395","","","75","24","","","1","24","training","adjacent","FG","6","7","L.jpg","N.jpg","1","1","1","",""
"","feedback","","html-keyboard-response","162","199052","0.0-1.0-222.0-0.0","0","0","46653","","null","","","null","24","","","","","","","","","","","","","","","",""
"","ITI","","html-keyboard-response","163","200057","0.0-1.0-225.0","0","0","46653","","null","","","null","24","","","","","","","","","","","","","","","NaN",""
"","S1","","html-keyboard-response","164","200309","0.0-1.0-227.0","0","0","46653","","null","","","null","25","","","","","","","","","","","","","","","",""
"","ISI","","html-keyboard-response","165","201313","0.0-1.0-228.0","0","0","46653","","null","","","null","25","NaN","","","","","","","","","","","","","","",""
"","S2","","html-keyboard-response","166","201581","0.0-1.0-229.0","0","0","46653","","null","","","null","25","","NaN","","","","","","","","","","","","","",""
"","response","","html-keyboard-response","167","202444","0.0-1.0-230.0-0.0","0","0","46653","","862","","","68","25","","","1","25","training","adjacent","FE","6","5","L.jpg","Q.jpg","0","0","1","",""
"","feedback","","html-keyboard-response","168","203447","0.0-1.0-231.0-0.0","0","0","46653","","null","","","null","25","","","","","","","","","","","","","","","",""
"","ITI","","html-keyboard-response","169","204451","0.0-1.0-234.0","0","0","46653","","null","","","null","25","","","","","","","","","","","","","","","NaN",""
"","S1","","html-keyboard-response","170","204705","0.0-1.0-236.0","0","0","46653","","null","","","null","26","","","","","","","","","","","","","","","",""
"","ISI","","html-keyboard-response","171","205708","0.0-1.0-237.0","0","0","46653","","null","","","null","26","NaN","","","","","","","","","","","","","","",""
"","S2","","html-keyboard-response","172","205962","0.0-1.0-238.0","0","0","46653","","null","","","null","26","","NaN","","","","","","","","","","","","","",""
"","response","","html-keyboard-response","173","206030","0.0-1.0-239.0-0.0","0","0","46653","","65","","","68","26","","","1","26","training","adjacent","DE","4","5","O.jpg","Q.jpg","0","1","0","",""
"","feedback","","html-keyboard-response","174","207034","0.0-1.0-240.0-0.0","0","0","46653","","null","","","null","26","","","","","","","","","","","","","","","",""
"","time_out","","html-keyboard-response","175","209037","0.0-1.0-242.0-0.0","0","0","46653","","null","","","null","26","","","","","","","","","","","","","","","",""
"","ITI","","html-keyboard-response","176","210052","0.0-1.0-243.0","0","0","46653","","null","","","null","26","","","","","","","","","","","","","","","NaN",""
"","S1","","html-keyboard-response","177","210306","0.0-1.0-245.0","0","0","46653","","null","","","null","27","","","","","","","","","","","","","","","",""
"","ISI","","html-keyboard-response","178","211319","0.0-1.0-246.0","0","0","46653","","null","","","null","27","NaN","","","","","","","","","","","","","","",""
"","S2","","html-keyboard-response","179","211573","0.0-1.0-247.0","0","0","46653","","null","","","null","27","","NaN","","","","","","","","","","","","","",""
"","response","","html-keyboard-response","180","211997","0.0-1.0-248.0-0.0","0","0","46653","","422","","","68","27","","","1","27","training","adjacent","FE","6","5","L.jpg","Q.jpg","0","0","1","",""
"","feedback","","html-keyboard-response","181","213000","0.0-1.0-249.0-0.0","0","0","46653","","null","","","null","27","","","","","","","","","","","","","","","",""
"","ITI","","html-keyboard-response","182","214003","0.0-1.0-252.0","0","0","46653","","null","","","null","27","","","","","","","","","","","","","","","NaN",""
"","S1","","html-keyboard-response","183","214257","0.0-1.0-254.0","0","0","46653","","null","","","null","28","","","","","","","","","","","","","","","",""
"","ISI","","html-keyboard-response","184","215260","0.0-1.0-255.0","0","0","46653","","null","","","null","28","NaN","","","","","","","","","","","","","","",""
"","S2","","html-keyboard-response","185","215514","0.0-1.0-256.0","0","0","46653","","null","","","null","28","","NaN","","","","","","","","","","","","","",""
"","response","","html-keyboard-response","186","215847","0.0-1.0-257.0-0.0","0","0","46653","","330","","","75","28","","","1","28","training","adjacent","ED","5","4","Q.jpg","O.jpg","1","0","0","",""
"","feedback","","html-keyboard-response","187","216851","0.0-1.0-258.0-0.0","0","0","46653","","null","","","null","28","","","","","","","","","","","","","","","",""
"","time_out","","html-keyboard-response","188","218855","0.0-1.0-260.0-0.0","0","0","46653","","null","","","null","28","","","","","","","","","","","","","","","",""
"","ITI","","html-keyboard-response","189","219860","0.0-1.0-261.0","0","0","46653","","null","","","null","28","","","","","","","","","","","","","","","NaN",""
"","S1","","html-keyboard-response","190","220112","0.0-1.0-263.0","0","0","46653","","null","","","null","29","","","","","","","","","","","","","","","",""
"","ISI","","html-keyboard-response","191","221115","0.0-1.0-264.0","0","0","46653","","null","","","null","29","NaN","","","","","","","","","","","","","","",""
"","S2","","html-keyboard-response","192","221369","0.0-1.0-265.0","0","0","46653","","null","","","null","29","","NaN","","","","","","","","","","","","","",""
"","response","","html-keyboard-response","193","222124","0.0-1.0-266.0-0.0","0","0","46653","","753","","","68","29","","","1","29","training","adjacent","DC","4","3","O.jpg","P.jpg","0","0","1","",""
"","feedback","","html-keyboard-response","194","223129","0.0-1.0-267.0-0.0","0","0","46653","","null","","","null","29","","","","","","","","","","","","","","","",""
"","ITI","","html-keyboard-response","195","224132","0.0-1.0-270.0","0","0","46653","","null","","","null","29","","","","","","","","","","","","","","","NaN",""
"","S1","","html-keyboard-response","196","224387","0.0-1.0-272.0","0","0","46653","","null","","","null","30","","","","","","","","","","","","","","","",""
"","ISI","","html-keyboard-response","197","225390","0.0-1.0-273.0","0","0","46653","","null","","","null","30","NaN","","","","","","","","","","","","","","",""
"","S2","","html-keyboard-response","198","225644","0.0-1.0-274.0","0","0","46653","","null","","","null","30","","NaN","","","","","","","","","","","","","",""
"","response","","html-keyboard-response","199","226398","0.0-1.0-275.0-0.0","0","0","46653","","751","","","68","30","","","1","30","training","adjacent","CB","3","2","P.jpg","M.jpg","0","0","1","",""
"","feedback","","html-keyboard-response","200","227402","0.0-1.0-276.0-0.0","0","0","46653","","null","","","null","30","","","","","","","","","","","","","","","",""
"","ITI","","html-keyboard-response","201","228406","0.0-1.0-279.0","0","0","46653","","null","","","null","30","","","","","","","","","","","","","","","NaN",""
"","S1","","html-keyboard-response","202","228659","0.0-1.0-281.0","0","0","46653","","null","","","null","31","","","","","","","","","","","","","","","",""
"","ISI","","html-keyboard-response","203","229662","0.0-1.0-282.0","0","0","46653","","null","","","null","31","NaN","","","","","","","","","","","","","","",""
"","S2","","html-keyboard-response","204","229917","0.0-1.0-283.0","0","0","46653","","null","","","null","31","","NaN","","","","","","","","","","","","","",""
"","response","","html-keyboard-response","205","230774","0.0-1.0-284.0-0.0","0","0","46653","","854","","","75","31","","","1","31","training","adjacent","BC","2","3","M.jpg","P.jpg","1","1","1","",""
"","feedback","","html-keyboard-response","206","231778","0.0-1.0-285.0-0.0","0","0","46653","","null","","","null","31","","","","","","","","","","","","","","","",""
"","ITI","","html-keyboard-response","207","232784","0.0-1.0-288.0","0","0","46653","","null","","","null","31","","","","","","","","","","","","","","","NaN",""
"","S1","","html-keyboard-response","208","233038","0.0-1.0-290.0","0","0","46653","","null","","","null","32","","","","","","","","","","","","","","","",""
"","ISI","","html-keyboard-response","209","234041","0.0-1.0-291.0","0","0","46653","","null","","","null","32","NaN","","","","","","","","","","","","","","",""
"","S2","","html-keyboard-response","210","234297","0.0-1.0-292.0","0","0","46653","","null","","","null","32","","NaN","","","","","","","","","","","","","",""
"","response","","html-keyboard-response","211","234935","0.0-1.0-293.0-0.0","0","0","46653","","634","","","75","32","","","1","32","training","adjacent","ED","5","4","Q.jpg","O.jpg","1","0","0","",""
"","feedback","","html-keyboard-response","212","235939","0.0-1.0-294.0-0.0","0","0","46653","","null","","","null","32","","","","","","","","","","","","","","","",""
"","time_out","","html-keyboard-response","213","237942","0.0-1.0-296.0-0.0","0","0","46653","","null","","","null","32","","","","","","","","","","","","","","","",""
"","ITI","","html-keyboard-response","214","238946","0.0-1.0-297.0","0","0","46653","","null","","","null","32","","","","","","","","","","","","","","","NaN",""
"","S1","","html-keyboard-response","215","239200","0.0-1.0-299.0","0","0","46653","","null","","","null","33","","","","","","","","","","","","","","","",""
"","ISI","","html-keyboard-response","216","240204","0.0-1.0-300.0","0","0","46653","","null","","","null","33","NaN","","","","","","","","","","","","","","",""
"","S2","","html-keyboard-response","217","240459","0.0-1.0-301.0","0","0","46653","","null","","","null","33","","NaN","","","","","","","","","","","","","",""
"","response","","html-keyboard-response","218","240870","0.0-1.0-302.0-0.0","0","0","46653","","408","","","68","33","","","1","33","training","adjacent","DE","4","5","O.jpg","Q.jpg","0","1","0","",""
"","feedback","","html-keyboard-response","219","241875","0.0-1.0-303.0-0.0","0","0","46653","","null","","","null","33","","","","","","","","","","","","","","","",""
"","time_out","","html-keyboard-response","220","243879","0.0-1.0-305.0-0.0","0","0","46653","","null","","","null","33","","","","","","","","","","","","","","","",""
"","ITI","","html-keyboard-response","221","244882","0.0-1.0-306.0","0","0","46653","","null","","","null","33","","","","","","","","","","","","","","","NaN",""
"","S1","","html-keyboard-response","222","245137","0.0-1.0-308.0","0","0","46653","","null","","","null","34","","","","","","","","","","","","","","","",""
"","ISI","","html-keyboard-response","223","246154","0.0-1.0-309.0","0","0","46653","","null","","","null","34","NaN","","","","","","","","","","","","","","",""
"","S2","","html-keyboard-response","224","246408","0.0-1.0-310.0","0","0","46653","","null","","","null","34","","NaN","","","","","","","","","","","","","",""
"","response","","html-keyboard-response","225","246734","0.0-1.0-311.0-0.0","0","0","46653","","323","","","68","34","","","1","34","training","adjacent","DC","4","3","O.jpg","P.jpg","0","0","1","",""
"","feedback","","html-keyboard-response","226","247738","0.0-1.0-312.0-0.0","0","0","46653","","null","","","null","34","","","","","","","","","","","","","","","",""
"","ITI","","html-keyboard-response","227","248743","0.0-1.0-315.0","0","0","46653","","null","","","null","34","","","","","","","","","","","","","","","NaN",""
"","S1","","html-keyboard-response","228","248997","0.0-1.0-317.0","0","0","46653","","null","","","null","35","","","","","","","","","","","","","","","",""
"","ISI","","html-keyboard-response","229","250001","0.0-1.0-318.0","0","0","46653","","null","","","null","35","NaN","","","","","","","","","","","","","","",""
"","S2","","html-keyboard-response","230","250255","0.0-1.0-319.0","0","0","46653","","null","","","null","35","","NaN","","","","","","","","","","","","","",""
"","response","","html-keyboard-response","231","250670","0.0-1.0-320.0-0.0","0","0","46653","","412","","","75","35","","","1","35","training","adjacent","CD","3","4","P.jpg","O.jpg","1","1","1","",""
"","feedback","","html-keyboard-response","232","251675","0.0-1.0-321.0-0.0","0","0","46653","","null","","","null","35","","","","","","","","","","","","","","","",""
"","ITI","","html-keyboard-response","233","252680","0.0-1.0-324.0","0","0","46653","","null","","","null","35","","","","","","","","","","","","","","","NaN",""
"","S1","","html-keyboard-response","234","252934","0.0-1.0-326.0","0","0","46653","","null","","","null","36","","","","","","","","","","","","","","","",""
"","ISI","","html-keyboard-response","235","253937","0.0-1.0-327.0","0","0","46653","","null","","","null","36","NaN","","","","","","","","","","","","","","",""
"","S2","","html-keyboard-response","236","254191","0.0-1.0-328.0","0","0","46653","","null","","","null","36","","NaN","","","","","","","","","","","","","",""
"","response","","html-keyboard-response","237","254534","0.0-1.0-329.0-0.0","0","0","46653","","341","","","75","36","","","1","36","training","adjacent","ED","5","4","Q.jpg","O.jpg","1","0","0","",""
"","feedback","","html-keyboard-response","238","255539","0.0-1.0-330.0-0.0","0","0","46653","","null","","","null","36","","","","","","","","","","","","","","","",""
"","time_out","","html-keyboard-response","239","257545","0.0-1.0-332.0-0.0","0","0","46653","","null","","","null","36","","","","","","","","","","","","","","","",""
"","ITI","","html-keyboard-response","240","258549","0.0-1.0-333.0","0","0","46653","","null","","","null","36","","","","","","","","","","","","","","","NaN",""
"","S1","","html-keyboard-response","241","258803","0.0-1.0-335.0","0","0","46653","","null","","","null","37","","","","","","","","","","","","","","","",""
"","ISI","","html-keyboard-response","242","259808","0.0-1.0-336.0","0","0","46653","","null","","","null","37","NaN","","","","","","","","","","","","","","",""
"","S2","","html-keyboard-response","243","260061","0.0-1.0-337.0","0","0","46653","","null","","","null","37","","NaN","","","","","","","","","","","","","",""
"","response","","html-keyboard-response","244","260622","0.0-1.0-338.0-0.0","0","0","46653","","558","","","68","37","","","1","37","training","adjacent","BA","2","1","M.jpg","R.jpg","0","0","1","",""
"","feedback","","html-keyboard-response","245","261627","0.0-1.0-339.0-0.0","0","0","46653","","null","","","null","37","","","","","","","","","","","","","","","",""
"","ITI","","html-keyboard-response","246","262637","0.0-1.0-342.0","0","0","46653","","null","","","null","37","","","","","","","","","","","","","","","NaN",""
"","S1","","html-keyboard-response","247","262891","0.0-1.0-344.0","0","0","46653","","null","","","null","38","","","","","","","","","","","","","","","",""
"","ISI","","html-keyboard-response","248","263894","0.0-1.0-345.0","0","0","46653","","null","","","null","38","NaN","","","","","","","","","","","","","","",""
"","S2","","html-keyboard-response","249","264149","0.0-1.0-346.0","0","0","46653","","null","","","null","38","","NaN","","","","","","","","","","","","","",""
"","response","","html-keyboard-response","250","264470","0.0-1.0-347.0-0.0","0","0","46653","","317","","","68","38","","","1","38","training","adjacent","DE","4","5","O.jpg","Q.jpg","0","1","0","",""
"","feedback","","html-keyboard-response","251","265475","0.0-1.0-348.0-0.0","0","0","46653","","null","","","null","38","","","","","","","","","","","","","","","",""
"","time_out","","html-keyboard-response","252","267479","0.0-1.0-350.0-0.0","0","0","46653","","null","","","null","38","","","","","","","","","","","","","","","",""
"","ITI","","html-keyboard-response","253","268481","0.0-1.0-351.0","0","0","46653","","null","","","null","38","","","","","","","","","","","","","","","NaN",""
"","S1","","html-keyboard-response","254","268737","0.0-1.0-353.0","0","0","46653","","null","","","null","39","","","","","","","","","","","","","","","",""
"","ISI","","html-keyboard-response","255","269754","0.0-1.0-354.0","0","0","46653","","null","","","null","39","NaN","","","","","","","","","","","","","","",""
"","S2","","html-keyboard-response","256","270009","0.0-1.0-355.0","0","0","46653","","null","","","null","39","","NaN","","","","","","","","","","","","","",""
"","response","","html-keyboard-response","257","270311","0.0-1.0-356.0-0.0","0","0","46653","","298","","","75","39","","","1","39","training","adjacent","FG","6","7","L.jpg","N.jpg","1","1","1","",""
"","feedback","","html-keyboard-response","258","271315","0.0-1.0-357.0-0.0","0","0","46653","","null","","","null","39","","","","","","","","","","","","","","","",""
"","ITI","","html-keyboard-response","259","272318","0.0-1.0-360.0","0","0","46653","","null","","","null","39","","","","","","","","","","","","","","","NaN",""
"","S1","","html-keyboard-response","260","272571","0.0-1.0-362.0","0","0","46653","","null","","","null","40","","","","","","","","","","","","","","","",""
"","ISI","","html-keyboard-response","261","273574","0.0-1.0-363.0","0","0","46653","","null","","","null","40","NaN","","","","","","","","","","","","","","",""
"","S2","","html-keyboard-response","262","273832","0.0-1.0-364.0","0","0","46653","","null","","","null","40","","NaN","","","","","","","","","","","","","",""
"","response","","html-keyboard-response","263","274328","0.0-1.0-365.0-0.0","0","0","46653","","492","","","68","40","","","1","40","training","adjacent","EF","5","6","Q.jpg","L.jpg","0","1","0","",""
"","feedback","","html-keyboard-response","264","275332","0.0-1.0-366.0-0.0","0","0","46653","","null","","","null","40","","","","","","","","","","","","","","","",""
"","time_out","","html-keyboard-response","265","277336","0.0-1.0-368.0-0.0","0","0","46653","","null","","","null","40","","","","","","","","","","","","","","","",""
"","ITI","","html-keyboard-response","266","278340","0.0-1.0-369.0","0","0","46653","","null","","","null","40","","","","","","","","","","","","","","","NaN",""
"","S1","","html-keyboard-response","267","278593","0.0-1.0-371.0","0","0","46653","","null","","","null","41","","","","","","","","","","","","","","","",""
"","ISI","","html-keyboard-response","268","279598","0.0-1.0-372.0","0","0","46653","","null","","","null","41","NaN","","","","","","","","","","","","","","",""
"","S2","","html-keyboard-response","269","279852","0.0-1.0-373.0","0","0","46653","","null","","","null","41","","NaN","","","","","","","","","","","","","",""
"","response","","html-keyboard-response","270","280143","0.0-1.0-374.0-0.0","0","0","46653","","287","","","75","41","","","1","41","training","adjacent","BA","2","1","M.jpg","R.jpg","1","0","0","",""
"","feedback","","html-keyboard-response","271","281148","0.0-1.0-375.0-0.0","0","0","46653","","null","","","null","41","","","","","","","","","","","","","","","",""
"","time_out","","html-keyboard-response","272","283151","0.0-1.0-377.0-0.0","0","0","46653","","null","","","null","41","","","","","","","","","","","","","","","",""
"","ITI","","html-keyboard-response","273","284154","0.0-1.0-378.0","0","0","46653","","null","","","null","41","","","","","","","","","","","","","","","NaN",""
"","S1","","html-keyboard-response","274","284408","0.0-1.0-380.0","0","0","46653","","null","","","null","42","","","","","","","","","","","","","","","",""
"","ISI","","html-keyboard-response","275","285412","0.0-1.0-381.0","0","0","46653","","null","","","null","42","NaN","","","","","","","","","","","","","","",""
"","S2","","html-keyboard-response","276","285667","0.0-1.0-382.0","0","0","46653","","null","","","null","42","","NaN","","","","","","","","","","","","","",""
"","response","","html-keyboard-response","277","286125","0.0-1.0-383.0-0.0","0","0","46653","","456","","","75","42","","","1","42","training","adjacent","FE","6","5","L.jpg","Q.jpg","1","0","0","",""
"","feedback","","html-keyboard-response","278","287130","0.0-1.0-384.0-0.0","0","0","46653","","null","","","null","42","","","","","","","","","","","","","","","",""
"","time_out","","html-keyboard-response","279","289133","0.0-1.0-386.0-0.0","0","0","46653","","null","","","null","42","","","","","","","","","","","","","","","",""
"","ITI","","html-keyboard-response","280","290136","0.0-1.0-387.0","0","0","46653","","null","","","null","42","","","","","","","","","","","","","","","NaN",""
"","S1","","html-keyboard-response","281","290403","0.0-1.0-389.0","0","0","46653","","null","","","null","43","","","","","","","","","","","","","","","",""
"","ISI","","html-keyboard-response","282","291407","0.0-1.0-390.0","0","0","46653","","null","","","null","43","NaN","","","","","","","","","","","","","","",""
"","S2","","html-keyboard-response","283","291661","0.0-1.0-391.0","0","0","46653","","null","","","null","43","","NaN","","","","","","","","","","","","","",""
"","response","","html-keyboard-response","284","291968","0.0-1.0-392.0-0.0","0","0","46653","","304","","","75","43","","","1","43","training","adjacent","GF","7","6","N.jpg","L.jpg","1","0","0","",""
"","feedback","","html-keyboard-response","285","292972","0.0-1.0-393.0-0.0","0","0","46653","","null","","","null","43","","","","","","","","","","","","","","","",""
"","time_out","","html-keyboard-response","286","294978","0.0-1.0-395.0-0.0","0","0","46653","","null","","","null","43","","","","","","","","","","","","","","","",""
"","ITI","","html-keyboard-response","287","295981","0.0-1.0-396.0","0","0","46653","","null","","","null","43","","","","","","","","","","","","","","","NaN",""
"","S1","","html-keyboard-response","288","296235","0.0-1.0-398.0","0","0","46653","","null","","","null","44","","","","","","","","","","","","","","","",""
"","ISI","","html-keyboard-response","289","297252","0.0-1.0-399.0","0","0","46653","","null","","","null","44","NaN","","","","","","","","","","","","","","",""
"","S2","","html-keyboard-response","290","297506","0.0-1.0-400.0","0","0","46653","","null","","","null","44","","NaN","","","","","","","","","","","","","",""
"","response","","html-keyboard-response","291","297856","0.0-1.0-401.0-0.0","0","0","46653","","346","","","75","44","","","1","44","training","adjacent","EF","5","6","Q.jpg","L.jpg","1","1","1","",""
"","feedback","","html-keyboard-response","292","298860","0.0-1.0-402.0-0.0","0","0","46653","","null","","","null","44","","","","","","","","","","","","","","","",""
"","ITI","","html-keyboard-response","293","299864","0.0-1.0-405.0","0","0","46653","","null","","","null","44","","","","","","","","","","","","","","","NaN",""
"","S1","","html-keyboard-response","294","300117","0.0-1.0-407.0","0","0","46653","","null","","","null","45","","","","","","","","","","","","","","","",""
"","ISI","","html-keyboard-response","295","301121","0.0-1.0-408.0","0","0","46653","","null","","","null","45","NaN","","","","","","","","","","","","","","",""
"","S2","","html-keyboard-response","296","301376","0.0-1.0-409.0","0","0","46653","","null","","","null","45","","NaN","","","","","","","","","","","","","",""
"","response","","html-keyboard-response","297","301495","0.0-1.0-410.0-0.0","0","0","46653","","115","","","75","45","","","1","45","training","adjacent","AB","1","2","R.jpg","M.jpg","1","1","1","",""
"","feedback","","html-keyboard-response","298","302503","0.0-1.0-411.0-0.0","0","0","46653","","null","","","null","45","","","","","","","","","","","","","","","",""
"","ITI","","html-keyboard-response","299","303507","0.0-1.0-414.0","0","0","46653","","null","","","null","45","","","","","","","","","","","","","","","NaN",""
"","S1","","html-keyboard-response","300","303762","0.0-1.0-416.0","0","0","46653","","null","","","null","46","","","","","","","","","","","","","","","",""
"","ISI","","html-keyboard-response","301","304765","0.0-1.0-417.0","0","0","46653","","null","","","null","46","NaN","","","","","","","","","","","","","","",""
"","S2","","html-keyboard-response","302","305018","0.0-1.0-418.0","0","0","46653","","null","","","null","46","","NaN","","","","","","","","","","","","","",""
"","response","","html-keyboard-response","303","305559","0.0-1.0-419.0-0.0","0","0","46653","","537","","","68","46","","","1","46","training","adjacent","BA","2","1","M.jpg","R.jpg","0","0","1","",""
"","feedback","","html-keyboard-response","304","306563","0.0-1.0-420.0-0.0","0","0","46653","","null","","","null","46","","","","","","","","","","","","","","","",""
"","ITI","","html-keyboard-response","305","307568","0.0-1.0-423.0","0","0","46653","","null","","","null","46","","","","","","","","","","","","","","","NaN",""
"","S1","","html-keyboard-response","306","307821","0.0-1.0-425.0","0","0","46653","","null","","","null","47","","","","","","","","","","","","","","","",""
"","ISI","","html-keyboard-response","307","308831","0.0-1.0-426.0","0","0","46653","","null","","","null","47","NaN","","","","","","","","","","","","","","",""
"","S2","","html-keyboard-response","308","309085","0.0-1.0-427.0","0","0","46653","","null","","","null","47","","NaN","","","","","","","","","","","","","",""
"","response","","html-keyboard-response","309","309631","0.0-1.0-428.0-0.0","0","0","46653","","542","","","75","47","","","1","47","training","adjacent","CD","3","4","P.jpg","O.jpg","1","1","1","",""
"","feedback","","html-keyboard-response","310","310636","0.0-1.0-429.0-0.0","0","0","46653","","null","","","null","47","","","","","","","","","","","","","","","",""
"","ITI","","html-keyboard-response","311","311640","0.0-1.0-432.0","0","0","46653","","null","","","null","47","","","","","","","","","","","","","","","NaN",""
"","block_over","","html-keyboard-response","312","316311","0.0-1.0-433.0-0.0","0","0","46653","","4665","","","32","47","","","","","","","","","","","","","","","",""
"","S1","","html-keyboard-response","313","316565","0.0-1.0-434.0","0","0","46653","","null","","","null","48","","","","","","","","","","","","","","","",""
"","ISI","","html-keyboard-response","314","317568","0.0-1.0-435.0","0","0","46653","","null","","","null","48","NaN","","","","","","","","","","","","","","",""
"","S2","","html-keyboard-response","315","317823","0.0-1.0-436.0","0","0","46653","","null","","","null","48","","NaN","","","","","","","","","","","","","",""
"","response","","html-keyboard-response","316","318255","0.0-1.0-437.0-0.0","0","0","46653","","428","","","75","48","","","2","48","training","adjacent","CD","3","4","P.jpg","O.jpg","1","1","1","",""
"","feedback","","html-keyboard-response","317","319260","0.0-1.0-438.0-0.0","0","0","46653","","null","","","null","48","","","","","","","","","","","","","","","",""
"","ITI","","html-keyboard-response","318","320263","0.0-1.0-441.0","0","0","46653","","null","","","null","48","","","","","","","","","","","","","","","NaN",""
"","S1","","html-keyboard-response","319","320518","0.0-1.0-443.0","0","0","46653","","null","","","null","49","","","","","","","","","","","","","","","",""
"","ISI","","html-keyboard-response","320","321521","0.0-1.0-444.0","0","0","46653","","null","","","null","49","NaN","","","","","","","","","","","","","","",""
"","S2","","html-keyboard-response","321","321776","0.0-1.0-445.0","0","0","46653","","null","","","null","49","","NaN","","","","","","","","","","","","","",""
"","response","","html-keyboard-response","322","322151","0.0-1.0-446.0-0.0","0","0","46653","","372","","","75","49","","","2","49","training","adjacent","FG","6","7","L.jpg","N.jpg","1","1","1","",""
"","feedback","","html-keyboard-response","323","323155","0.0-1.0-447.0-0.0","0","0","46653","","null","","","null","49","","","","","","","","","","","","","","","",""
"","ITI","","html-keyboard-response","324","324160","0.0-1.0-450.0","0","0","46653","","null","","","null","49","","","","","","","","","","","","","","","NaN",""
"","S1","","html-keyboard-response","325","324414","0.0-1.0-452.0","0","0","46653","","null","","","null","50","","","","","","","","","","","","","","","",""
"","ISI","","html-keyboard-response","326","325418","0.0-1.0-453.0","0","0","46653","","null","","","null","50","NaN","","","","","","","","","","","","","","",""
"","S2","","html-keyboard-response","327","325672","0.0-1.0-454.0","0","0","46653","","null","","","null","50","","NaN","","","","","","","","","","","","","",""
"","response","","html-keyboard-response","328","325768","0.0-1.0-455.0-0.0","0","0","46653","","92","","","75","50","","","2","50","training","adjacent","AB","1","2","R.jpg","M.jpg","1","1","1","",""
"","feedback","","html-keyboard-response","329","326772","0.0-1.0-456.0-0.0","0","0","46653","","null","","","null","50","","","","","","","","","","","","","","","",""
"","ITI","","html-keyboard-response","330","327776","0.0-1.0-459.0","0","0","46653","","null","","","null","50","","","","","","","","","","","","","","","NaN",""
"","S1","","html-keyboard-response","331","328030","0.0-1.0-461.0","0","0","46653","","null","","","null","51","","","","","","","","","","","","","","","",""
"","ISI","","html-keyboard-response","332","329037","0.0-1.0-462.0","0","0","46653","","null","","","null","51","NaN","","","","","","","","","","","","","","",""
"","S2","","html-keyboard-response","333","329291","0.0-1.0-463.0","0","0","46653","","null","","","null","51","","NaN","","","","","","","","","","","","","",""
"","response","","html-keyboard-response","334","329646","0.0-1.0-464.0-0.0","0","0","46653","","352","","","68","51","","","2","51","training","adjacent","FE","6","5","L.jpg","Q.jpg","0","0","1","",""
"","feedback","","html-keyboard-response","335","330650","0.0-1.0-465.0-0.0","0","0","46653","","null","","","null","51","","","","","","","","","","","","","","","",""
"","ITI","","html-keyboard-response","336","331667","0.0-1.0-468.0","0","0","46653","","null","","","null","51","","","","","","","","","","","","","","","NaN",""
"","S1","","html-keyboard-response","337","331921","0.0-1.0-470.0","0","0","46653","","null","","","null","52","","","","","","","","","","","","","","","",""
"","ISI","","html-keyboard-response","338","332924","0.0-1.0-471.0","0","0","46653","","null","","","null","52","NaN","","","","","","","","","","","","","","",""
"","S2","","html-keyboard-response","339","333187","0.0-1.0-472.0","0","0","46653","","null","","","null","52","","NaN","","","","","","","","","","","","","",""
"","response","","html-keyboard-response","340","333559","0.0-1.0-473.0-0.0","0","0","46653","","369","","","68","52","","","2","52","training","adjacent","BA","2","1","M.jpg","R.jpg","0","0","1","",""
"","feedback","","html-keyboard-response","341","334564","0.0-1.0-474.0-0.0","0","0","46653","","null","","","null","52","","","","","","","","","","","","","","","",""
"","ITI","","html-keyboard-response","342","335568","0.0-1.0-477.0","0","0","46653","","null","","","null","52","","","","","","","","","","","","","","","NaN",""
"","S1","","html-keyboard-response","343","335822","0.0-1.0-479.0","0","0","46653","","null","","","null","53","","","","","","","","","","","","","","","",""
"","ISI","","html-keyboard-response","344","336826","0.0-1.0-480.0","0","0","46653","","null","","","null","53","NaN","","","","","","","","","","","","","","",""
"","S2","","html-keyboard-response","345","337080","0.0-1.0-481.0","0","0","46653","","null","","","null","53","","NaN","","","","","","","","","","","","","",""
"","response","","html-keyboard-response","346","337359","0.0-1.0-482.0-0.0","0","0","46653","","276","","","75","53","","","2","53","training","adjacent","EF","5","6","Q.jpg","L.jpg","1","1","1","",""
"","feedback","","html-keyboard-response","347","338365","0.0-1.0-483.0-0.0","0","0","46653","","null","","","null","53","","","","","","","","","","","","","","","",""
"","ITI","","html-keyboard-response","348","339369","0.0-1.0-486.0","0","0","46653","","null","","","null","53","","","","","","","","","","","","","","","NaN",""
"","S1","","html-keyboard-response","349","339623","0.0-1.0-488.0","0","0","46653","","null","","","null","54","","","","","","","","","","","","","","","",""
"","ISI","","html-keyboard-response","350","340627","0.0-1.0-489.0","0","0","46653","","null","","","null","54","NaN","","","","","","","","","","","","","","",""
"","S2","","html-keyboard-response","351","340881","0.0-1.0-490.0","0","0","46653","","null","","","null","54","","NaN","","","","","","","","","","","","","",""
"","response","","html-keyboard-response","352","341143","0.0-1.0-491.0-0.0","0","0","46653","","258","","","75","54","","","2","54","training","adjacent","ED","5","4","Q.jpg","O.jpg","1","0","0","",""
"","feedback","","html-keyboard-response","353","342148","0.0-1.0-492.0-0.0","0","0","46653","","null","","","null","54","","","","","","","","","","","","","","","",""
"","time_out","","html-keyboard-response","354","344151","0.0-1.0-494.0-0.0","0","0","46653","","null","","","null","54","","","","","","","","","","","","","","","",""
"","ITI","","html-keyboard-response","355","345154","0.0-1.0-495.0","0","0","46653","","null","","","null","54","","","","","","","","","","","","","","","NaN",""
"","S1","","html-keyboard-response","356","345419","0.0-1.0-497.0","0","0","46653","","null","","","null","55","","","","","","","","","","","","","","","",""
"","ISI","","html-keyboard-response","357","346423","0.0-1.0-498.0","0","0","46653","","null","","","null","55","NaN","","","","","","","","","","","","","","",""
"","S2","","html-keyboard-response","358","346678","0.0-1.0-499.0","0","0","46653","","null","","","null","55","","NaN","","","","","","","","","","","","","",""
"","response","","html-keyboard-response","359","346903","0.0-1.0-500.0-0.0","0","0","46653","","222","","","75","55","","","2","55","training","adjacent","DC","4","3","O.jpg","P.jpg","1","0","0","",""
"","feedback","","html-keyboard-response","360","347908","0.0-1.0-501.0-0.0","0","0","46653","","null","","","null","55","","","","","","","","","","","","","","","",""
"","time_out","","html-keyboard-response","361","349912","0.0-1.0-503.0-0.0","0","0","46653","","null","","","null","55","","","","","","","","","","","","","","","",""
"","ITI","","html-keyboard-response","362","350914","0.0-1.0-504.0","0","0","46653","","null","","","null","55","","","","","","","","","","","","","","","NaN",""
"","S1","","html-keyboard-response","363","351167","0.0-1.0-506.0","0","0","46653","","null","","","null","56","","","","","","","","","","","","","","","",""
"","ISI","","html-keyboard-response","364","352169","0.0-1.0-507.0","0","0","46653","","null","","","null","56","NaN","","","","","","","","","","","","","","",""
"","S2","","html-keyboard-response","365","352423","0.0-1.0-508.0","0","0","46653","","null","","","null","56","","NaN","","","","","","","","","","","","","",""
"","response","","html-keyboard-response","366","352686","0.0-1.0-509.0-0.0","0","0","46653","","260","","","68","56","","","2","56","training","adjacent","BA","2","1","M.jpg","R.jpg","0","0","1","",""
"","feedback","","html-keyboard-response","367","353690","0.0-1.0-510.0-0.0","0","0","46653","","null","","","null","56","","","","","","","","","","","","","","","",""
"","ITI","","html-keyboard-response","368","354694","0.0-1.0-513.0","0","0","46653","","null","","","null","56","","","","","","","","","","","","","","","NaN",""
"","S1","","html-keyboard-response","369","354949","0.0-1.0-515.0","0","0","46653","","null","","","null","57","","","","","","","","","","","","","","","",""
"","ISI","","html-keyboard-response","370","355952","0.0-1.0-516.0","0","0","46653","","null","","","null","57","NaN","","","","","","","","","","","","","","",""
"","S2","","html-keyboard-response","371","356206","0.0-1.0-517.0","0","0","46653","","null","","","null","57","","NaN","","","","","","","","","","","","","",""
"","response","","html-keyboard-response","372","356639","0.0-1.0-518.0-0.0","0","0","46653","","430","","","68","57","","","2","57","training","adjacent","EF","5","6","Q.jpg","L.jpg","0","1","0","",""
"","feedback","","html-keyboard-response","373","357648","0.0-1.0-519.0-0.0","0","0","46653","","null","","","null","57","","","","","","","","","","","","","","","",""
"","time_out","","html-keyboard-response","374","359652","0.0-1.0-521.0-0.0","0","0","46653","","null","","","null","57","","","","","","","","","","","","","","","",""
"","ITI","","html-keyboard-response","375","360657","0.0-1.0-522.0","0","0","46653","","null","","","null","57","","","","","","","","","","","","","","","NaN",""
"","S1","","html-keyboard-response","376","360911","0.0-1.0-524.0","0","0","46653","","null","","","null","58","","","","","","","","","","","","","","","",""
"","ISI","","html-keyboard-response","377","361915","0.0-1.0-525.0","0","0","46653","","null","","","null","58","NaN","","","","","","","","","","","","","","",""
"","S2","","html-keyboard-response","378","362175","0.0-1.0-526.0","0","0","46653","","null","","","null","58","","NaN","","","","","","","","","","","","","",""
"","response","","html-keyboard-response","379","362263","0.0-1.0-527.0-0.0","0","0","46653","","84","","","68","58","","","2","58","training","adjacent","GF","7","6","N.jpg","L.jpg","0","0","1","",""
"","feedback","","html-keyboard-response","380","363266","0.0-1.0-528.0-0.0","0","0","46653","","null","","","null","58","","","","","","","","","","","","","","","",""
"","ITI","","html-keyboard-response","381","364270","0.0-1.0-531.0","0","0","46653","","null","","","null","58","","","","","","","","","","","","","","","NaN",""
"","S1","","html-keyboard-response","382","364523","0.0-1.0-533.0","0","0","46653","","null","","","null","59","","","","","","","","","","","","","","","",""
"","ISI","","html-keyboard-response","383","365528","0.0-1.0-534.0","0","0","46653","","null","","","null","59","NaN","","","","","","","","","","","","","","",""
"","S2","","html-keyboard-response","384","365781","0.0-1.0-535.0","0","0","46653","","null","","","null","59","","NaN","","","","","","","","","","","","","",""
"","response","","html-keyboard-response","385","366351","0.0-1.0-536.0-0.0","0","0","46653","","567","","","75","59","","","2","59","training","adjacent","ED","5","4","Q.jpg","O.jpg","1","0","0","",""
"","feedback","","html-keyboard-response","386","367355","0.0-1.0-537.0-0.0","0","0","46653","","null","","","null","59","","","","","","","","","","","","","","","",""
"","time_out","","html-keyboard-response","387","369359","0.0-1.0-539.0-0.0","0","0","46653","","null","","","null","59","","","","","","","","","","","","","","","",""
"","ITI","","html-keyboard-response","388","370362","0.0-1.0-540.0","0","0","46653","","null","","","null","59","","","","","","","","","","","","","","","NaN",""
"","S1","","html-keyboard-response","389","370615","0.0-1.0-542.0","0","0","46653","","null","","","null","60","","","","","","","","","","","","","","","",""
"","ISI","","html-keyboard-response","390","371619","0.0-1.0-543.0","0","0","46653","","null","","","null","60","NaN","","","","","","","","","","","","","","",""
"","S2","","html-keyboard-response","391","371873","0.0-1.0-544.0","0","0","46653","","null","","","null","60","","NaN","","","","","","","","","","","","","",""
"","response","","html-keyboard-response","392","372223","0.0-1.0-545.0-0.0","0","0","46653","","346","","","68","60","","","2","60","training","adjacent","DC","4","3","O.jpg","P.jpg","0","0","1","",""
"","feedback","","html-keyboard-response","393","373226","0.0-1.0-546.0-0.0","0","0","46653","","null","","","null","60","","","","","","","","","","","","","","","",""
"","ITI","","html-keyboard-response","394","374230","0.0-1.0-549.0","0","0","46653","","null","","","null","60","","","","","","","","","","","","","","","NaN",""
"","S1","","html-keyboard-response","395","374490","0.0-1.0-551.0","0","0","46653","","null","","","null","61","","","","","","","","","","","","","","","",""
"","ISI","","html-keyboard-response","396","375494","0.0-1.0-552.0","0","0","46653","","null","","","null","61","NaN","","","","","","","","","","","","","","",""
"","S2","","html-keyboard-response","397","375749","0.0-1.0-553.0","0","0","46653","","null","","","null","61","","NaN","","","","","","","","","","","","","",""
"","response","","html-keyboard-response","398","376303","0.0-1.0-554.0-0.0","0","0","46653","","551","","","68","61","","","2","61","training","adjacent","DE","4","5","O.jpg","Q.jpg","0","1","0","",""
"","feedback","","html-keyboard-response","399","377309","0.0-1.0-555.0-0.0","0","0","46653","","null","","","null","61","","","","","","","","","","","","","","","",""
"","time_out","","html-keyboard-response","400","379313","0.0-1.0-557.0-0.0","0","0","46653","","null","","","null","61","","","","","","","","","","","","","","","",""
"","ITI","","html-keyboard-response","401","380317","0.0-1.0-558.0","0","0","46653","","null","","","null","61","","","","","","","","","","","","","","","NaN",""
"","S1","","html-keyboard-response","402","380570","0.0-1.0-560.0","0","0","46653","","null","","","null","62","","","","","","","","","","","","","","","",""
"","ISI","","html-keyboard-response","403","381574","0.0-1.0-561.0","0","0","46653","","null","","","null","62","NaN","","","","","","","","","","","","","","",""
"","S2","","html-keyboard-response","404","381841","0.0-1.0-562.0","0","0","46653","","null","","","null","62","","NaN","","","","","","","","","","","","","",""
"","response","","html-keyboard-response","405","382077","0.0-1.0-563.0-0.0","0","0","46653","","234","","","75","62","","","2","62","training","adjacent","CB","3","2","P.jpg","M.jpg","1","0","0","",""
"","feedback","","html-keyboard-response","406","383081","0.0-1.0-564.0-0.0","0","0","46653","","null","","","null","62","","","","","","","","","","","","","","","",""
"","time_out","","html-keyboard-response","407","385088","0.0-1.0-566.0-0.0","0","0","46653","","null","","","null","62","","","","","","","","","","","","","","","",""
"","ITI","","html-keyboard-response","408","386092","0.0-1.0-567.0","0","0","46653","","null","","","null","62","","","","","","","","","","","","","","","NaN",""
"","S1","","html-keyboard-response","409","386346","0.0-1.0-569.0","0","0","46653","","null","","","null","63","","","","","","","","","","","","","","","",""
"","ISI","","html-keyboard-response","410","387362","0.0-1.0-570.0","0","0","46653","","null","","","null","63","NaN","","","","","","","","","","","","","","",""
"","S2","","html-keyboard-response","411","387617","0.0-1.0-571.0","0","0","46653","","null","","","null","63","","NaN","","","","","","","","","","","","","",""
"","response","","html-keyboard-response","412","387855","0.0-1.0-572.0-0.0","0","0","46653","","235","","","68","63","","","2","63","training","adjacent","FE","6","5","L.jpg","Q.jpg","0","0","1","",""
"","feedback","","html-keyboard-response","413","388860","0.0-1.0-573.0-0.0","0","0","46653","","null","","","null","63","","","","","","","","","","","","","","","",""
"","ITI","","html-keyboard-response","414","389864","0.0-1.0-576.0","0","0","46653","","null","","","null","63","","","","","","","","","","","","","","","NaN",""
"","S1","","html-keyboard-response","415","390117","0.0-1.0-578.0","0","0","46653","","null","","","null","64","","","","","","","","","","","","","","","",""
"","ISI","","html-keyboard-response","416","391121","0.0-1.0-579.0","0","0","46653","","null","","","null","64","NaN","","","","","","","","","","","","","","",""
"","S2","","html-keyboard-response","417","391376","0.0-1.0-580.0","0","0","46653","","null","","","null","64","","NaN","","","","","","","","","","","","","",""
"","response","","html-keyboard-response","418","391728","0.0-1.0-581.0-0.0","0","0","46653","","348","","","68","64","","","2","64","training","adjacent","DE","4","5","O.jpg","Q.jpg","0","1","0","",""
"","feedback","","html-keyboard-response","419","392732","0.0-1.0-582.0-0.0","0","0","46653","","null","","","null","64","","","","","","","","","","","","","","","",""
"","time_out","","html-keyboard-response","420","394737","0.0-1.0-584.0-0.0","0","0","46653","","null","","","null","64","","","","","","","","","","","","","","","",""
"","ITI","","html-keyboard-response","421","395740","0.0-1.0-585.0","0","0","46653","","null","","","null","64","","","","","","","","","","","","","","","NaN",""
"","S1","","html-keyboard-response","422","395994","0.0-1.0-587.0","0","0","46653","","null","","","null","65","","","","","","","","","","","","","","","",""
"","ISI","","html-keyboard-response","423","396998","0.0-1.0-588.0","0","0","46653","","null","","","null","65","NaN","","","","","","","","","","","","","","",""
"","S2","","html-keyboard-response","424","397252","0.0-1.0-589.0","0","0","46653","","null","","","null","65","","NaN","","","","","","","","","","","","","",""
"","response","","html-keyboard-response","425","397318","0.0-1.0-590.0-0.0","0","0","46653","","64","","","75","65","","","2","65","training","adjacent","AB","1","2","R.jpg","M.jpg","1","1","1","",""
"","feedback","","html-keyboard-response","426","398323","0.0-1.0-591.0-0.0","0","0","46653","","null","","","null","65","","","","","","","","","","","","","","","",""
"","ITI","","html-keyboard-response","427","399328","0.0-1.0-594.0","0","0","46653","","null","","","null","65","","","","","","","","","","","","","","","NaN",""
"","S1","","html-keyboard-response","428","399583","0.0-1.0-596.0","0","0","46653","","null","","","null","66","","","","","","","","","","","","","","","",""
"","ISI","","html-keyboard-response","429","400586","0.0-1.0-597.0","0","0","46653","","null","","","null","66","NaN","","","","","","","","","","","","","","",""
"","S2","","html-keyboard-response","430","400840","0.0-1.0-598.0","0","0","46653","","null","","","null","66","","NaN","","","","","","","","","","","","","",""
"","response","","html-keyboard-response","431","401264","0.0-1.0-599.0-0.0","0","0","46653","","420","","","75","66","","","2","66","training","adjacent","FG","6","7","L.jpg","N.jpg","1","1","1","",""
"","feedback","","html-keyboard-response","432","402269","0.0-1.0-600.0-0.0","0","0","46653","","null","","","null","66","","","","","","","","","","","","","","","",""
"","ITI","","html-keyboard-response","433","403273","0.0-1.0-603.0","0","0","46653","","null","","","null","66","","","","","","","","","","","","","","","NaN",""
"","S1","","html-keyboard-response","434","403529","0.0-1.0-605.0","0","0","46653","","null","","","null","67","","","","","","","","","","","","","","","",""
"","ISI","","html-keyboard-response","435","404532","0.0-1.0-606.0","0","0","46653","","null","","","null","67","NaN","","","","","","","","","","","","","","",""
"","S2","","html-keyboard-response","436","404786","0.0-1.0-607.0","0","0","46653","","null","","","null","67","","NaN","","","","","","","","","","","","","",""
"","response","","html-keyboard-response","437","405231","0.0-1.0-608.0-0.0","0","0","46653","","441","","","68","67","","","2","67","training","adjacent","BC","2","3","M.jpg","P.jpg","0","1","0","",""
"","feedback","","html-keyboard-response","438","406236","0.0-1.0-609.0-0.0","0","0","46653","","null","","","null","67","","","","","","","","","","","","","","","",""
"","time_out","","html-keyboard-response","439","408240","0.0-1.0-611.0-0.0","0","0","46653","","null","","","null","67","","","","","","","","","","","","","","","",""
"","ITI","","html-keyboard-response","440","409243","0.0-1.0-612.0","0","0","46653","","null","","","null","67","","","","","","","","","","","","","","","NaN",""
"","S1","","html-keyboard-response","441","409498","0.0-1.0-614.0","0","0","46653","","null","","","null","68","","","","","","","","","","","","","","","",""
"","ISI","","html-keyboard-response","442","410501","0.0-1.0-615.0","0","0","46653","","null","","","null","68","NaN","","","","","","","","","","","","","","",""
"","S2","","html-keyboard-response","443","410756","0.0-1.0-616.0","0","0","46653","","null","","","null","68","","NaN","","","","","","","","","","","","","",""
"","response","","html-keyboard-response","444","410942","0.0-1.0-617.0-0.0","0","0","46653","","183","","","75","68","","","2","68","training","adjacent","CD","3","4","P.jpg","O.jpg","1","1","1","",""
"","feedback","","html-keyboard-response","445","411946","0.0-1.0-618.0-0.0","0","0","46653","","null","","","null","68","","","","","","","","","","","","","","","",""
"","ITI","","html-keyboard-response","446","412950","0.0-1.0-621.0","0","0","46653","","null","","","null","68","","","","","","","","","","","","","","","NaN",""
"","S1","","html-keyboard-response","447","413204","0.0-1.0-623.0","0","0","46653","","null","","","null","69","","","","","","","","","","","","","","","",""
"","ISI","","html-keyboard-response","448","414208","0.0-1.0-624.0","0","0","46653","","null","","","null","69","NaN","","","","","","","","","","","","","","",""
"","S2","","html-keyboard-response","449","414462","0.0-1.0-625.0","0","0","46653","","null","","","null","69","","NaN","","","","","","","","","","","","","",""
"","response","","html-keyboard-response","450","414726","0.0-1.0-626.0-0.0","0","0","46653","","261","","","75","69","","","2","69","training","adjacent","CB","3","2","P.jpg","M.jpg","1","0","0","",""
"","feedback","","html-keyboard-response","451","415729","0.0-1.0-627.0-0.0","0","0","46653","","null","","","null","69","","","","","","","","","","","","","","","",""
"","time_out","","html-keyboard-response","452","417732","0.0-1.0-629.0-0.0","0","0","46653","","null","","","null","69","","","","","","","","","","","","","","","",""
"","ITI","","html-keyboard-response","453","418736","0.0-1.0-630.0","0","0","46653","","null","","","null","69","","","","","","","","","","","","","","","NaN",""
"","S1","","html-keyboard-response","454","418989","0.0-1.0-632.0","0","0","46653","","null","","","null","70","","","","","","","","","","","","","","","",""
"","ISI","","html-keyboard-response","455","419993","0.0-1.0-633.0","0","0","46653","","null","","","null","70","NaN","","","","","","","","","","","","","","",""
"","S2","","html-keyboard-response","456","420249","0.0-1.0-634.0","0","0","46653","","null","","","null","70","","NaN","","","","","","","","","","","","","",""
"","response","","html-keyboard-response","457","420365","0.0-1.0-635.0-0.0","0","0","46653","","114","","","75","70","","","2","70","training","adjacent","EF","5","6","Q.jpg","L.jpg","1","1","1","",""
"","feedback","","html-keyboard-response","458","421369","0.0-1.0-636.0-0.0","0","0","46653","","null","","","null","70","","","","","","","","","","","","","","","",""
"","ITI","","html-keyboard-response","459","422374","0.0-1.0-639.0","0","0","46653","","null","","","null","70","","","","","","","","","","","","","","","NaN",""
"","S1","","html-keyboard-response","460","422627","0.0-1.0-641.0","0","0","46653","","null","","","null","71","","","","","","","","","","","","","","","",""
"","ISI","","html-keyboard-response","461","423630","0.0-1.0-642.0","0","0","46653","","null","","","null","71","NaN","","","","","","","","","","","","","","",""
"","S2","","html-keyboard-response","462","423884","0.0-1.0-643.0","0","0","46653","","null","","","null","71","","NaN","","","","","","","","","","","","","",""
"","response","","html-keyboard-response","463","424072","0.0-1.0-644.0-0.0","0","0","46653","","184","","","68","71","","","2","71","training","adjacent","GF","7","6","N.jpg","L.jpg","0","0","1","",""
"","feedback","","html-keyboard-response","464","425076","0.0-1.0-645.0-0.0","0","0","46653","","null","","","null","71","","","","","","","","","","","","","","","",""
"","ITI","","html-keyboard-response","465","426081","0.0-1.0-648.0","0","0","46653","","null","","","null","71","","","","","","","","","","","","","","","NaN",""
"","S1","","html-keyboard-response","466","426334","0.0-1.0-650.0","0","0","46653","","null","","","null","72","","","","","","","","","","","","","","","",""
"","ISI","","html-keyboard-response","467","427338","0.0-1.0-651.0","0","0","46653","","null","","","null","72","NaN","","","","","","","","","","","","","","",""
"","S2","","html-keyboard-response","468","427593","0.0-1.0-652.0","0","0","46653","","null","","","null","72","","NaN","","","","","","","","","","","","","",""
"","response","","html-keyboard-response","469","427886","0.0-1.0-653.0-0.0","0","0","46653","","290","","","75","72","","","2","72","training","adjacent","FG","6","7","L.jpg","N.jpg","1","1","1","",""
"","feedback","","html-keyboard-response","470","428890","0.0-1.0-654.0-0.0","0","0","46653","","null","","","null","72","","","","","","","","","","","","","","","",""
"","ITI","","html-keyboard-response","471","429894","0.0-1.0-657.0","0","0","46653","","null","","","null","72","","","","","","","","","","","","","","","NaN",""
"","S1","","html-keyboard-response","472","430147","0.0-1.0-659.0","0","0","46653","","null","","","null","73","","","","","","","","","","","","","","","",""
"","ISI","","html-keyboard-response","473","431151","0.0-1.0-660.0","0","0","46653","","null","","","null","73","NaN","","","","","","","","","","","","","","",""
"","S2","","html-keyboard-response","474","431406","0.0-1.0-661.0","0","0","46653","","null","","","null","73","","NaN","","","","","","","","","","","","","",""
"","response","","html-keyboard-response","475","431440","0.0-1.0-662.0-0.0","0","0","46653","","30","","","68","73","","","2","73","training","adjacent","GF","7","6","N.jpg","L.jpg","0","0","1","",""
"","feedback","","html-keyboard-response","476","432444","0.0-1.0-663.0-0.0","0","0","46653","","null","","","null","73","","","","","","","","","","","","","","","",""
"","ITI","","html-keyboard-response","477","433448","0.0-1.0-666.0","0","0","46653","","null","","","null","73","","","","","","","","","","","","","","","NaN",""
"","S1","","html-keyboard-response","478","433702","0.0-1.0-668.0","0","0","46653","","null","","","null","74","","","","","","","","","","","","","","","",""
"","ISI","","html-keyboard-response","479","434705","0.0-1.0-669.0","0","0","46653","","null","","","null","74","NaN","","","","","","","","","","","","","","",""
"","S2","","html-keyboard-response","480","434959","0.0-1.0-670.0","0","0","46653","","null","","","null","74","","NaN","","","","","","","","","","","","","",""
"","response","","html-keyboard-response","481","435368","0.0-1.0-671.0-0.0","0","0","46653","","406","","","68","74","","","2","74","training","adjacent","BC","2","3","M.jpg","P.jpg","0","1","0","",""
"","feedback","","html-keyboard-response","482","436372","0.0-1.0-672.0-0.0","0","0","46653","","null","","","null","74","","","","","","","","","","","","","","","",""
"","time_out","","html-keyboard-response","483","438376","0.0-1.0-674.0-0.0","0","0","46653","","null","","","null","74","","","","","","","","","","","","","","","",""
"","ITI","","html-keyboard-response","484","439380","0.0-1.0-675.0","0","0","46653","","null","","","null","74","","","","","","","","","","","","","","","NaN",""
"","S1","","html-keyboard-response","485","439633","0.0-1.0-677.0","0","0","46653","","null","","","null","75","","","","","","","","","","","","","","","",""
"","ISI","","html-keyboard-response","486","440638","0.0-1.0-678.0","0","0","46653","","null","","","null","75","NaN","","","","","","","","","","","","","","",""
"","S2","","html-keyboard-response","487","440892","0.0-1.0-679.0","0","0","46653","","null","","","null","75","","NaN","","","","","","","","","","","","","",""
"","response","","html-keyboard-response","488","441424","0.0-1.0-680.0-0.0","0","0","46653","","528","","","68","75","","","2","75","training","adjacent","BA","2","1","M.jpg","R.jpg","0","0","1","",""
"","feedback","","html-keyboard-response","489","442429","0.0-1.0-681.0-0.0","0","0","46653","","null","","","null","75","","","","","","","","","","","","","","","",""
"","ITI","","html-keyboard-response","490","443433","0.0-1.0-684.0","0","0","46653","","null","","","null","75","","","","","","","","","","","","","","","NaN",""
"","S1","","html-keyboard-response","491","443690","0.0-1.0-686.0","0","0","46653","","null","","","null","76","","","","","","","","","","","","","","","",""
"","ISI","","html-keyboard-response","492","444694","0.0-1.0-687.0","0","0","46653","","null","","","null","76","NaN","","","","","","","","","","","","","","",""
"","S2","","html-keyboard-response","493","444952","0.0-1.0-688.0","0","0","46653","","null","","","null","76","","NaN","","","","","","","","","","","","","",""
"","response","","html-keyboard-response","494","445429","0.0-1.0-689.0-0.0","0","0","46653","","475","","","68","76","","","2","76","training","adjacent","FE","6","5","L.jpg","Q.jpg","0","0","1","",""
"","feedback","","html-keyboard-response","495","446431","0.0-1.0-690.0-0.0","0","0","46653","","null","","","null","76","","","","","","","","","","","","","","","",""
"","ITI","","html-keyboard-response","496","447436","0.0-1.0-693.0","0","0","46653","","null","","","null","76","","","","","","","","","","","","","","","NaN",""
"","S1","","html-keyboard-response","497","447690","0.0-1.0-695.0","0","0","46653","","null","","","null","77","","","","","","","","","","","","","","","",""
"","ISI","","html-keyboard-response","498","448694","0.0-1.0-696.0","0","0","46653","","null","","","null","77","NaN","","","","","","","","","","","","","","",""
"","S2","","html-keyboard-response","499","448949","0.0-1.0-697.0","0","0","46653","","null","","","null","77","","NaN","","","","","","","","","","","","","",""
"","response","","html-keyboard-response","500","449381","0.0-1.0-698.0-0.0","0","0","46653","","430","","","75","77","","","2","77","training","adjacent","ED","5","4","Q.jpg","O.jpg","1","0","0","",""
"","feedback","","html-keyboard-response","501","450384","0.0-1.0-699.0-0.0","0","0","46653","","null","","","null","77","","","","","","","","","","","","","","","",""
"","time_out","","html-keyboard-response","502","452386","0.0-1.0-701.0-0.0","0","0","46653","","null","","","null","77","","","","","","","","","","","","","","","",""
"","ITI","","html-keyboard-response","503","453391","0.0-1.0-702.0","0","0","46653","","null","","","null","77","","","","","","","","","","","","","","","NaN",""
"","S1","","html-keyboard-response","504","453644","0.0-1.0-704.0","0","0","46653","","null","","","null","78","","","","","","","","","","","","","","","",""
"","ISI","","html-keyboard-response","505","454649","0.0-1.0-705.0","0","0","46653","","null","","","null","78","NaN","","","","","","","","","","","","","","",""
"","S2","","html-keyboard-response","506","454902","0.0-1.0-706.0","0","0","46653","","null","","","null","78","","NaN","","","","","","","","","","","","","",""
"","response","","html-keyboard-response","507","455640","0.0-1.0-707.0-0.0","0","0","46653","","734","","","75","78","","","2","78","training","adjacent","CD","3","4","P.jpg","O.jpg","1","1","1","",""
"","feedback","","html-keyboard-response","508","456644","0.0-1.0-708.0-0.0","0","0","46653","","null","","","null","78","","","","","","","","","","","","","","","",""
"","ITI","","html-keyboard-response","509","457649","0.0-1.0-711.0","0","0","46653","","null","","","null","78","","","","","","","","","","","","","","","NaN",""
"","S1","","html-keyboard-response","510","457903","0.0-1.0-713.0","0","0","46653","","null","","","null","79","","","","","","","","","","","","","","","",""
"","ISI","","html-keyboard-response","511","458906","0.0-1.0-714.0","0","0","46653","","null","","","null","79","NaN","","","","","","","","","","","","","","",""
"","S2","","html-keyboard-response","512","459161","0.0-1.0-715.0","0","0","46653","","null","","","null","79","","NaN","","","","","","","","","","","","","",""
"","response","","html-keyboard-response","513","459511","0.0-1.0-716.0-0.0","0","0","46653","","347","","","75","79","","","2","79","training","adjacent","CB","3","2","P.jpg","M.jpg","1","0","0","",""
"","feedback","","html-keyboard-response","514","460518","0.0-1.0-717.0-0.0","0","0","46653","","null","","","null","79","","","","","","","","","","","","","","","",""
"","time_out","","html-keyboard-response","515","462523","0.0-1.0-719.0-0.0","0","0","46653","","null","","","null","79","","","","","","","","","","","","","","","",""
"","ITI","","html-keyboard-response","516","463527","0.0-1.0-720.0","0","0","46653","","null","","","null","79","","","","","","","","","","","","","","","NaN",""
"","S1","","html-keyboard-response","517","463780","0.0-1.0-722.0","0","0","46653","","null","","","null","80","","","","","","","","","","","","","","","",""
"","ISI","","html-keyboard-response","518","464783","0.0-1.0-723.0","0","0","46653","","null","","","null","80","NaN","","","","","","","","","","","","","","",""
"","S2","","html-keyboard-response","519","465038","0.0-1.0-724.0","0","0","46653","","null","","","null","80","","NaN","","","","","","","","","","","","","",""
"","response","","html-keyboard-response","520","465183","0.0-1.0-725.0-0.0","0","0","46653","","141","","","75","80","","","2","80","training","adjacent","AB","1","2","R.jpg","M.jpg","1","1","1","",""
"","feedback","","html-keyboard-response","521","466188","0.0-1.0-726.0-0.0","0","0","46653","","null","","","null","80","","","","","","","","","","","","","","","",""
"","ITI","","html-keyboard-response","522","467196","0.0-1.0-729.0","0","0","46653","","null","","","null","80","","","","","","","","","","","","","","","NaN",""
"","S1","","html-keyboard-response","523","467451","0.0-1.0-731.0","0","0","46653","","null","","","null","81","","","","","","","","","","","","","","","",""
"","ISI","","html-keyboard-response","524","468455","0.0-1.0-732.0","0","0","46653","","null","","","null","81","NaN","","","","","","","","","","","","","","",""
"","S2","","html-keyboard-response","525","468709","0.0-1.0-733.0","0","0","46653","","null","","","null","81","","NaN","","","","","","","","","","","","","",""
"","response","","html-keyboard-response","526","468960","0.0-1.0-734.0-0.0","0","0","46653","","247","","","75","81","","","2","81","training","adjacent","AB","1","2","R.jpg","M.jpg","1","1","1","",""
"","feedback","","html-keyboard-response","527","469965","0.0-1.0-735.0-0.0","0","0","46653","","null","","","null","81","","","","","","","","","","","","","","","",""
"","ITI","","html-keyboard-response","528","470969","0.0-1.0-738.0","0","0","46653","","null","","","null","81","","","","","","","","","","","","","","","NaN",""
"","S1","","html-keyboard-response","529","471225","0.0-1.0-740.0","0","0","46653","","null","","","null","82","","","","","","","","","","","","","","","",""
"","ISI","","html-keyboard-response","530","472238","0.0-1.0-741.0","0","0","46653","","null","","","null","82","NaN","","","","","","","","","","","","","","",""
"","S2","","html-keyboard-response","531","472493","0.0-1.0-742.0","0","0","46653","","null","","","null","82","","NaN","","","","","","","","","","","","","",""
"","response","","html-keyboard-response","532","472749","0.0-1.0-743.0-0.0","0","0","46653","","254","","","75","82","","","2","82","training","adjacent","EF","5","6","Q.jpg","L.jpg","1","1","1","",""
"","feedback","","html-keyboard-response","533","473752","0.0-1.0-744.0-0.0","0","0","46653","","null","","","null","82","","","","","","","","","","","","","","","",""
"","ITI","","html-keyboard-response","534","474758","0.0-1.0-747.0","0","0","46653","","null","","","null","82","","","","","","","","","","","","","","","NaN",""
"","S1","","html-keyboard-response","535","475012","0.0-1.0-749.0","0","0","46653","","null","","","null","83","","","","","","","","","","","","","","","",""
"","ISI","","html-keyboard-response","536","476015","0.0-1.0-750.0","0","0","46653","","null","","","null","83","NaN","","","","","","","","","","","","","","",""
"","S2","","html-keyboard-response","537","476269","0.0-1.0-751.0","0","0","46653","","null","","","null","83","","NaN","","","","","","","","","","","","","",""
"","response","","html-keyboard-response","538","476440","0.0-1.0-752.0-0.0","0","0","46653","","167","","","68","83","","","2","83","training","adjacent","GF","7","6","N.jpg","L.jpg","0","0","1","",""
"","feedback","","html-keyboard-response","539","477444","0.0-1.0-753.0-0.0","0","0","46653","","null","","","null","83","","","","","","","","","","","","","","","",""
"","ITI","","html-keyboard-response","540","478449","0.0-1.0-756.0","0","0","46653","","null","","","null","83","","","","","","","","","","","","","","","NaN",""
"","S1","","html-keyboard-response","541","478702","0.0-1.0-758.0","0","0","46653","","null","","","null","84","","","","","","","","","","","","","","","",""
"","ISI","","html-keyboard-response","542","479706","0.0-1.0-759.0","0","0","46653","","null","","","null","84","NaN","","","","","","","","","","","","","","",""
"","S2","","html-keyboard-response","543","479964","0.0-1.0-760.0","0","0","46653","","null","","","null","84","","NaN","","","","","","","","","","","","","",""
"","response","","html-keyboard-response","544","480256","0.0-1.0-761.0-0.0","0","0","46653","","288","","","68","84","","","2","84","training","adjacent","CB","3","2","P.jpg","M.jpg","0","0","1","",""
"","feedback","","html-keyboard-response","545","481261","0.0-1.0-762.0-0.0","0","0","46653","","null","","","null","84","","","","","","","","","","","","","","","",""
"","ITI","","html-keyboard-response","546","482265","0.0-1.0-765.0","0","0","46653","","null","","","null","84","","","","","","","","","","","","","","","NaN",""
"","S1","","html-keyboard-response","547","482519","0.0-1.0-767.0","0","0","46653","","null","","","null","85","","","","","","","","","","","","","","","",""
"","ISI","","html-keyboard-response","548","483523","0.0-1.0-768.0","0","0","46653","","null","","","null","85","NaN","","","","","","","","","","","","","","",""
"","S2","","html-keyboard-response","549","483780","0.0-1.0-769.0","0","0","46653","","null","","","null","85","","NaN","","","","","","","","","","","","","",""
"","response","","html-keyboard-response","550","484088","0.0-1.0-770.0-0.0","0","0","46653","","304","","","68","85","","","2","85","training","adjacent","DE","4","5","O.jpg","Q.jpg","0","1","0","",""
"","feedback","","html-keyboard-response","551","485092","0.0-1.0-771.0-0.0","0","0","46653","","null","","","null","85","","","","","","","","","","","","","","","",""
"","time_out","","html-keyboard-response","552","487098","0.0-1.0-773.0-0.0","0","0","46653","","null","","","null","85","","","","","","","","","","","","","","","",""
"","ITI","","html-keyboard-response","553","488101","0.0-1.0-774.0","0","0","46653","","null","","","null","85","","","","","","","","","","","","","","","NaN",""
"","S1","","html-keyboard-response","554","488355","0.0-1.0-776.0","0","0","46653","","null","","","null","86","","","","","","","","","","","","","","","",""
"","ISI","","html-keyboard-response","555","489360","0.0-1.0-777.0","0","0","46653","","null","","","null","86","NaN","","","","","","","","","","","","","","",""
"","S2","","html-keyboard-response","556","489614","0.0-1.0-778.0","0","0","46653","","null","","","null","86","","NaN","","","","","","","","","","","","","",""
"","response","","html-keyboard-response","557","489984","0.0-1.0-779.0-0.0","0","0","46653","","366","","","75","86","","","2","86","training","adjacent","CD","3","4","P.jpg","O.jpg","1","1","1","",""
"","feedback","","html-keyboard-response","558","490988","0.0-1.0-780.0-0.0","0","0","46653","","null","","","null","86","","","","","","","","","","","","","","","",""
"","ITI","","html-keyboard-response","559","491999","0.0-1.0-783.0","0","0","46653","","null","","","null","86","","","","","","","","","","","","","","","NaN",""
"","S1","","html-keyboard-response","560","492253","0.0-1.0-785.0","0","0","46653","","null","","","null","87","","","","","","","","","","","","","","","",""
"","ISI","","html-keyboard-response","561","493256","0.0-1.0-786.0","0","0","46653","","null","","","null","87","NaN","","","","","","","","","","","","","","",""
"","S2","","html-keyboard-response","562","493521","0.0-1.0-787.0","0","0","46653","","null","","","null","87","","NaN","","","","","","","","","","","","","",""
"","response","","html-keyboard-response","563","493744","0.0-1.0-788.0-0.0","0","0","46653","","219","","","75","87","","","2","87","training","adjacent","ED","5","4","Q.jpg","O.jpg","1","0","0","",""
"","feedback","","html-keyboard-response","564","494749","0.0-1.0-789.0-0.0","0","0","46653","","null","","","null","87","","","","","","","","","","","","","","","",""
"","time_out","","html-keyboard-response","565","496754","0.0-1.0-791.0-0.0","0","0","46653","","null","","","null","87","","","","","","","","","","","","","","","",""
"","ITI","","html-keyboard-response","566","497759","0.0-1.0-792.0","0","0","46653","","null","","","null","87","","","","","","","","","","","","","","","NaN",""
"","S1","","html-keyboard-response","567","498015","0.0-1.0-794.0","0","0","46653","","null","","","null","88","","","","","","","","","","","","","","","",""
"","ISI","","html-keyboard-response","568","499018","0.0-1.0-795.0","0","0","46653","","null","","","null","88","NaN","","","","","","","","","","","","","","",""
"","S2","","html-keyboard-response","569","499272","0.0-1.0-796.0","0","0","46653","","null","","","null","88","","NaN","","","","","","","","","","","","","",""
"","response","","html-keyboard-response","570","499576","0.0-1.0-797.0-0.0","0","0","46653","","299","","","75","88","","","2","88","training","adjacent","FG","6","7","L.jpg","N.jpg","1","1","1","",""
"","feedback","","html-keyboard-response","571","500581","0.0-1.0-798.0-0.0","0","0","46653","","null","","","null","88","","","","","","","","","","","","","","","",""
"","ITI","","html-keyboard-response","572","501585","0.0-1.0-801.0","0","0","46653","","null","","","null","88","","","","","","","","","","","","","","","NaN",""
"","S1","","html-keyboard-response","573","501839","0.0-1.0-803.0","0","0","46653","","null","","","null","89","","","","","","","","","","","","","","","",""
"","ISI","","html-keyboard-response","574","502843","0.0-1.0-804.0","0","0","46653","","null","","","null","89","NaN","","","","","","","","","","","","","","",""
"","S2","","html-keyboard-response","575","503098","0.0-1.0-805.0","0","0","46653","","null","","","null","89","","NaN","","","","","","","","","","","","","",""
"","response","","html-keyboard-response","576","503455","0.0-1.0-806.0-0.0","0","0","46653","","354","","","68","89","","","2","89","training","adjacent","DC","4","3","O.jpg","P.jpg","0","0","1","",""
"","feedback","","html-keyboard-response","577","504461","0.0-1.0-807.0-0.0","0","0","46653","","null","","","null","89","","","","","","","","","","","","","","","",""
"","ITI","","html-keyboard-response","578","505466","0.0-1.0-810.0","0","0","46653","","null","","","null","89","","","","","","","","","","","","","","","NaN",""
"","S1","","html-keyboard-response","579","505721","0.0-1.0-812.0","0","0","46653","","null","","","null","90","","","","","","","","","","","","","","","",""
"","ISI","","html-keyboard-response","580","506723","0.0-1.0-813.0","0","0","46653","","null","","","null","90","NaN","","","","","","","","","","","","","","",""
"","S2","","html-keyboard-response","581","506985","0.0-1.0-814.0","0","0","46653","","null","","","null","90","","NaN","","","","","","","","","","","","","",""
"","response","","html-keyboard-response","582","507398","0.0-1.0-815.0-0.0","0","0","46653","","410","","","68","90","","","2","90","training","adjacent","BC","2","3","M.jpg","P.jpg","0","1","0","",""
