"success","ttype","start_time","trial_type","trial_index","time_elapsed","internal_node_id","warning","missed_checkup","PID","view_history","rt","responses","repeat_instructions","key_press","index","keypress_isi","keypress_S2","block","trial_num","phase","group_type","pair_type","S1_stim","S2_stim","S1_img","S2_img","S1_chosen","S1_higher","accuracy","keypress_iti","total_bonus_tally"
"true","full_screen","d03042023hr1534","fullscreen","0","5264","0.0-0.0","0","0","88540","","","","","","","","","","","","","","","","","","","","","",""
"","instructions","","instructions","1","50016","0.0-1.0-0.0-0.0","0","0","88540","[{""page_index"":0,""viewing_time"":4467},{""page_index"":1,""viewing_time"":20436},{""page_index"":2,""viewing_time"":8132},{""page_index"":3,""viewing_time"":11710}]","44746","","","","","","","","","","","","","","","","","","","",""
"","comprehension_check","","survey-multi-choice","2","72372","0.0-1.0-0.0-1.0","0","0","88540","","22345","{""Q0"":""True"",""Q1"":""D"",""Q2"":""Once the second image appears and while the screen 'MAKE A CHOICE' is shown"",""Q3"":""Green mark"",""Q4"":""either D or K""}","0","","","","","","","","","","","","","","","","","",""
"","start_exp","","html-keyboard-response","3","74629","0.0-1.0-1.0","0","0","88540","","2251","","","32","","","","","","","","","","","","","","","","",""
"","S1","","html-keyboard-response","4","74885","0.0-1.0-2.0","0","0","88540","","null","","","null","0","","","","","","","","","","","","","","","",""
"","ISI","","html-keyboard-response","5","75387","0.0-1.0-3.0","0","0","88540","","null","","","null","0","NaN","","","","","","","","","","","","","","",""
"","S2","","html-keyboard-response","6","75642","0.0-1.0-4.0","0","0","88540","","null","","","null","0","","NaN","","","","","","","","","","","","","",""
"","response","","html-keyboard-response","7","76158","0.0-1.0-5.0-0.0","0","0","88540","","511","","","68","0","","","1","0","training","adjacent","AB","1","2","N.jpg","P.jpg","1","1","1","",""
"","feedback","","html-keyboard-response","8","77177","0.0-1.0-6.0-0.0","0","0","88540","","null","","","null","0","","","","","","","","","","","","","","","",""
"","ITI","","html-keyboard-response","9","78181","0.0-1.0-9.0","0","0","88540","","null","","","null","0","","","","","","","","","","","","","","","NaN",""
"","S1","","html-keyboard-response","10","78436","0.0-1.0-11.0","0","0","88540","","null","","","null","1","","","","","","","","","","","","","","","",""
"","ISI","","html-keyboard-response","11","78939","0.0-1.0-12.0","0","0","88540","","null","","","null","1","NaN","","","","","","","","","","","","","","",""
"","S2","","html-keyboard-response","12","79193","0.0-1.0-13.0","0","0","88540","","null","","","null","1","","NaN","","","","","","","","","","","","","",""
"","response","","html-keyboard-response","13","79647","0.0-1.0-14.0-0.0","0","0","88540","","450","","","68","1","","","1","1","training","adjacent","BA","2","1","P.jpg","N.jpg","1","0","0","",""
"","feedback","","html-keyboard-response","14","80651","0.0-1.0-15.0-0.0","0","0","88540","","null","","","null","1","","","","","","","","","","","","","","","",""
"","time_out","","html-keyboard-response","15","82655","0.0-1.0-17.0-0.0","0","0","88540","","null","","","null","1","","","","","","","","","","","","","","","",""
"","ITI","","html-keyboard-response","16","83659","0.0-1.0-18.0","0","0","88540","","null","","","null","1","","","","","","","","","","","","","","","NaN",""
"","S1","","html-keyboard-response","17","83913","0.0-1.0-20.0","0","0","88540","","null","","","null","2","","","","","","","","","","","","","","","",""
"","ISI","","html-keyboard-response","18","84416","0.0-1.0-21.0","0","0","88540","","null","","","null","2","NaN","","","","","","","","","","","","","","",""
"","S2","","html-keyboard-response","19","84669","0.0-1.0-22.0","0","0","88540","","null","","","null","2","","NaN","","","","","","","","","","","","","",""
"","response","","html-keyboard-response","20","85211","0.0-1.0-23.0-0.0","0","0","88540","","540","","","68","2","","","1","2","training","adjacent","AB","1","2","N.jpg","P.jpg","1","1","1","",""
"","feedback","","html-keyboard-response","21","86215","0.0-1.0-24.0-0.0","0","0","88540","","null","","","null","2","","","","","","","","","","","","","","","",""
"","ITI","","html-keyboard-response","22","87220","0.0-1.0-27.0","0","0","88540","","null","","","null","2","","","","","","","","","","","","","","","NaN",""
"","S1","","html-keyboard-response","23","87473","0.0-1.0-29.0","0","0","88540","","null","","","null","3","","","","","","","","","","","","","","","",""
"","ISI","","html-keyboard-response","24","87977","0.0-1.0-30.0","0","0","88540","","null","","","null","3","NaN","","","","","","","","","","","","","","",""
"","S2","","html-keyboard-response","25","88231","0.0-1.0-31.0","0","0","88540","","null","","","null","3","","NaN","","","","","","","","","","","","","",""
"","response","","html-keyboard-response","26","88794","0.0-1.0-32.0-0.0","0","0","88540","","561","","","75","3","","","1","3","training","adjacent","BC","2","3","P.jpg","M.jpg","0","1","0","",""
"","feedback","","html-keyboard-response","27","89798","0.0-1.0-33.0-0.0","0","0","88540","","null","","","null","3","","","","","","","","","","","","","","","",""
"","time_out","","html-keyboard-response","28","91802","0.0-1.0-35.0-0.0","0","0","88540","","null","","","null","3","","","","","","","","","","","","","","","",""
"","ITI","","html-keyboard-response","29","92805","0.0-1.0-36.0","0","0","88540","","null","","","null","3","","","","","","","","","","","","","","","NaN",""
"","S1","","html-keyboard-response","30","93073","0.0-1.0-38.0","0","0","88540","","null","","","null","4","","","","","","","","","","","","","","","",""
"","ISI","","html-keyboard-response","31","93577","0.0-1.0-39.0","0","0","88540","","null","","","null","4","NaN","","","","","","","","","","","","","","",""
"","S2","","html-keyboard-response","32","93833","0.0-1.0-40.0","0","0","88540","","null","","","null","4","","NaN","","","","","","","","","","","","","",""
"","response","","html-keyboard-response","33","94429","0.0-1.0-41.0-0.0","0","0","88540","","594","","","75","4","","","1","4","training","adjacent","DE","4","5","O.jpg","R.jpg","0","1","0","",""
"","feedback","","html-keyboard-response","34","95434","0.0-1.0-42.0-0.0","0","0","88540","","null","","","null","4","","","","","","","","","","","","","","","",""
"","time_out","","html-keyboard-response","35","97438","0.0-1.0-44.0-0.0","0","0","88540","","null","","","null","4","","","","","","","","","","","","","","","",""
"","ITI","","html-keyboard-response","36","98444","0.0-1.0-45.0","0","0","88540","","null","","","null","4","","","","","","","","","","","","","","","NaN",""
"","S1","","html-keyboard-response","37","98698","0.0-1.0-47.0","0","0","88540","","null","","","null","5","","","","","","","","","","","","","","","",""
"","ISI","","html-keyboard-response","38","99201","0.0-1.0-48.0","0","0","88540","","null","","","null","5","NaN","","","","","","","","","","","","","","",""
"","S2","","html-keyboard-response","39","99454","0.0-1.0-49.0","0","0","88540","","null","","","null","5","","NaN","","","","","","","","","","","","","",""
"","response","","html-keyboard-response","40","99953","0.0-1.0-50.0-0.0","0","0","88540","","496","","","75","5","","","1","5","training","adjacent","FE","6","5","Q.jpg","R.jpg","0","0","1","",""
"","feedback","","html-keyboard-response","41","100957","0.0-1.0-51.0-0.0","0","0","88540","","null","","","null","5","","","","","","","","","","","","","","","",""
"","ITI","","html-keyboard-response","42","101962","0.0-1.0-54.0","0","0","88540","","null","","","null","5","","","","","","","","","","","","","","","NaN",""
"","S1","","html-keyboard-response","43","102217","0.0-1.0-56.0","0","0","88540","","null","","","null","6","","","","","","","","","","","","","","","",""
"","ISI","","html-keyboard-response","44","102763","0.0-1.0-57.0","0","0","88540","","null","","","null","6","NaN","","","","","","","","","","","","","","",""
"","S2","","html-keyboard-response","45","103017","0.0-1.0-58.0","0","0","88540","","null","","","null","6","","NaN","","","","","","","","","","","","","",""
"","response","","html-keyboard-response","46","103527","0.0-1.0-59.0-0.0","0","0","88540","","507","","","68","6","","","1","6","training","adjacent","EF","5","6","R.jpg","Q.jpg","1","1","1","",""
"","feedback","","html-keyboard-response","47","104532","0.0-1.0-60.0-0.0","0","0","88540","","null","","","null","6","","","","","","","","","","","","","","","",""
"","ITI","","html-keyboard-response","48","105536","0.0-1.0-63.0","0","0","88540","","null","","","null","6","","","","","","","","","","","","","","","NaN",""
"","S1","","html-keyboard-response","49","105791","0.0-1.0-65.0","0","0","88540","","null","","","null","7","","","","","","","","","","","","","","","",""
"","ISI","","html-keyboard-response","50","106296","0.0-1.0-66.0","0","0","88540","","null","","","null","7","NaN","","","","","","","","","","","","","","",""
"","S2","","html-keyboard-response","51","106551","0.0-1.0-67.0","0","0","88540","","null","","","null","7","","NaN","","","","","","","","","","","","","",""
"","response","","html-keyboard-response","52","106960","0.0-1.0-68.0-0.0","0","0","88540","","405","","","68","7","","","1","7","training","adjacent","FG","6","7","Q.jpg","L.jpg","1","1","1","",""
"","feedback","","html-keyboard-response","53","107965","0.0-1.0-69.0-0.0","0","0","88540","","null","","","null","7","","","","","","","","","","","","","","","",""
"","ITI","","html-keyboard-response","54","108967","0.0-1.0-72.0","0","0","88540","","null","","","null","7","","","","","","","","","","","","","","","NaN",""
"","S1","","html-keyboard-response","55","109220","0.0-1.0-74.0","0","0","88540","","null","","","null","8","","","","","","","","","","","","","","","",""
"","ISI","","html-keyboard-response","56","109725","0.0-1.0-75.0","0","0","88540","","null","","","null","8","NaN","","","","","","","","","","","","","","",""
"","S2","","html-keyboard-response","57","109979","0.0-1.0-76.0","0","0","88540","","null","","","null","8","","NaN","","","","","","","","","","","","","",""
"","response","","html-keyboard-response","58","110417","0.0-1.0-77.0-0.0","0","0","88540","","435","","","68","8","","","1","8","training","adjacent","CB","3","2","M.jpg","P.jpg","1","0","0","",""
"","feedback","","html-keyboard-response","59","111422","0.0-1.0-78.0-0.0","0","0","88540","","null","","","null","8","","","","","","","","","","","","","","","",""
"","time_out","","html-keyboard-response","60","113426","0.0-1.0-80.0-0.0","0","0","88540","","null","","","null","8","","","","","","","","","","","","","","","",""
"","ITI","","html-keyboard-response","61","114430","0.0-1.0-81.0","0","0","88540","","null","","","null","8","","","","","","","","","","","","","","","NaN",""
"","S1","","html-keyboard-response","62","114683","0.0-1.0-83.0","0","0","88540","","null","","","null","9","","","","","","","","","","","","","","","",""
"","ISI","","html-keyboard-response","63","115185","0.0-1.0-84.0","0","0","88540","","null","","","null","9","NaN","","","","","","","","","","","","","","",""
"","S2","","html-keyboard-response","64","115439","0.0-1.0-85.0","0","0","88540","","null","","","null","9","","NaN","","","","","","","","","","","","","",""
"","response","","html-keyboard-response","65","115966","0.0-1.0-86.0-0.0","0","0","88540","","523","","","68","9","","","1","9","training","adjacent","FE","6","5","Q.jpg","R.jpg","1","0","0","",""
"","feedback","","html-keyboard-response","66","116971","0.0-1.0-87.0-0.0","0","0","88540","","null","","","null","9","","","","","","","","","","","","","","","",""
"","time_out","","html-keyboard-response","67","118975","0.0-1.0-89.0-0.0","0","0","88540","","null","","","null","9","","","","","","","","","","","","","","","",""
"","ITI","","html-keyboard-response","68","119980","0.0-1.0-90.0","0","0","88540","","null","","","null","9","","","","","","","","","","","","","","","NaN",""
"","S1","","html-keyboard-response","69","120235","0.0-1.0-92.0","0","0","88540","","null","","","null","10","","","","","","","","","","","","","","","",""
"","ISI","","html-keyboard-response","70","120738","0.0-1.0-93.0","0","0","88540","","null","","","null","10","NaN","","","","","","","","","","","","","","",""
"","S2","","html-keyboard-response","71","120992","0.0-1.0-94.0","0","0","88540","","null","","","null","10","","NaN","","","","","","","","","","","","","",""
"","response","","html-keyboard-response","72","121509","0.0-1.0-95.0-0.0","0","0","88540","","513","","","75","10","","","1","10","training","adjacent","FE","6","5","Q.jpg","R.jpg","0","0","1","",""
"","feedback","","html-keyboard-response","73","122516","0.0-1.0-96.0-0.0","0","0","88540","","null","","","null","10","","","","","","","","","","","","","","","",""
"","ITI","","html-keyboard-response","74","123520","0.0-1.0-99.0","0","0","88540","","null","","","null","10","","","","","","","","","","","","","","","NaN",""
"","S1","","html-keyboard-response","75","123772","0.0-1.0-101.0","0","0","88540","","null","","","null","11","","","","","","","","","","","","","","","",""
"","ISI","","html-keyboard-response","76","124275","0.0-1.0-102.0","0","0","88540","","null","","","null","11","NaN","","","","","","","","","","","","","","",""
"","S2","","html-keyboard-response","77","124530","0.0-1.0-103.0","0","0","88540","","null","","","null","11","","NaN","","","","","","","","","","","","","",""
"","response","","html-keyboard-response","78","125008","0.0-1.0-104.0-0.0","0","0","88540","","476","","","68","11","","","1","11","training","adjacent","ED","5","4","R.jpg","O.jpg","1","0","0","",""
"","feedback","","html-keyboard-response","79","126013","0.0-1.0-105.0-0.0","0","0","88540","","null","","","null","11","","","","","","","","","","","","","","","",""
"","time_out","","html-keyboard-response","80","128016","0.0-1.0-107.0-0.0","0","0","88540","","null","","","null","11","","","","","","","","","","","","","","","",""
"","ITI","","html-keyboard-response","81","129019","0.0-1.0-108.0","0","0","88540","","null","","","null","11","","","","","","","","","","","","","","","NaN",""
"","S1","","html-keyboard-response","82","129273","0.0-1.0-110.0","0","0","88540","","null","","","null","12","","","","","","","","","","","","","","","",""
"","ISI","","html-keyboard-response","83","129779","0.0-1.0-111.0","0","0","88540","","null","","","null","12","NaN","","","","","","","","","","","","","","",""
"","S2","","html-keyboard-response","84","130033","0.0-1.0-112.0","0","0","88540","","null","","","null","12","","NaN","","","","","","","","","","","","","",""
"","response","","html-keyboard-response","85","130538","0.0-1.0-113.0-0.0","0","0","88540","","502","","","75","12","","","1","12","training","adjacent","FE","6","5","Q.jpg","R.jpg","0","0","1","",""
"","feedback","","html-keyboard-response","86","131542","0.0-1.0-114.0-0.0","0","0","88540","","null","","","null","12","","","","","","","","","","","","","","","",""
"","ITI","","html-keyboard-response","87","132546","0.0-1.0-117.0","0","0","88540","","null","","","null","12","","","","","","","","","","","","","","","NaN",""
"","S1","","html-keyboard-response","88","132800","0.0-1.0-119.0","0","0","88540","","null","","","null","13","","","","","","","","","","","","","","","",""
"","ISI","","html-keyboard-response","89","133302","0.0-1.0-120.0","0","0","88540","","null","","","null","13","NaN","","","","","","","","","","","","","","",""
"","S2","","html-keyboard-response","90","133558","0.0-1.0-121.0","0","0","88540","","null","","","null","13","","NaN","","","","","","","","","","","","","",""
"","response","","html-keyboard-response","91","134080","0.0-1.0-122.0-0.0","0","0","88540","","518","","","75","13","","","1","13","training","adjacent","GF","7","6","L.jpg","Q.jpg","0","0","1","",""
"","feedback","","html-keyboard-response","92","135085","0.0-1.0-123.0-0.0","0","0","88540","","null","","","null","13","","","","","","","","","","","","","","","",""
"","ITI","","html-keyboard-response","93","136090","0.0-1.0-126.0","0","0","88540","","null","","","null","13","","","","","","","","","","","","","","","NaN",""
"","S1","","html-keyboard-response","94","136345","0.0-1.0-128.0","0","0","88540","","null","","","null","14","","","","","","","","","","","","","","","",""
"","ISI","","html-keyboard-response","95","136849","0.0-1.0-129.0","0","0","88540","","null","","","null","14","NaN","","","","","","","","","","","","","","",""
"","S2","","html-keyboard-response","96","137102","0.0-1.0-130.0","0","0","88540","","null","","","null","14","","NaN","","","","","","","","","","","","","",""
"","response","","html-keyboard-response","97","137770","0.0-1.0-131.0-0.0","0","0","88540","","666","","","75","14","","","1","14","training","adjacent","BA","2","1","P.jpg","N.jpg","0","0","1","",""
"","feedback","","html-keyboard-response","98","138778","0.0-1.0-132.0-0.0","0","0","88540","","null","","","null","14","","","","","","","","","","","","","","","",""
"","ITI","","html-keyboard-response","99","139782","0.0-1.0-135.0","0","0","88540","","null","","","null","14","","","","","","","","","","","","","","","NaN",""
"","S1","","html-keyboard-response","100","140037","0.0-1.0-137.0","0","0","88540","","null","","","null","15","","","","","","","","","","","","","","","",""
"","ISI","","html-keyboard-response","101","140542","0.0-1.0-138.0","0","0","88540","","null","","","null","15","NaN","","","","","","","","","","","","","","",""
"","S2","","html-keyboard-response","102","140796","0.0-1.0-139.0","0","0","88540","","null","","","null","15","","NaN","","","","","","","","","","","","","",""
"","response","","html-keyboard-response","103","141458","0.0-1.0-140.0-0.0","0","0","88540","","658","","","75","15","","","1","15","training","adjacent","DC","4","3","O.jpg","M.jpg","0","0","1","",""
"","feedback","","html-keyboard-response","104","142467","0.0-1.0-141.0-0.0","0","0","88540","","null","","","null","15","","","","","","","","","","","","","","","",""
"","ITI","","html-keyboard-response","105","143472","0.0-1.0-144.0","0","0","88540","","null","","","null","15","","","","","","","","","","","","","","","NaN",""
"","S1","","html-keyboard-response","106","143727","0.0-1.0-146.0","0","0","88540","","null","","","null","16","","","","","","","","","","","","","","","",""
"","ISI","","html-keyboard-response","107","144231","0.0-1.0-147.0","0","0","88540","","null","","","null","16","NaN","","","","","","","","","","","","","","",""
"","S2","","html-keyboard-response","108","144486","0.0-1.0-148.0","0","0","88540","","null","","","null","16","","NaN","","","","","","","","","","","","","",""
"","response","","html-keyboard-response","109","144994","0.0-1.0-149.0-0.0","0","0","88540","","503","","","68","16","","","1","16","training","adjacent","CB","3","2","M.jpg","P.jpg","1","0","0","",""
"","feedback","","html-keyboard-response","110","146000","0.0-1.0-150.0-0.0","0","0","88540","","null","","","null","16","","","","","","","","","","","","","","","",""
"","time_out","","html-keyboard-response","111","148004","0.0-1.0-152.0-0.0","0","0","88540","","null","","","null","16","","","","","","","","","","","","","","","",""
"","ITI","","html-keyboard-response","112","149008","0.0-1.0-153.0","0","0","88540","","null","","","null","16","","","","","","","","","","","","","","","NaN",""
"","S1","","html-keyboard-response","113","149262","0.0-1.0-155.0","0","0","88540","","null","","","null","17","","","","","","","","","","","","","","","",""
"","ISI","","html-keyboard-response","114","149767","0.0-1.0-156.0","0","0","88540","","null","","","null","17","NaN","","","","","","","","","","","","","","",""
"","S2","","html-keyboard-response","115","150021","0.0-1.0-157.0","0","0","88540","","null","","","null","17","","NaN","","","","","","","","","","","","","",""
"","response","","html-keyboard-response","116","150641","0.0-1.0-158.0-0.0","0","0","88540","","617","","","68","17","","","1","17","training","adjacent","CD","3","4","M.jpg","O.jpg","1","1","1","",""
"","feedback","","html-keyboard-response","117","151645","0.0-1.0-159.0-0.0","0","0","88540","","null","","","null","17","","","","","","","","","","","","","","","",""
"","ITI","","html-keyboard-response","118","152649","0.0-1.0-162.0","0","0","88540","","null","","","null","17","","","","","","","","","","","","","","","NaN",""
"","S1","","html-keyboard-response","119","152901","0.0-1.0-164.0","0","0","88540","","null","","","null","18","","","","","","","","","","","","","","","",""
"","ISI","","html-keyboard-response","120","153405","0.0-1.0-165.0","0","0","88540","","null","","","null","18","NaN","","","","","","","","","","","","","","",""
"","S2","","html-keyboard-response","121","153659","0.0-1.0-166.0","0","0","88540","","null","","","null","18","","NaN","","","","","","","","","","","","","",""
"","response","","html-keyboard-response","122","154298","0.0-1.0-167.0-0.0","0","0","88540","","634","","","75","18","","","1","18","training","adjacent","DC","4","3","O.jpg","M.jpg","0","0","1","",""
"","feedback","","html-keyboard-response","123","155304","0.0-1.0-168.0-0.0","0","0","88540","","null","","","null","18","","","","","","","","","","","","","","","",""
"","ITI","","html-keyboard-response","124","156314","0.0-1.0-171.0","0","0","88540","","null","","","null","18","","","","","","","","","","","","","","","NaN",""
"","S1","","html-keyboard-response","125","156569","0.0-1.0-173.0","0","0","88540","","null","","","null","19","","","","","","","","","","","","","","","",""
"","ISI","","html-keyboard-response","126","157073","0.0-1.0-174.0","0","0","88540","","null","","","null","19","NaN","","","","","","","","","","","","","","",""
"","S2","","html-keyboard-response","127","157340","0.0-1.0-175.0","0","0","88540","","null","","","null","19","","NaN","","","","","","","","","","","","","",""
"","response","","html-keyboard-response","128","157887","0.0-1.0-176.0-0.0","0","0","88540","","543","","","75","19","","","1","19","training","adjacent","DC","4","3","O.jpg","M.jpg","0","0","1","",""
"","feedback","","html-keyboard-response","129","158891","0.0-1.0-177.0-0.0","0","0","88540","","null","","","null","19","","","","","","","","","","","","","","","",""
"","ITI","","html-keyboard-response","130","159894","0.0-1.0-180.0","0","0","88540","","null","","","null","19","","","","","","","","","","","","","","","NaN",""
"","S1","","html-keyboard-response","131","160148","0.0-1.0-182.0","0","0","88540","","null","","","null","20","","","","","","","","","","","","","","","",""
"","ISI","","html-keyboard-response","132","160659","0.0-1.0-183.0","0","0","88540","","null","","","null","20","NaN","","","","","","","","","","","","","","",""
"","S2","","html-keyboard-response","133","160911","0.0-1.0-184.0","0","0","88540","","null","","","null","20","","NaN","","","","","","","","","","","","","",""
"","response","","html-keyboard-response","134","161356","0.0-1.0-185.0-0.0","0","0","88540","","444","","","68","20","","","1","20","training","adjacent","ED","5","4","R.jpg","O.jpg","1","0","0","",""
"","feedback","","html-keyboard-response","135","162360","0.0-1.0-186.0-0.0","0","0","88540","","null","","","null","20","","","","","","","","","","","","","","","",""
"","time_out","","html-keyboard-response","136","164364","0.0-1.0-188.0-0.0","0","0","88540","","null","","","null","20","","","","","","","","","","","","","","","",""
"","ITI","","html-keyboard-response","137","165369","0.0-1.0-189.0","0","0","88540","","null","","","null","20","","","","","","","","","","","","","","","NaN",""
"","S1","","html-keyboard-response","138","165623","0.0-1.0-191.0","0","0","88540","","null","","","null","21","","","","","","","","","","","","","","","",""
"","ISI","","html-keyboard-response","139","166127","0.0-1.0-192.0","0","0","88540","","null","","","null","21","NaN","","","","","","","","","","","","","","",""
"","S2","","html-keyboard-response","140","166382","0.0-1.0-193.0","0","0","88540","","null","","","null","21","","NaN","","","","","","","","","","","","","",""
"","response","","html-keyboard-response","141","166782","0.0-1.0-194.0-0.0","0","0","88540","","398","","","75","21","","","1","21","training","adjacent","BC","2","3","P.jpg","M.jpg","0","1","0","",""
"","feedback","","html-keyboard-response","142","167786","0.0-1.0-195.0-0.0","0","0","88540","","null","","","null","21","","","","","","","","","","","","","","","",""
"","time_out","","html-keyboard-response","143","169789","0.0-1.0-197.0-0.0","0","0","88540","","null","","","null","21","","","","","","","","","","","","","","","",""
"","ITI","","html-keyboard-response","144","170793","0.0-1.0-198.0","0","0","88540","","null","","","null","21","","","","","","","","","","","","","","","NaN",""
"","S1","","html-keyboard-response","145","171045","0.0-1.0-200.0","0","0","88540","","null","","","null","22","","","","","","","","","","","","","","","",""
"","ISI","","html-keyboard-response","146","171549","0.0-1.0-201.0","0","0","88540","","null","","","null","22","NaN","","","","","","","","","","","","","","",""
"","S2","","html-keyboard-response","147","171804","0.0-1.0-202.0","0","0","88540","","null","","","null","22","","NaN","","","","","","","","","","","","","",""
"","response","","html-keyboard-response","148","172234","0.0-1.0-203.0-0.0","0","0","88540","","427","","","75","22","","","1","22","training","adjacent","DE","4","5","O.jpg","R.jpg","0","1","0","",""
"","feedback","","html-keyboard-response","149","173239","0.0-1.0-204.0-0.0","0","0","88540","","null","","","null","22","","","","","","","","","","","","","","","",""
"","time_out","","html-keyboard-response","150","175243","0.0-1.0-206.0-0.0","0","0","88540","","null","","","null","22","","","","","","","","","","","","","","","",""
"","ITI","","html-keyboard-response","151","176247","0.0-1.0-207.0","0","0","88540","","null","","","null","22","","","","","","","","","","","","","","","NaN",""
"","S1","","html-keyboard-response","152","176502","0.0-1.0-209.0","0","0","88540","","null","","","null","23","","","","","","","","","","","","","","","",""
"","ISI","","html-keyboard-response","153","177004","0.0-1.0-210.0","0","0","88540","","null","","","null","23","NaN","","","","","","","","","","","","","","",""
"","S2","","html-keyboard-response","154","177258","0.0-1.0-211.0","0","0","88540","","null","","","null","23","","NaN","","","","","","","","","","","","","",""
"","response","","html-keyboard-response","155","177789","0.0-1.0-212.0-0.0","0","0","88540","","527","","","75","23","","","1","23","training","adjacent","BA","2","1","P.jpg","N.jpg","0","0","1","",""
"","feedback","","html-keyboard-response","156","178793","0.0-1.0-213.0-0.0","0","0","88540","","null","","","null","23","","","","","","","","","","","","","","","",""
"","ITI","","html-keyboard-response","157","179797","0.0-1.0-216.0","0","0","88540","","null","","","null","23","","","","","","","","","","","","","","","NaN",""
"","S1","","html-keyboard-response","158","180051","0.0-1.0-218.0","0","0","88540","","null","","","null","24","","","","","","","","","","","","","","","",""
"","ISI","","html-keyboard-response","159","180557","0.0-1.0-219.0","0","0","88540","","null","","","null","24","NaN","","","","","","","","","","","","","","",""
"","S2","","html-keyboard-response","160","180812","0.0-1.0-220.0","0","0","88540","","null","","","null","24","","NaN","","","","","","","","","","","","","",""
"","response","","html-keyboard-response","161","181374","0.0-1.0-221.0-0.0","0","0","88540","","559","","","75","24","","","1","24","training","adjacent","AB","1","2","N.jpg","P.jpg","0","1","0","",""
"","feedback","","html-keyboard-response","162","182388","0.0-1.0-222.0-0.0","0","0","88540","","null","","","null","24","","","","","","","","","","","","","","","",""
"","time_out","","html-keyboard-response","163","184393","0.0-1.0-224.0-0.0","0","0","88540","","null","","","null","24","","","","","","","","","","","","","","","",""
"","ITI","","html-keyboard-response","164","185398","0.0-1.0-225.0","0","0","88540","","null","","","null","24","","","","","","","","","","","","","","","NaN",""
"","S1","","html-keyboard-response","165","185652","0.0-1.0-227.0","0","0","88540","","null","","","null","25","","","","","","","","","","","","","","","",""
"","ISI","","html-keyboard-response","166","186156","0.0-1.0-228.0","0","0","88540","","null","","","null","25","NaN","","","","","","","","","","","","","","",""
"","S2","","html-keyboard-response","167","186419","0.0-1.0-229.0","0","0","88540","","null","","","null","25","","NaN","","","","","","","","","","","","","",""
"","response","","html-keyboard-response","168","186966","0.0-1.0-230.0-0.0","0","0","88540","","542","","","75","25","","","1","25","training","adjacent","GF","7","6","L.jpg","Q.jpg","0","0","1","",""
"","feedback","","html-keyboard-response","169","187973","0.0-1.0-231.0-0.0","0","0","88540","","null","","","null","25","","","","","","","","","","","","","","","",""
"","ITI","","html-keyboard-response","170","188977","0.0-1.0-234.0","0","0","88540","","null","","","null","25","","","","","","","","","","","","","","","NaN",""
"","S1","","html-keyboard-response","171","189231","0.0-1.0-236.0","0","0","88540","","null","","","null","26","","","","","","","","","","","","","","","",""
"","ISI","","html-keyboard-response","172","189736","0.0-1.0-237.0","0","0","88540","","null","","","null","26","NaN","","","","","","","","","","","","","","",""
"","S2","","html-keyboard-response","173","189991","0.0-1.0-238.0","0","0","88540","","null","","","null","26","","NaN","","","","","","","","","","","","","",""
"","response","","html-keyboard-response","174","190422","0.0-1.0-239.0-0.0","0","0","88540","","427","","","68","26","","","1","26","training","adjacent","CD","3","4","M.jpg","O.jpg","1","1","1","",""
"","feedback","","html-keyboard-response","175","191426","0.0-1.0-240.0-0.0","0","0","88540","","null","","","null","26","","","","","","","","","","","","","","","",""
"","ITI","","html-keyboard-response","176","192429","0.0-1.0-243.0","0","0","88540","","null","","","null","26","","","","","","","","","","","","","","","NaN",""
"","S1","","html-keyboard-response","177","192683","0.0-1.0-245.0","0","0","88540","","null","","","null","27","","","","","","","","","","","","","","","",""
"","ISI","","html-keyboard-response","178","193187","0.0-1.0-246.0","0","0","88540","","null","","","null","27","NaN","","","","","","","","","","","","","","",""
"","S2","","html-keyboard-response","179","193443","0.0-1.0-247.0","0","0","88540","","null","","","null","27","","NaN","","","","","","","","","","","","","",""
"","response","","html-keyboard-response","180","193978","0.0-1.0-248.0-0.0","0","0","88540","","531","","","68","27","","","1","27","training","adjacent","FG","6","7","Q.jpg","L.jpg","1","1","1","",""
"","feedback","","html-keyboard-response","181","194985","0.0-1.0-249.0-0.0","0","0","88540","","null","","","null","27","","","","","","","","","","","","","","","",""
"","ITI","","html-keyboard-response","182","195991","0.0-1.0-252.0","0","0","88540","","null","","","null","27","","","","","","","","","","","","","","","NaN",""
"","S1","","html-keyboard-response","183","196245","0.0-1.0-254.0","0","0","88540","","null","","","null","28","","","","","","","","","","","","","","","",""
"","ISI","","html-keyboard-response","184","196749","0.0-1.0-255.0","0","0","88540","","null","","","null","28","NaN","","","","","","","","","","","","","","",""
"","S2","","html-keyboard-response","185","197003","0.0-1.0-256.0","0","0","88540","","null","","","null","28","","NaN","","","","","","","","","","","","","",""
"","response","","html-keyboard-response","186","197519","0.0-1.0-257.0-0.0","0","0","88540","","510","","","68","28","","","1","28","training","adjacent","AB","1","2","N.jpg","P.jpg","1","1","1","",""
"","feedback","","html-keyboard-response","187","198523","0.0-1.0-258.0-0.0","0","0","88540","","null","","","null","28","","","","","","","","","","","","","","","",""
"","ITI","","html-keyboard-response","188","199526","0.0-1.0-261.0","0","0","88540","","null","","","null","28","","","","","","","","","","","","","","","NaN",""
"","S1","","html-keyboard-response","189","199781","0.0-1.0-263.0","0","0","88540","","null","","","null","29","","","","","","","","","","","","","","","",""
"","ISI","","html-keyboard-response","190","200285","0.0-1.0-264.0","0","0","88540","","null","","","null","29","NaN","","","","","","","","","","","","","","",""
"","S2","","html-keyboard-response","191","200540","0.0-1.0-265.0","0","0","88540","","null","","","null","29","","NaN","","","","","","","","","","","","","",""
"","response","","html-keyboard-response","192","201206","0.0-1.0-266.0-0.0","0","0","88540","","662","","","68","29","","","1","29","training","adjacent","CD","3","4","M.jpg","O.jpg","1","1","1","",""
"","feedback","","html-keyboard-response","193","202210","0.0-1.0-267.0-0.0","0","0","88540","","null","","","null","29","","","","","","","","","","","","","","","",""
"","ITI","","html-keyboard-response","194","203214","0.0-1.0-270.0","0","0","88540","","null","","","null","29","","","","","","","","","","","","","","","NaN",""
"","S1","","html-keyboard-response","195","203468","0.0-1.0-272.0","0","0","88540","","null","","","null","30","","","","","","","","","","","","","","","",""
"","ISI","","html-keyboard-response","196","203971","0.0-1.0-273.0","0","0","88540","","null","","","null","30","NaN","","","","","","","","","","","","","","",""
"","S2","","html-keyboard-response","197","204225","0.0-1.0-274.0","0","0","88540","","null","","","null","30","","NaN","","","","","","","","","","","","","",""
"","response","","html-keyboard-response","198","204749","0.0-1.0-275.0-0.0","0","0","88540","","522","","","75","30","","","1","30","training","adjacent","EF","5","6","R.jpg","Q.jpg","0","1","0","",""
"","feedback","","html-keyboard-response","199","205753","0.0-1.0-276.0-0.0","0","0","88540","","null","","","null","30","","","","","","","","","","","","","","","",""
"","time_out","","html-keyboard-response","200","207759","0.0-1.0-278.0-0.0","0","0","88540","","null","","","null","30","","","","","","","","","","","","","","","",""
"","ITI","","html-keyboard-response","201","208762","0.0-1.0-279.0","0","0","88540","","null","","","null","30","","","","","","","","","","","","","","","NaN",""
"","S1","","html-keyboard-response","202","209016","0.0-1.0-281.0","0","0","88540","","null","","","null","31","","","","","","","","","","","","","","","",""
"","ISI","","html-keyboard-response","203","209522","0.0-1.0-282.0","0","0","88540","","null","","","null","31","NaN","","","","","","","","","","","","","","",""
"","S2","","html-keyboard-response","204","209778","0.0-1.0-283.0","0","0","88540","","null","","","null","31","","NaN","","","","","","","","","","","","","",""
"","response","","html-keyboard-response","205","210478","0.0-1.0-284.0-0.0","0","0","88540","","697","","","68","31","","","1","31","training","adjacent","EF","5","6","R.jpg","Q.jpg","1","1","1","",""
"","feedback","","html-keyboard-response","206","211483","0.0-1.0-285.0-0.0","0","0","88540","","null","","","null","31","","","","","","","","","","","","","","","",""
"","ITI","","html-keyboard-response","207","212488","0.0-1.0-288.0","0","0","88540","","null","","","null","31","","","","","","","","","","","","","","","NaN",""
"","S1","","html-keyboard-response","208","212743","0.0-1.0-290.0","0","0","88540","","null","","","null","32","","","","","","","","","","","","","","","",""
"","ISI","","html-keyboard-response","209","213247","0.0-1.0-291.0","0","0","88540","","null","","","null","32","NaN","","","","","","","","","","","","","","",""
"","S2","","html-keyboard-response","210","213502","0.0-1.0-292.0","0","0","88540","","null","","","null","32","","NaN","","","","","","","","","","","","","",""
"","response","","html-keyboard-response","211","214265","0.0-1.0-293.0-0.0","0","0","88540","","759","","","75","32","","","1","32","training","adjacent","FG","6","7","Q.jpg","L.jpg","0","1","0","",""
"","feedback","","html-keyboard-response","212","215270","0.0-1.0-294.0-0.0","0","0","88540","","null","","","null","32","","","","","","","","","","","","","","","",""
"","time_out","","html-keyboard-response","213","217275","0.0-1.0-296.0-0.0","0","0","88540","","null","","","null","32","","","","","","","","","","","","","","","",""
"","ITI","","html-keyboard-response","214","218278","0.0-1.0-297.0","0","0","88540","","null","","","null","32","","","","","","","","","","","","","","","NaN",""
"","S1","","html-keyboard-response","215","218532","0.0-1.0-299.0","0","0","88540","","null","","","null","33","","","","","","","","","","","","","","","",""
"","ISI","","html-keyboard-response","216","219036","0.0-1.0-300.0","0","0","88540","","null","","","null","33","NaN","","","","","","","","","","","","","","",""
"","S2","","html-keyboard-response","217","219291","0.0-1.0-301.0","0","0","88540","","null","","","null","33","","NaN","","","","","","","","","","","","","",""
"","response","","html-keyboard-response","218","219855","0.0-1.0-302.0-0.0","0","0","88540","","560","","","68","33","","","1","33","training","adjacent","CD","3","4","M.jpg","O.jpg","1","1","1","",""
"","feedback","","html-keyboard-response","219","220859","0.0-1.0-303.0-0.0","0","0","88540","","null","","","null","33","","","","","","","","","","","","","","","",""
"","ITI","","html-keyboard-response","220","221862","0.0-1.0-306.0","0","0","88540","","null","","","null","33","","","","","","","","","","","","","","","NaN",""
"","S1","","html-keyboard-response","221","222118","0.0-1.0-308.0","0","0","88540","","null","","","null","34","","","","","","","","","","","","","","","",""
"","ISI","","html-keyboard-response","222","222624","0.0-1.0-309.0","0","0","88540","","null","","","null","34","NaN","","","","","","","","","","","","","","",""
"","S2","","html-keyboard-response","223","222879","0.0-1.0-310.0","0","0","88540","","null","","","null","34","","NaN","","","","","","","","","","","","","",""
"","response","","html-keyboard-response","224","223384","0.0-1.0-311.0-0.0","0","0","88540","","501","","","75","34","","","1","34","training","adjacent","BC","2","3","P.jpg","M.jpg","0","1","0","",""
"","feedback","","html-keyboard-response","225","224389","0.0-1.0-312.0-0.0","0","0","88540","","null","","","null","34","","","","","","","","","","","","","","","",""
"","time_out","","html-keyboard-response","226","226393","0.0-1.0-314.0-0.0","0","0","88540","","null","","","null","34","","","","","","","","","","","","","","","",""
"","ITI","","html-keyboard-response","227","227398","0.0-1.0-315.0","0","0","88540","","null","","","null","34","","","","","","","","","","","","","","","NaN",""
"","S1","","html-keyboard-response","228","227653","0.0-1.0-317.0","0","0","88540","","null","","","null","35","","","","","","","","","","","","","","","",""
"","ISI","","html-keyboard-response","229","228157","0.0-1.0-318.0","0","0","88540","","null","","","null","35","NaN","","","","","","","","","","","","","","",""
"","S2","","html-keyboard-response","230","228413","0.0-1.0-319.0","0","0","88540","","null","","","null","35","","NaN","","","","","","","","","","","","","",""
"","response","","html-keyboard-response","231","229376","0.0-1.0-320.0-0.0","0","0","88540","","959","","","68","35","","","1","35","training","adjacent","GF","7","6","L.jpg","Q.jpg","1","0","0","",""
"","feedback","","html-keyboard-response","232","230381","0.0-1.0-321.0-0.0","0","0","88540","","null","","","null","35","","","","","","","","","","","","","","","",""
"","time_out","","html-keyboard-response","233","232386","0.0-1.0-323.0-0.0","0","0","88540","","null","","","null","35","","","","","","","","","","","","","","","",""
"","ITI","","html-keyboard-response","234","233390","0.0-1.0-324.0","0","0","88540","","null","","","null","35","","","","","","","","","","","","","","","NaN",""
"","S1","","html-keyboard-response","235","233646","0.0-1.0-326.0","0","0","88540","","null","","","null","36","","","","","","","","","","","","","","","",""
"","ISI","","html-keyboard-response","236","234151","0.0-1.0-327.0","0","0","88540","","null","","","null","36","NaN","","","","","","","","","","","","","","",""
"","S2","","html-keyboard-response","237","234408","0.0-1.0-328.0","0","0","88540","","null","","","null","36","","NaN","","","","","","","","","","","","","",""
"","response","","html-keyboard-response","238","235208","0.0-1.0-329.0-0.0","0","0","88540","","796","","","75","36","","","1","36","training","adjacent","EF","5","6","R.jpg","Q.jpg","0","1","0","",""
"","feedback","","html-keyboard-response","239","236213","0.0-1.0-330.0-0.0","0","0","88540","","null","","","null","36","","","","","","","","","","","","","","","",""
"","time_out","","html-keyboard-response","240","238218","0.0-1.0-332.0-0.0","0","0","88540","","null","","","null","36","","","","","","","","","","","","","","","",""
"","ITI","","html-keyboard-response","241","239222","0.0-1.0-333.0","0","0","88540","","null","","","null","36","","","","","","","","","","","","","","","NaN",""
"","S1","","html-keyboard-response","242","239477","0.0-1.0-335.0","0","0","88540","","null","","","null","37","","","","","","","","","","","","","","","",""
"","ISI","","html-keyboard-response","243","239981","0.0-1.0-336.0","0","0","88540","","null","","","null","37","NaN","","","","","","","","","","","","","","",""
"","S2","","html-keyboard-response","244","240236","0.0-1.0-337.0","0","0","88540","","null","","","null","37","","NaN","","","","","","","","","","","","","",""
"","response","","html-keyboard-response","245","240781","0.0-1.0-338.0-0.0","0","0","88540","","541","","","75","37","","","1","37","training","adjacent","FG","6","7","Q.jpg","L.jpg","0","1","0","",""
"","feedback","","html-keyboard-response","246","241786","0.0-1.0-339.0-0.0","0","0","88540","","null","","","null","37","","","","","","","","","","","","","","","",""
"","time_out","","html-keyboard-response","247","243791","0.0-1.0-341.0-0.0","0","0","88540","","null","","","null","37","","","","","","","","","","","","","","","",""
"","ITI","","html-keyboard-response","248","244808","0.0-1.0-342.0","0","0","88540","","null","","","null","37","","","","","","","","","","","","","","","NaN",""
"","S1","","html-keyboard-response","249","245062","0.0-1.0-344.0","0","0","88540","","null","","","null","38","","","","","","","","","","","","","","","",""
"","ISI","","html-keyboard-response","250","245566","0.0-1.0-345.0","0","0","88540","","null","","","null","38","NaN","","","","","","","","","","","","","","",""
"","S2","","html-keyboard-response","251","245821","0.0-1.0-346.0","0","0","88540","","null","","","null","38","","NaN","","","","","","","","","","","","","",""
"","response","","html-keyboard-response","252","246603","0.0-1.0-347.0-0.0","0","0","88540","","778","","","68","38","","","1","38","training","adjacent","CB","3","2","M.jpg","P.jpg","1","0","0","",""
"","feedback","","html-keyboard-response","253","247609","0.0-1.0-348.0-0.0","0","0","88540","","null","","","null","38","","","","","","","","","","","","","","","",""
"","time_out","","html-keyboard-response","254","249613","0.0-1.0-350.0-0.0","0","0","88540","","null","","","null","38","","","","","","","","","","","","","","","",""
"","ITI","","html-keyboard-response","255","250619","0.0-1.0-351.0","0","0","88540","","null","","","null","38","","","","","","","","","","","","","","","NaN",""
"","S1","","html-keyboard-response","256","250874","0.0-1.0-353.0","0","0","88540","","null","","","null","39","","","","","","","","","","","","","","","",""
"","ISI","","html-keyboard-response","257","251378","0.0-1.0-354.0","0","0","88540","","null","","","null","39","NaN","","","","","","","","","","","","","","",""
"","S2","","html-keyboard-response","258","251633","0.0-1.0-355.0","0","0","88540","","null","","","null","39","","NaN","","","","","","","","","","","","","",""
"","response","","html-keyboard-response","259","252003","0.0-1.0-356.0-0.0","0","0","88540","","366","","","75","39","","","1","39","training","adjacent","BC","2","3","P.jpg","M.jpg","0","1","0","",""
"","feedback","","html-keyboard-response","260","253007","0.0-1.0-357.0-0.0","0","0","88540","","null","","","null","39","","","","","","","","","","","","","","","",""
"","time_out","","html-keyboard-response","261","255012","0.0-1.0-359.0-0.0","0","0","88540","","null","","","null","39","","","","","","","","","","","","","","","",""
"","ITI","","html-keyboard-response","262","256015","0.0-1.0-360.0","0","0","88540","","null","","","null","39","","","","","","","","","","","","","","","NaN",""
"","S1","","html-keyboard-response","263","256269","0.0-1.0-362.0","0","0","88540","","null","","","null","40","","","","","","","","","","","","","","","",""
"","ISI","","html-keyboard-response","264","256774","0.0-1.0-363.0","0","0","88540","","null","","","null","40","NaN","","","","","","","","","","","","","","",""
"","S2","","html-keyboard-response","265","257028","0.0-1.0-364.0","0","0","88540","","null","","","null","40","","NaN","","","","","","","","","","","","","",""
"","response","","html-keyboard-response","266","257175","0.0-1.0-365.0-0.0","0","0","88540","","144","","","75","40","","","1","40","training","adjacent","DC","4","3","O.jpg","M.jpg","0","0","1","",""
"","feedback","","html-keyboard-response","267","258180","0.0-1.0-366.0-0.0","0","0","88540","","null","","","null","40","","","","","","","","","","","","","","","",""
"","ITI","","html-keyboard-response","268","259184","0.0-1.0-369.0","0","0","88540","","null","","","null","40","","","","","","","","","","","","","","","NaN",""
"","S1","","html-keyboard-response","269","259436","0.0-1.0-371.0","0","0","88540","","null","","","null","41","","","","","","","","","","","","","","","",""
"","ISI","","html-keyboard-response","270","259940","0.0-1.0-372.0","0","0","88540","","null","","","null","41","NaN","","","","","","","","","","","","","","",""
"","S2","","html-keyboard-response","271","260195","0.0-1.0-373.0","0","0","88540","","null","","","null","41","","NaN","","","","","","","","","","","","","",""
"","response","","html-keyboard-response","272","261215","0.0-1.0-374.0-0.0","0","0","88540","","1015","","","68","41","","","1","41","training","adjacent","GF","7","6","L.jpg","Q.jpg","1","0","0","",""
"","feedback","","html-keyboard-response","273","262220","0.0-1.0-375.0-0.0","0","0","88540","","null","","","null","41","","","","","","","","","","","","","","","",""
"","time_out","","html-keyboard-response","274","264225","0.0-1.0-377.0-0.0","0","0","88540","","null","","","null","41","","","","","","","","","","","","","","","",""
"","ITI","","html-keyboard-response","275","265229","0.0-1.0-378.0","0","0","88540","","null","","","null","41","","","","","","","","","","","","","","","NaN",""
"","S1","","html-keyboard-response","276","265483","0.0-1.0-380.0","0","0","88540","","null","","","null","42","","","","","","","","","","","","","","","",""
"","ISI","","html-keyboard-response","277","265988","0.0-1.0-381.0","0","0","88540","","null","","","null","42","NaN","","","","","","","","","","","","","","",""
"","S2","","html-keyboard-response","278","266244","0.0-1.0-382.0","0","0","88540","","null","","","null","42","","NaN","","","","","","","","","","","","","",""
"","response","","html-keyboard-response","279","266715","0.0-1.0-383.0-0.0","0","0","88540","","467","","","68","42","","","1","42","training","adjacent","ED","5","4","R.jpg","O.jpg","1","0","0","",""
"","feedback","","html-keyboard-response","280","267719","0.0-1.0-384.0-0.0","0","0","88540","","null","","","null","42","","","","","","","","","","","","","","","",""
"","time_out","","html-keyboard-response","281","269724","0.0-1.0-386.0-0.0","0","0","88540","","null","","","null","42","","","","","","","","","","","","","","","",""
"","ITI","","html-keyboard-response","282","270728","0.0-1.0-387.0","0","0","88540","","null","","","null","42","","","","","","","","","","","","","","","NaN",""
"","S1","","html-keyboard-response","283","270982","0.0-1.0-389.0","0","0","88540","","null","","","null","43","","","","","","","","","","","","","","","",""
"","ISI","","html-keyboard-response","284","271485","0.0-1.0-390.0","0","0","88540","","null","","","null","43","NaN","","","","","","","","","","","","","","",""
"","S2","","html-keyboard-response","285","271744","0.0-1.0-391.0","0","0","88540","","null","","","null","43","","NaN","","","","","","","","","","","","","",""
"","response","","html-keyboard-response","286","272232","0.0-1.0-392.0-0.0","0","0","88540","","484","","","68","43","","","1","43","training","adjacent","CB","3","2","M.jpg","P.jpg","1","0","0","",""
"","feedback","","html-keyboard-response","287","273236","0.0-1.0-393.0-0.0","0","0","88540","","null","","","null","43","","","","","","","","","","","","","","","",""
"","time_out","","html-keyboard-response","288","275239","0.0-1.0-395.0-0.0","0","0","88540","","null","","","null","43","","","","","","","","","","","","","","","",""
"","ITI","","html-keyboard-response","289","276242","0.0-1.0-396.0","0","0","88540","","null","","","null","43","","","","","","","","","","","","","","","NaN",""
"","S1","","html-keyboard-response","290","276497","0.0-1.0-398.0","0","0","88540","","null","","","null","44","","","","","","","","","","","","","","","",""
"","ISI","","html-keyboard-response","291","277001","0.0-1.0-399.0","0","0","88540","","null","","","null","44","NaN","","","","","","","","","","","","","","",""
"","S2","","html-keyboard-response","292","277256","0.0-1.0-400.0","0","0","88540","","null","","","null","44","","NaN","","","","","","","","","","","","","",""
"","response","","html-keyboard-response","293","278065","0.0-1.0-401.0-0.0","0","0","88540","","805","","","75","44","","","1","44","training","adjacent","DE","4","5","O.jpg","R.jpg","0","1","0","",""
"","feedback","","html-keyboard-response","294","279070","0.0-1.0-402.0-0.0","0","0","88540","","null","","","null","44","","","","","","","","","","","","","","","",""
"","time_out","","html-keyboard-response","295","281074","0.0-1.0-404.0-0.0","0","0","88540","","null","","","null","44","","","","","","","","","","","","","","","",""
"","ITI","","html-keyboard-response","296","282077","0.0-1.0-405.0","0","0","88540","","null","","","null","44","","","","","","","","","","","","","","","NaN",""
"","S1","","html-keyboard-response","297","282333","0.0-1.0-407.0","0","0","88540","","null","","","null","45","","","","","","","","","","","","","","","",""
"","ISI","","html-keyboard-response","298","282837","0.0-1.0-408.0","0","0","88540","","null","","","null","45","NaN","","","","","","","","","","","","","","",""
"","S2","","html-keyboard-response","299","283090","0.0-1.0-409.0","0","0","88540","","null","","","null","45","","NaN","","","","","","","","","","","","","",""
"","response","","html-keyboard-response","300","283816","0.0-1.0-410.0-0.0","0","0","88540","","723","","","68","45","","","1","45","training","adjacent","DE","4","5","O.jpg","R.jpg","1","1","1","",""
"","feedback","","html-keyboard-response","301","284820","0.0-1.0-411.0-0.0","0","0","88540","","null","","","null","45","","","","","","","","","","","","","","","",""
"","ITI","","html-keyboard-response","302","285825","0.0-1.0-414.0","0","0","88540","","null","","","null","45","","","","","","","","","","","","","","","NaN",""
"","S1","","html-keyboard-response","303","286080","0.0-1.0-416.0","0","0","88540","","null","","","null","46","","","","","","","","","","","","","","","",""
"","ISI","","html-keyboard-response","304","286584","0.0-1.0-417.0","0","0","88540","","null","","","null","46","NaN","","","","","","","","","","","","","","",""
"","S2","","html-keyboard-response","305","286839","0.0-1.0-418.0","0","0","88540","","null","","","null","46","","NaN","","","","","","","","","","","","","",""
"","response","","html-keyboard-response","306","287398","0.0-1.0-419.0-0.0","0","0","88540","","555","","","75","46","","","1","46","training","adjacent","BA","2","1","P.jpg","N.jpg","0","0","1","",""
"","feedback","","html-keyboard-response","307","288405","0.0-1.0-420.0-0.0","0","0","88540","","null","","","null","46","","","","","","","","","","","","","","","",""
"","ITI","","html-keyboard-response","308","289410","0.0-1.0-423.0","0","0","88540","","null","","","null","46","","","","","","","","","","","","","","","NaN",""
"","S1","","html-keyboard-response","309","289665","0.0-1.0-425.0","0","0","88540","","null","","","null","47","","","","","","","","","","","","","","","",""
"","ISI","","html-keyboard-response","310","290169","0.0-1.0-426.0","0","0","88540","","null","","","null","47","NaN","","","","","","","","","","","","","","",""
"","S2","","html-keyboard-response","311","290426","0.0-1.0-427.0","0","0","88540","","null","","","null","47","","NaN","","","","","","","","","","","","","",""
"","response","","html-keyboard-response","312","291407","0.0-1.0-428.0-0.0","0","0","88540","","976","","","75","47","","","1","47","training","adjacent","ED","5","4","R.jpg","O.jpg","0","0","1","",""
"","feedback","","html-keyboard-response","313","292411","0.0-1.0-429.0-0.0","0","0","88540","","null","","","null","47","","","","","","","","","","","","","","","",""
"","ITI","","html-keyboard-response","314","293416","0.0-1.0-432.0","0","0","88540","","null","","","null","47","","","","","","","","","","","","","","","NaN",""
"","block_over","","html-keyboard-response","315","296539","0.0-1.0-433.0-0.0","0","0","88540","","3118","","","32","47","","","","","","","","","","","","","","","",""
"","S1","","html-keyboard-response","316","296793","0.0-1.0-434.0","0","0","88540","","null","","","null","48","","","","","","","","","","","","","","","",""
"","ISI","","html-keyboard-response","317","297297","0.0-1.0-435.0","0","0","88540","","null","","","null","48","NaN","","","","","","","","","","","","","","",""
"","S2","","html-keyboard-response","318","297552","0.0-1.0-436.0","0","0","88540","","null","","","null","48","","NaN","","","","","","","","","","","","","",""
"","response","","html-keyboard-response","319","298221","0.0-1.0-437.0-0.0","0","0","88540","","666","","","75","48","","","2","48","training","adjacent","ED","5","4","R.jpg","O.jpg","0","0","1","",""
"","feedback","","html-keyboard-response","320","299226","0.0-1.0-438.0-0.0","0","0","88540","","null","","","null","48","","","","","","","","","","","","","","","",""
"","ITI","","html-keyboard-response","321","300230","0.0-1.0-441.0","0","0","88540","","null","","","null","48","","","","","","","","","","","","","","","NaN",""
"","S1","","html-keyboard-response","322","300483","0.0-1.0-443.0","0","0","88540","","null","","","null","49","","","","","","","","","","","","","","","",""
"","ISI","","html-keyboard-response","323","300988","0.0-1.0-444.0","0","0","88540","","null","","","null","49","NaN","","","","","","","","","","","","","","",""
"","S2","","html-keyboard-response","324","301243","0.0-1.0-445.0","0","0","88540","","null","","","null","49","","NaN","","","","","","","","","","","","","",""
"","response","","html-keyboard-response","325","301730","0.0-1.0-446.0-0.0","0","0","88540","","483","","","75","49","","","2","49","training","adjacent","GF","7","6","L.jpg","Q.jpg","0","0","1","",""
"","feedback","","html-keyboard-response","326","302735","0.0-1.0-447.0-0.0","0","0","88540","","null","","","null","49","","","","","","","","","","","","","","","",""
"","ITI","","html-keyboard-response","327","303739","0.0-1.0-450.0","0","0","88540","","null","","","null","49","","","","","","","","","","","","","","","NaN",""
"","S1","","html-keyboard-response","328","303993","0.0-1.0-452.0","0","0","88540","","null","","","null","50","","","","","","","","","","","","","","","",""
"","ISI","","html-keyboard-response","329","304497","0.0-1.0-453.0","0","0","88540","","null","","","null","50","NaN","","","","","","","","","","","","","","",""
"","S2","","html-keyboard-response","330","304752","0.0-1.0-454.0","0","0","88540","","null","","","null","50","","NaN","","","","","","","","","","","","","",""
"","response","","html-keyboard-response","331","305501","0.0-1.0-455.0-0.0","0","0","88540","","746","","","75","50","","","2","50","training","adjacent","DE","4","5","O.jpg","R.jpg","0","1","0","",""
"","feedback","","html-keyboard-response","332","306506","0.0-1.0-456.0-0.0","0","0","88540","","null","","","null","50","","","","","","","","","","","","","","","",""
"","time_out","","html-keyboard-response","333","308512","0.0-1.0-458.0-0.0","0","0","88540","","null","","","null","50","","","","","","","","","","","","","","","",""
"","ITI","","html-keyboard-response","334","309516","0.0-1.0-459.0","0","0","88540","","null","","","null","50","","","","","","","","","","","","","","","NaN",""
"","S1","","html-keyboard-response","335","309771","0.0-1.0-461.0","0","0","88540","","null","","","null","51","","","","","","","","","","","","","","","",""
"","ISI","","html-keyboard-response","336","310274","0.0-1.0-462.0","0","0","88540","","null","","","null","51","NaN","","","","","","","","","","","","","","",""
"","S2","","html-keyboard-response","337","310529","0.0-1.0-463.0","0","0","88540","","null","","","null","51","","NaN","","","","","","","","","","","","","",""
"","response","","html-keyboard-response","338","311448","0.0-1.0-464.0-0.0","0","0","88540","","915","","","75","51","","","2","51","training","adjacent","GF","7","6","L.jpg","Q.jpg","0","0","1","",""
"","feedback","","html-keyboard-response","339","312454","0.0-1.0-465.0-0.0","0","0","88540","","null","","","null","51","","","","","","","","","","","","","","","",""
"","ITI","","html-keyboard-response","340","313459","0.0-1.0-468.0","0","0","88540","","null","","","null","51","","","","","","","","","","","","","","","NaN",""
"","S1","","html-keyboard-response","341","313714","0.0-1.0-470.0","0","0","88540","","null","","","null","52","","","","","","","","","","","","","","","",""
"","ISI","","html-keyboard-response","342","314219","0.0-1.0-471.0","0","0","88540","","null","","","null","52","NaN","","","","","","","","","","","","","","",""
"","S2","","html-keyboard-response","343","314474","0.0-1.0-472.0","0","0","88540","","null","","","null","52","","NaN","","","","","","","","","","","","","",""
"","response","","html-keyboard-response","344","314878","0.0-1.0-473.0-0.0","0","0","88540","","401","","","68","52","","","2","52","training","adjacent","FG","6","7","Q.jpg","L.jpg","1","1","1","",""
"","feedback","","html-keyboard-response","345","315882","0.0-1.0-474.0-0.0","0","0","88540","","null","","","null","52","","","","","","","","","","","","","","","",""
"","ITI","","html-keyboard-response","346","316896","0.0-1.0-477.0","0","0","88540","","null","","","null","52","","","","","","","","","","","","","","","NaN",""
"","S1","","html-keyboard-response","347","317150","0.0-1.0-479.0","0","0","88540","","null","","","null","53","","","","","","","","","","","","","","","",""
"","ISI","","html-keyboard-response","348","317653","0.0-1.0-480.0","0","0","88540","","null","","","null","53","NaN","","","","","","","","","","","","","","",""
"","S2","","html-keyboard-response","349","317909","0.0-1.0-481.0","0","0","88540","","null","","","null","53","","NaN","","","","","","","","","","","","","",""
"","response","","html-keyboard-response","350","318545","0.0-1.0-482.0-0.0","0","0","88540","","632","","","68","53","","","2","53","training","adjacent","BA","2","1","P.jpg","N.jpg","1","0","0","",""
"","feedback","","html-keyboard-response","351","319550","0.0-1.0-483.0-0.0","0","0","88540","","null","","","null","53","","","","","","","","","","","","","","","",""
"","time_out","","html-keyboard-response","352","321556","0.0-1.0-485.0-0.0","0","0","88540","","null","","","null","53","","","","","","","","","","","","","","","",""
"","ITI","","html-keyboard-response","353","322560","0.0-1.0-486.0","0","0","88540","","null","","","null","53","","","","","","","","","","","","","","","NaN",""
"","S1","","html-keyboard-response","354","322813","0.0-1.0-488.0","0","0","88540","","null","","","null","54","","","","","","","","","","","","","","","",""
"","ISI","","html-keyboard-response","355","323315","0.0-1.0-489.0","0","0","88540","","null","","","null","54","NaN","","","","","","","","","","","","","","",""
"","S2","","html-keyboard-response","356","323570","0.0-1.0-490.0","0","0","88540","","null","","","null","54","","NaN","","","","","","","","","","","","","",""
"","response","","html-keyboard-response","357","323853","0.0-1.0-491.0-0.0","0","0","88540","","279","","","75","54","","","2","54","training","adjacent","BC","2","3","P.jpg","M.jpg","0","1","0","",""
"","feedback","","html-keyboard-response","358","324857","0.0-1.0-492.0-0.0","0","0","88540","","null","","","null","54","","","","","","","","","","","","","","","",""
"","time_out","","html-keyboard-response","359","326859","0.0-1.0-494.0-0.0","0","0","88540","","null","","","null","54","","","","","","","","","","","","","","","",""
"","ITI","","html-keyboard-response","360","327863","0.0-1.0-495.0","0","0","88540","","null","","","null","54","","","","","","","","","","","","","","","NaN",""
"","S1","","html-keyboard-response","361","328130","0.0-1.0-497.0","0","0","88540","","null","","","null","55","","","","","","","","","","","","","","","",""
"","ISI","","html-keyboard-response","362","328636","0.0-1.0-498.0","0","0","88540","","null","","","null","55","NaN","","","","","","","","","","","","","","",""
"","S2","","html-keyboard-response","363","328890","0.0-1.0-499.0","0","0","88540","","null","","","null","55","","NaN","","","","","","","","","","","","","",""
"","response","","html-keyboard-response","364","329454","0.0-1.0-500.0-0.0","0","0","88540","","559","","","75","55","","","2","55","training","adjacent","ED","5","4","R.jpg","O.jpg","0","0","1","",""
"","feedback","","html-keyboard-response","365","330459","0.0-1.0-501.0-0.0","0","0","88540","","null","","","null","55","","","","","","","","","","","","","","","",""
"","ITI","","html-keyboard-response","366","331465","0.0-1.0-504.0","0","0","88540","","null","","","null","55","","","","","","","","","","","","","","","NaN",""
"","S1","","html-keyboard-response","367","331720","0.0-1.0-506.0","0","0","88540","","null","","","null","56","","","","","","","","","","","","","","","",""
"","ISI","","html-keyboard-response","368","332223","0.0-1.0-507.0","0","0","88540","","null","","","null","56","NaN","","","","","","","","","","","","","","",""
"","S2","","html-keyboard-response","369","332492","0.0-1.0-508.0","0","0","88540","","null","","","null","56","","NaN","","","","","","","","","","","","","",""
"","response","","html-keyboard-response","370","333340","0.0-1.0-509.0-0.0","0","0","88540","","844","","","75","56","","","2","56","training","adjacent","CD","3","4","M.jpg","O.jpg","0","1","0","",""
"","feedback","","html-keyboard-response","371","334344","0.0-1.0-510.0-0.0","0","0","88540","","null","","","null","56","","","","","","","","","","","","","","","",""
"","time_out","","html-keyboard-response","372","336349","0.0-1.0-512.0-0.0","0","0","88540","","null","","","null","56","","","","","","","","","","","","","","","",""
"","ITI","","html-keyboard-response","373","337351","0.0-1.0-513.0","0","0","88540","","null","","","null","56","","","","","","","","","","","","","","","NaN",""
"","S1","","html-keyboard-response","374","337605","0.0-1.0-515.0","0","0","88540","","null","","","null","57","","","","","","","","","","","","","","","",""
"","ISI","","html-keyboard-response","375","338117","0.0-1.0-516.0","0","0","88540","","null","","","null","57","NaN","","","","","","","","","","","","","","",""
"","S2","","html-keyboard-response","376","338373","0.0-1.0-517.0","0","0","88540","","null","","","null","57","","NaN","","","","","","","","","","","","","",""
"","response","","html-keyboard-response","377","339255","0.0-1.0-518.0-0.0","0","0","88540","","878","","","68","57","","","2","57","training","adjacent","FE","6","5","Q.jpg","R.jpg","1","0","0","",""
"","feedback","","html-keyboard-response","378","340260","0.0-1.0-519.0-0.0","0","0","88540","","null","","","null","57","","","","","","","","","","","","","","","",""
"","time_out","","html-keyboard-response","379","342265","0.0-1.0-521.0-0.0","0","0","88540","","null","","","null","57","","","","","","","","","","","","","","","",""
"","ITI","","html-keyboard-response","380","343269","0.0-1.0-522.0","0","0","88540","","null","","","null","57","","","","","","","","","","","","","","","NaN",""
"","S1","","html-keyboard-response","381","343524","0.0-1.0-524.0","0","0","88540","","null","","","null","58","","","","","","","","","","","","","","","",""
"","ISI","","html-keyboard-response","382","344029","0.0-1.0-525.0","0","0","88540","","null","","","null","58","NaN","","","","","","","","","","","","","","",""
"","S2","","html-keyboard-response","383","344283","0.0-1.0-526.0","0","0","88540","","null","","","null","58","","NaN","","","","","","","","","","","","","",""
"","response","","html-keyboard-response","384","344957","0.0-1.0-527.0-0.0","0","0","88540","","672","","","68","58","","","2","58","training","adjacent","CB","3","2","M.jpg","P.jpg","1","0","0","",""
"","feedback","","html-keyboard-response","385","345961","0.0-1.0-528.0-0.0","0","0","88540","","null","","","null","58","","","","","","","","","","","","","","","",""
"","time_out","","html-keyboard-response","386","347965","0.0-1.0-530.0-0.0","0","0","88540","","null","","","null","58","","","","","","","","","","","","","","","",""
"","ITI","","html-keyboard-response","387","348969","0.0-1.0-531.0","0","0","88540","","null","","","null","58","","","","","","","","","","","","","","","NaN",""
"","S1","","html-keyboard-response","388","349221","0.0-1.0-533.0","0","0","88540","","null","","","null","59","","","","","","","","","","","","","","","",""
"","ISI","","html-keyboard-response","389","349725","0.0-1.0-534.0","0","0","88540","","null","","","null","59","NaN","","","","","","","","","","","","","","",""
"","S2","","html-keyboard-response","390","349979","0.0-1.0-535.0","0","0","88540","","null","","","null","59","","NaN","","","","","","","","","","","","","",""
"","response","","html-keyboard-response","391","350478","0.0-1.0-536.0-0.0","0","0","88540","","495","","","68","59","","","2","59","training","adjacent","AB","1","2","N.jpg","P.jpg","1","1","1","",""
"","feedback","","html-keyboard-response","392","351483","0.0-1.0-537.0-0.0","0","0","88540","","null","","","null","59","","","","","","","","","","","","","","","",""
"","ITI","","html-keyboard-response","393","352488","0.0-1.0-540.0","0","0","88540","","null","","","null","59","","","","","","","","","","","","","","","NaN",""
"","S1","","html-keyboard-response","394","352742","0.0-1.0-542.0","0","0","88540","","null","","","null","60","","","","","","","","","","","","","","","",""
"","ISI","","html-keyboard-response","395","353246","0.0-1.0-543.0","0","0","88540","","null","","","null","60","NaN","","","","","","","","","","","","","","",""
"","S2","","html-keyboard-response","396","353500","0.0-1.0-544.0","0","0","88540","","null","","","null","60","","NaN","","","","","","","","","","","","","",""
"","response","","html-keyboard-response","397","354203","0.0-1.0-545.0-0.0","0","0","88540","","699","","","75","60","","","2","60","training","adjacent","FE","6","5","Q.jpg","R.jpg","0","0","1","",""
"","feedback","","html-keyboard-response","398","355208","0.0-1.0-546.0-0.0","0","0","88540","","null","","","null","60","","","","","","","","","","","","","","","",""
"","ITI","","html-keyboard-response","399","356212","0.0-1.0-549.0","0","0","88540","","null","","","null","60","","","","","","","","","","","","","","","NaN",""
"","S1","","html-keyboard-response","400","356466","0.0-1.0-551.0","0","0","88540","","null","","","null","61","","","","","","","","","","","","","","","",""
"","ISI","","html-keyboard-response","401","356968","0.0-1.0-552.0","0","0","88540","","null","","","null","61","NaN","","","","","","","","","","","","","","",""
"","S2","","html-keyboard-response","402","357222","0.0-1.0-553.0","0","0","88540","","null","","","null","61","","NaN","","","","","","","","","","","","","",""
"","response","","html-keyboard-response","403","357713","0.0-1.0-554.0-0.0","0","0","88540","","487","","","75","61","","","2","61","training","adjacent","BC","2","3","P.jpg","M.jpg","0","1","0","",""
"","feedback","","html-keyboard-response","404","358718","0.0-1.0-555.0-0.0","0","0","88540","","null","","","null","61","","","","","","","","","","","","","","","",""
"","time_out","","html-keyboard-response","405","360723","0.0-1.0-557.0-0.0","0","0","88540","","null","","","null","61","","","","","","","","","","","","","","","",""
"","ITI","","html-keyboard-response","406","361726","0.0-1.0-558.0","0","0","88540","","null","","","null","61","","","","","","","","","","","","","","","NaN",""
"","S1","","html-keyboard-response","407","361982","0.0-1.0-560.0","0","0","88540","","null","","","null","62","","","","","","","","","","","","","","","",""
"","ISI","","html-keyboard-response","408","362495","0.0-1.0-561.0","0","0","88540","","null","","","null","62","NaN","","","","","","","","","","","","","","",""
"","S2","","html-keyboard-response","409","362750","0.0-1.0-562.0","0","0","88540","","null","","","null","62","","NaN","","","","","","","","","","","","","",""
"","response","","html-keyboard-response","410","363299","0.0-1.0-563.0-0.0","0","0","88540","","546","","","75","62","","","2","62","training","adjacent","EF","5","6","R.jpg","Q.jpg","0","1","0","",""
"","feedback","","html-keyboard-response","411","364304","0.0-1.0-564.0-0.0","0","0","88540","","null","","","null","62","","","","","","","","","","","","","","","",""
"","time_out","","html-keyboard-response","412","366309","0.0-1.0-566.0-0.0","0","0","88540","","null","","","null","62","","","","","","","","","","","","","","","",""
"","ITI","","html-keyboard-response","413","367314","0.0-1.0-567.0","0","0","88540","","null","","","null","62","","","","","","","","","","","","","","","NaN",""
"","S1","","html-keyboard-response","414","367569","0.0-1.0-569.0","0","0","88540","","null","","","null","63","","","","","","","","","","","","","","","",""
"","ISI","","html-keyboard-response","415","368073","0.0-1.0-570.0","0","0","88540","","null","","","null","63","NaN","","","","","","","","","","","","","","",""
"","S2","","html-keyboard-response","416","368328","0.0-1.0-571.0","0","0","88540","","null","","","null","63","","NaN","","","","","","","","","","","","","",""
"","response","","html-keyboard-response","417","369017","0.0-1.0-572.0-0.0","0","0","88540","","685","","","68","63","","","2","63","training","adjacent","FG","6","7","Q.jpg","L.jpg","1","1","1","",""
"","feedback","","html-keyboard-response","418","370024","0.0-1.0-573.0-0.0","0","0","88540","","null","","","null","63","","","","","","","","","","","","","","","",""
"","ITI","","html-keyboard-response","419","371027","0.0-1.0-576.0","0","0","88540","","null","","","null","63","","","","","","","","","","","","","","","NaN",""
"","S1","","html-keyboard-response","420","371281","0.0-1.0-578.0","0","0","88540","","null","","","null","64","","","","","","","","","","","","","","","",""
"","ISI","","html-keyboard-response","421","371785","0.0-1.0-579.0","0","0","88540","","null","","","null","64","NaN","","","","","","","","","","","","","","",""
"","S2","","html-keyboard-response","422","372040","0.0-1.0-580.0","0","0","88540","","null","","","null","64","","NaN","","","","","","","","","","","","","",""
"","response","","html-keyboard-response","423","372559","0.0-1.0-581.0-0.0","0","0","88540","","514","","","75","64","","","2","64","training","adjacent","CB","3","2","M.jpg","P.jpg","0","0","1","",""
"","feedback","","html-keyboard-response","424","373564","0.0-1.0-582.0-0.0","0","0","88540","","null","","","null","64","","","","","","","","","","","","","","","",""
"","ITI","","html-keyboard-response","425","374569","0.0-1.0-585.0","0","0","88540","","null","","","null","64","","","","","","","","","","","","","","","NaN",""
"","S1","","html-keyboard-response","426","374822","0.0-1.0-587.0","0","0","88540","","null","","","null","65","","","","","","","","","","","","","","","",""
"","ISI","","html-keyboard-response","427","375325","0.0-1.0-588.0","0","0","88540","","null","","","null","65","NaN","","","","","","","","","","","","","","",""
"","S2","","html-keyboard-response","428","375580","0.0-1.0-589.0","0","0","88540","","null","","","null","65","","NaN","","","","","","","","","","","","","",""
"","response","","html-keyboard-response","429","376175","0.0-1.0-590.0-0.0","0","0","88540","","592","","","75","65","","","2","65","training","adjacent","AB","1","2","N.jpg","P.jpg","0","1","0","",""
"","feedback","","html-keyboard-response","430","377181","0.0-1.0-591.0-0.0","0","0","88540","","null","","","null","65","","","","","","","","","","","","","","","",""
"","time_out","","html-keyboard-response","431","379194","0.0-1.0-593.0-0.0","0","0","88540","","null","","","null","65","","","","","","","","","","","","","","","",""
"","ITI","","html-keyboard-response","432","380199","0.0-1.0-594.0","0","0","88540","","null","","","null","65","","","","","","","","","","","","","","","NaN",""
"","S1","","html-keyboard-response","433","380452","0.0-1.0-596.0","0","0","88540","","null","","","null","66","","","","","","","","","","","","","","","",""
"","ISI","","html-keyboard-response","434","380956","0.0-1.0-597.0","0","0","88540","","null","","","null","66","NaN","","","","","","","","","","","","","","",""
"","S2","","html-keyboard-response","435","381211","0.0-1.0-598.0","0","0","88540","","null","","","null","66","","NaN","","","","","","","","","","","","","",""
"","response","","html-keyboard-response","436","382057","0.0-1.0-599.0-0.0","0","0","88540","","844","","","68","66","","","2","66","training","adjacent","AB","1","2","N.jpg","P.jpg","1","1","1","",""
"","feedback","","html-keyboard-response","437","383060","0.0-1.0-600.0-0.0","0","0","88540","","null","","","null","66","","","","","","","","","","","","","","","",""
"","ITI","","html-keyboard-response","438","384071","0.0-1.0-603.0","0","0","88540","","null","","","null","66","","","","","","","","","","","","","","","NaN",""
"","S1","","html-keyboard-response","439","384325","0.0-1.0-605.0","0","0","88540","","null","","","null","67","","","","","","","","","","","","","","","",""
"","ISI","","html-keyboard-response","440","384829","0.0-1.0-606.0","0","0","88540","","null","","","null","67","NaN","","","","","","","","","","","","","","",""
"","S2","","html-keyboard-response","441","385084","0.0-1.0-607.0","0","0","88540","","null","","","null","67","","NaN","","","","","","","","","","","","","",""
"","response","","html-keyboard-response","442","385603","0.0-1.0-608.0-0.0","0","0","88540","","516","","","68","67","","","2","67","training","adjacent","BC","2","3","P.jpg","M.jpg","1","1","1","",""
"","feedback","","html-keyboard-response","443","386608","0.0-1.0-609.0-0.0","0","0","88540","","null","","","null","67","","","","","","","","","","","","","","","",""
"","ITI","","html-keyboard-response","444","387612","0.0-1.0-612.0","0","0","88540","","null","","","null","67","","","","","","","","","","","","","","","NaN",""
"","S1","","html-keyboard-response","445","387866","0.0-1.0-614.0","0","0","88540","","null","","","null","68","","","","","","","","","","","","","","","",""
"","ISI","","html-keyboard-response","446","388370","0.0-1.0-615.0","0","0","88540","","null","","","null","68","NaN","","","","","","","","","","","","","","",""
"","S2","","html-keyboard-response","447","388627","0.0-1.0-616.0","0","0","88540","","null","","","null","68","","NaN","","","","","","","","","","","","","",""
"","response","","html-keyboard-response","448","389129","0.0-1.0-617.0-0.0","0","0","88540","","498","","","75","68","","","2","68","training","adjacent","GF","7","6","L.jpg","Q.jpg","0","0","1","",""
"","feedback","","html-keyboard-response","449","390134","0.0-1.0-618.0-0.0","0","0","88540","","null","","","null","68","","","","","","","","","","","","","","","",""
"","ITI","","html-keyboard-response","450","391149","0.0-1.0-621.0","0","0","88540","","null","","","null","68","","","","","","","","","","","","","","","NaN",""
"","S1","","html-keyboard-response","451","391404","0.0-1.0-623.0","0","0","88540","","null","","","null","69","","","","","","","","","","","","","","","",""
"","ISI","","html-keyboard-response","452","391908","0.0-1.0-624.0","0","0","88540","","null","","","null","69","NaN","","","","","","","","","","","","","","",""
"","S2","","html-keyboard-response","453","392163","0.0-1.0-625.0","0","0","88540","","null","","","null","69","","NaN","","","","","","","","","","","","","",""
"","response","","html-keyboard-response","454","392829","0.0-1.0-626.0-0.0","0","0","88540","","663","","","75","69","","","2","69","training","adjacent","BA","2","1","P.jpg","N.jpg","0","0","1","",""
"","feedback","","html-keyboard-response","455","393833","0.0-1.0-627.0-0.0","0","0","88540","","null","","","null","69","","","","","","","","","","","","","","","",""
"","ITI","","html-keyboard-response","456","394841","0.0-1.0-630.0","0","0","88540","","null","","","null","69","","","","","","","","","","","","","","","NaN",""
"","S1","","html-keyboard-response","457","395095","0.0-1.0-632.0","0","0","88540","","null","","","null","70","","","","","","","","","","","","","","","",""
"","ISI","","html-keyboard-response","458","395599","0.0-1.0-633.0","0","0","88540","","null","","","null","70","NaN","","","","","","","","","","","","","","",""
"","S2","","html-keyboard-response","459","395854","0.0-1.0-634.0","0","0","88540","","null","","","null","70","","NaN","","","","","","","","","","","","","",""
"","response","","html-keyboard-response","460","396267","0.0-1.0-635.0-0.0","0","0","88540","","409","","","68","70","","","2","70","training","adjacent","DC","4","3","O.jpg","M.jpg","1","0","0","",""
"","feedback","","html-keyboard-response","461","397273","0.0-1.0-636.0-0.0","0","0","88540","","null","","","null","70","","","","","","","","","","","","","","","",""
"","time_out","","html-keyboard-response","462","399277","0.0-1.0-638.0-0.0","0","0","88540","","null","","","null","70","","","","","","","","","","","","","","","",""
"","ITI","","html-keyboard-response","463","400280","0.0-1.0-639.0","0","0","88540","","null","","","null","70","","","","","","","","","","","","","","","NaN",""
"","S1","","html-keyboard-response","464","400536","0.0-1.0-641.0","0","0","88540","","null","","","null","71","","","","","","","","","","","","","","","",""
"","ISI","","html-keyboard-response","465","401039","0.0-1.0-642.0","0","0","88540","","null","","","null","71","NaN","","","","","","","","","","","","","","",""
"","S2","","html-keyboard-response","466","401294","0.0-1.0-643.0","0","0","88540","","null","","","null","71","","NaN","","","","","","","","","","","","","",""
"","response","","html-keyboard-response","467","401816","0.0-1.0-644.0-0.0","0","0","88540","","518","","","75","71","","","2","71","training","adjacent","BA","2","1","P.jpg","N.jpg","0","0","1","",""
"","feedback","","html-keyboard-response","468","402821","0.0-1.0-645.0-0.0","0","0","88540","","null","","","null","71","","","","","","","","","","","","","","","",""
"","ITI","","html-keyboard-response","469","403826","0.0-1.0-648.0","0","0","88540","","null","","","null","71","","","","","","","","","","","","","","","NaN",""
"","S1","","html-keyboard-response","470","404081","0.0-1.0-650.0","0","0","88540","","null","","","null","72","","","","","","","","","","","","","","","",""
"","ISI","","html-keyboard-response","471","404586","0.0-1.0-651.0","0","0","88540","","null","","","null","72","NaN","","","","","","","","","","","","","","",""
"","S2","","html-keyboard-response","472","404839","0.0-1.0-652.0","0","0","88540","","null","","","null","72","","NaN","","","","","","","","","","","","","",""
"","response","","html-keyboard-response","473","405355","0.0-1.0-653.0-0.0","0","0","88540","","512","","","68","72","","","2","72","training","adjacent","FG","6","7","Q.jpg","L.jpg","1","1","1","",""
"","feedback","","html-keyboard-response","474","406361","0.0-1.0-654.0-0.0","0","0","88540","","null","","","null","72","","","","","","","","","","","","","","","",""
"","ITI","","html-keyboard-response","475","407367","0.0-1.0-657.0","0","0","88540","","null","","","null","72","","","","","","","","","","","","","","","NaN",""
"","S1","","html-keyboard-response","476","407625","0.0-1.0-659.0","0","0","88540","","null","","","null","73","","","","","","","","","","","","","","","",""
"","ISI","","html-keyboard-response","477","408141","0.0-1.0-660.0","0","0","88540","","null","","","null","73","NaN","","","","","","","","","","","","","","",""
"","S2","","html-keyboard-response","478","408395","0.0-1.0-661.0","0","0","88540","","null","","","null","73","","NaN","","","","","","","","","","","","","",""
"","response","","html-keyboard-response","479","409018","0.0-1.0-662.0-0.0","0","0","88540","","620","","","75","73","","","2","73","training","adjacent","DE","4","5","O.jpg","R.jpg","0","1","0","",""
"","feedback","","html-keyboard-response","480","410030","0.0-1.0-663.0-0.0","0","0","88540","","null","","","null","73","","","","","","","","","","","","","","","",""
"","time_out","","html-keyboard-response","481","412035","0.0-1.0-665.0-0.0","0","0","88540","","null","","","null","73","","","","","","","","","","","","","","","",""
"","ITI","","html-keyboard-response","482","413038","0.0-1.0-666.0","0","0","88540","","null","","","null","73","","","","","","","","","","","","","","","NaN",""
"","S1","","html-keyboard-response","483","413293","0.0-1.0-668.0","0","0","88540","","null","","","null","74","","","","","","","","","","","","","","","",""
"","ISI","","html-keyboard-response","484","413798","0.0-1.0-669.0","0","0","88540","","null","","","null","74","NaN","","","","","","","","","","","","","","",""
"","S2","","html-keyboard-response","485","414052","0.0-1.0-670.0","0","0","88540","","null","","","null","74","","NaN","","","","","","","","","","","","","",""
"","response","","html-keyboard-response","486","414421","0.0-1.0-671.0-0.0","0","0","88540","","367","","","75","74","","","2","74","training","adjacent","EF","5","6","R.jpg","Q.jpg","0","1","0","",""
"","feedback","","html-keyboard-response","487","415425","0.0-1.0-672.0-0.0","0","0","88540","","null","","","null","74","","","","","","","","","","","","","","","",""
"","time_out","","html-keyboard-response","488","417428","0.0-1.0-674.0-0.0","0","0","88540","","null","","","null","74","","","","","","","","","","","","","","","",""
"","ITI","","html-keyboard-response","489","418432","0.0-1.0-675.0","0","0","88540","","null","","","null","74","","","","","","","","","","","","","","","NaN",""
"","S1","","html-keyboard-response","490","418684","0.0-1.0-677.0","0","0","88540","","null","","","null","75","","","","","","","","","","","","","","","",""
"","ISI","","html-keyboard-response","491","419188","0.0-1.0-678.0","0","0","88540","","null","","","null","75","NaN","","","","","","","","","","","","","","",""
"","S2","","html-keyboard-response","492","419444","0.0-1.0-679.0","0","0","88540","","null","","","null","75","","NaN","","","","","","","","","","","","","",""
"","response","","html-keyboard-response","493","419798","0.0-1.0-680.0-0.0","0","0","88540","","350","","","75","75","","","2","75","training","adjacent","BA","2","1","P.jpg","N.jpg","0","0","1","",""
"","feedback","","html-keyboard-response","494","420802","0.0-1.0-681.0-0.0","0","0","88540","","null","","","null","75","","","","","","","","","","","","","","","",""
"","ITI","","html-keyboard-response","495","421806","0.0-1.0-684.0","0","0","88540","","null","","","null","75","","","","","","","","","","","","","","","NaN",""
"","S1","","html-keyboard-response","496","422059","0.0-1.0-686.0","0","0","88540","","null","","","null","76","","","","","","","","","","","","","","","",""
"","ISI","","html-keyboard-response","497","422563","0.0-1.0-687.0","0","0","88540","","null","","","null","76","NaN","","","","","","","","","","","","","","",""
"","S2","","html-keyboard-response","498","422830","0.0-1.0-688.0","0","0","88540","","null","","","null","76","","NaN","","","","","","","","","","","","","",""
"","response","","html-keyboard-response","499","423217","0.0-1.0-689.0-0.0","0","0","88540","","382","","","68","76","","","2","76","training","adjacent","DC","4","3","O.jpg","M.jpg","1","0","0","",""
"","feedback","","html-keyboard-response","500","424221","0.0-1.0-690.0-0.0","0","0","88540","","null","","","null","76","","","","","","","","","","","","","","","",""
"","time_out","","html-keyboard-response","501","426226","0.0-1.0-692.0-0.0","0","0","88540","","null","","","null","76","","","","","","","","","","","","","","","",""
"","ITI","","html-keyboard-response","502","427228","0.0-1.0-693.0","0","0","88540","","null","","","null","76","","","","","","","","","","","","","","","NaN",""
"","S1","","html-keyboard-response","503","427483","0.0-1.0-695.0","0","0","88540","","null","","","null","77","","","","","","","","","","","","","","","",""
"","ISI","","html-keyboard-response","504","427987","0.0-1.0-696.0","0","0","88540","","null","","","null","77","NaN","","","","","","","","","","","","","","",""
"","S2","","html-keyboard-response","505","428242","0.0-1.0-697.0","0","0","88540","","null","","","null","77","","NaN","","","","","","","","","","","","","",""
"","response","","html-keyboard-response","506","428827","0.0-1.0-698.0-0.0","0","0","88540","","583","","","75","77","","","2","77","training","adjacent","DE","4","5","O.jpg","R.jpg","0","1","0","",""
"","feedback","","html-keyboard-response","507","429832","0.0-1.0-699.0-0.0","0","0","88540","","null","","","null","77","","","","","","","","","","","","","","","",""
"","time_out","","html-keyboard-response","508","431837","0.0-1.0-701.0-0.0","0","0","88540","","null","","","null","77","","","","","","","","","","","","","","","",""
"","ITI","","html-keyboard-response","509","432840","0.0-1.0-702.0","0","0","88540","","null","","","null","77","","","","","","","","","","","","","","","NaN",""
"","S1","","html-keyboard-response","510","433093","0.0-1.0-704.0","0","0","88540","","null","","","null","78","","","","","","","","","","","","","","","",""
"","ISI","","html-keyboard-response","511","433597","0.0-1.0-705.0","0","0","88540","","null","","","null","78","NaN","","","","","","","","","","","","","","",""
"","S2","","html-keyboard-response","512","433853","0.0-1.0-706.0","0","0","88540","","null","","","null","78","","NaN","","","","","","","","","","","","","",""
"","response","","html-keyboard-response","513","434474","0.0-1.0-707.0-0.0","0","0","88540","","617","","","68","78","","","2","78","training","adjacent","FE","6","5","Q.jpg","R.jpg","1","0","0","",""
"","feedback","","html-keyboard-response","514","435479","0.0-1.0-708.0-0.0","0","0","88540","","null","","","null","78","","","","","","","","","","","","","","","",""
"","time_out","","html-keyboard-response","515","437485","0.0-1.0-710.0-0.0","0","0","88540","","null","","","null","78","","","","","","","","","","","","","","","",""
"","ITI","","html-keyboard-response","516","438490","0.0-1.0-711.0","0","0","88540","","null","","","null","78","","","","","","","","","","","","","","","NaN",""
"","S1","","html-keyboard-response","517","438746","0.0-1.0-713.0","0","0","88540","","null","","","null","79","","","","","","","","","","","","","","","",""
"","ISI","","html-keyboard-response","518","439250","0.0-1.0-714.0","0","0","88540","","null","","","null","79","NaN","","","","","","","","","","","","","","",""
"","S2","","html-keyboard-response","519","439505","0.0-1.0-715.0","0","0","88540","","null","","","null","79","","NaN","","","","","","","","","","","","","",""
"","response","","html-keyboard-response","520","440120","0.0-1.0-716.0-0.0","0","0","88540","","611","","","68","79","","","2","79","training","adjacent","BC","2","3","P.jpg","M.jpg","1","1","1","",""
"","feedback","","html-keyboard-response","521","441139","0.0-1.0-717.0-0.0","0","0","88540","","null","","","null","79","","","","","","","","","","","","","","","",""
"","ITI","","html-keyboard-response","522","442157","0.0-1.0-720.0","0","0","88540","","null","","","null","79","","","","","","","","","","","","","","","NaN",""
"","S1","","html-keyboard-response","523","442415","0.0-1.0-722.0","0","0","88540","","null","","","null","80","","","","","","","","","","","","","","","",""
"","ISI","","html-keyboard-response","524","442919","0.0-1.0-723.0","0","0","88540","","null","","","null","80","NaN","","","","","","","","","","","","","","",""
"","S2","","html-keyboard-response","525","443172","0.0-1.0-724.0","0","0","88540","","null","","","null","80","","NaN","","","","","","","","","","","","","",""
"","response","","html-keyboard-response","526","443991","0.0-1.0-725.0-0.0","0","0","88540","","815","","","68","80","","","2","80","training","adjacent","AB","1","2","N.jpg","P.jpg","1","1","1","",""
"","feedback","","html-keyboard-response","527","444997","0.0-1.0-726.0-0.0","0","0","88540","","null","","","null","80","","","","","","","","","","","","","","","",""
"","ITI","","html-keyboard-response","528","446001","0.0-1.0-729.0","0","0","88540","","null","","","null","80","","","","","","","","","","","","","","","NaN",""
"","S1","","html-keyboard-response","529","446254","0.0-1.0-731.0","0","0","88540","","null","","","null","81","","","","","","","","","","","","","","","",""
"","ISI","","html-keyboard-response","530","446761","0.0-1.0-732.0","0","0","88540","","null","","","null","81","NaN","","","","","","","","","","","","","","",""
"","S2","","html-keyboard-response","531","447015","0.0-1.0-733.0","0","0","88540","","null","","","null","81","","NaN","","","","","","","","","","","","","",""
"","response","","html-keyboard-response","532","447645","0.0-1.0-734.0-0.0","0","0","88540","","626","","","68","81","","","2","81","training","adjacent","EF","5","6","R.jpg","Q.jpg","1","1","1","",""
"","feedback","","html-keyboard-response","533","448649","0.0-1.0-735.0-0.0","0","0","88540","","null","","","null","81","","","","","","","","","","","","","","","",""
"","ITI","","html-keyboard-response","534","449654","0.0-1.0-738.0","0","0","88540","","null","","","null","81","","","","","","","","","","","","","","","NaN",""
"","S1","","html-keyboard-response","535","449918","0.0-1.0-740.0","0","0","88540","","null","","","null","82","","","","","","","","","","","","","","","",""
"","ISI","","html-keyboard-response","536","450422","0.0-1.0-741.0","0","0","88540","","null","","","null","82","NaN","","","","","","","","","","","","","","",""
"","S2","","html-keyboard-response","537","450676","0.0-1.0-742.0","0","0","88540","","null","","","null","82","","NaN","","","","","","","","","","","","","",""
"","response","","html-keyboard-response","538","451155","0.0-1.0-743.0-0.0","0","0","88540","","477","","","68","82","","","2","82","training","adjacent","DE","4","5","O.jpg","R.jpg","1","1","1","",""
"","feedback","","html-keyboard-response","539","452159","0.0-1.0-744.0-0.0","0","0","88540","","null","","","null","82","","","","","","","","","","","","","","","",""
"","ITI","","html-keyboard-response","540","453164","0.0-1.0-747.0","0","0","88540","","null","","","null","82","","","","","","","","","","","","","","","NaN",""
"","S1","","html-keyboard-response","541","453419","0.0-1.0-749.0","0","0","88540","","null","","","null","83","","","","","","","","","","","","","","","",""
"","ISI","","html-keyboard-response","542","453923","0.0-1.0-750.0","0","0","88540","","null","","","null","83","NaN","","","","","","","","","","","","","","",""
"","S2","","html-keyboard-response","543","454183","0.0-1.0-751.0","0","0","88540","","null","","","null","83","","NaN","","","","","","","","","","","","","",""
"","response","","html-keyboard-response","544","454748","0.0-1.0-752.0-0.0","0","0","88540","","561","","","68","83","","","2","83","training","adjacent","CB","3","2","M.jpg","P.jpg","1","0","0","",""
"","feedback","","html-keyboard-response","545","455754","0.0-1.0-753.0-0.0","0","0","88540","","null","","","null","83","","","","","","","","","","","","","","","",""
"","time_out","","html-keyboard-response","546","457759","0.0-1.0-755.0-0.0","0","0","88540","","null","","","null","83","","","","","","","","","","","","","","","",""
"","ITI","","html-keyboard-response","547","458801","0.0-1.0-756.0","0","0","88540","","null","","","null","83","","","","","","","","","","","","","","","NaN",""
"","S1","","html-keyboard-response","548","459054","0.0-1.0-758.0","0","0","88540","","null","","","null","84","","","","","","","","","","","","","","","",""
"","ISI","","html-keyboard-response","549","459557","0.0-1.0-759.0","0","0","88540","","null","","","null","84","NaN","","","","","","","","","","","","","","",""
"","S2","","html-keyboard-response","550","459812","0.0-1.0-760.0","0","0","88540","","null","","","null","84","","NaN","","","","","","","","","","","","","",""
"","response","","html-keyboard-response","551","460358","0.0-1.0-761.0-0.0","0","0","88540","","542","","","68","84","","","2","84","training","adjacent","FG","6","7","Q.jpg","L.jpg","1","1","1","",""
"","feedback","","html-keyboard-response","552","461364","0.0-1.0-762.0-0.0","0","0","88540","","null","","","null","84","","","","","","","","","","","","","","","",""
"","ITI","","html-keyboard-response","553","462369","0.0-1.0-765.0","0","0","88540","","null","","","null","84","","","","","","","","","","","","","","","NaN",""
"","S1","","html-keyboard-response","554","462623","0.0-1.0-767.0","0","0","88540","","null","","","null","85","","","","","","","","","","","","","","","",""
"","ISI","","html-keyboard-response","555","463125","0.0-1.0-768.0","0","0","88540","","null","","","null","85","NaN","","","","","","","","","","","","","","",""
"","S2","","html-keyboard-response","556","463389","0.0-1.0-769.0","0","0","88540","","null","","","null","85","","NaN","","","","","","","","","","","","","",""
"","response","","html-keyboard-response","557","463951","0.0-1.0-770.0-0.0","0","0","88540","","558","","","68","85","","","2","85","training","adjacent","FE","6","5","Q.jpg","R.jpg","1","0","0","",""
"","feedback","","html-keyboard-response","558","464957","0.0-1.0-771.0-0.0","0","0","88540","","null","","","null","85","","","","","","","","","","","","","","","",""
"","time_out","","html-keyboard-response","559","466961","0.0-1.0-773.0-0.0","0","0","88540","","null","","","null","85","","","","","","","","","","","","","","","",""
"","ITI","","html-keyboard-response","560","467965","0.0-1.0-774.0","0","0","88540","","null","","","null","85","","","","","","","","","","","","","","","NaN",""
"","S1","","html-keyboard-response","561","468221","0.0-1.0-776.0","0","0","88540","","null","","","null","86","","","","","","","","","","","","","","","",""
"","ISI","","html-keyboard-response","562","468724","0.0-1.0-777.0","0","0","88540","","null","","","null","86","NaN","","","","","","","","","","","","","","",""
"","S2","","html-keyboard-response","563","468981","0.0-1.0-778.0","0","0","88540","","null","","","null","86","","NaN","","","","","","","","","","","","","",""
"","response","","html-keyboard-response","564","469573","0.0-1.0-779.0-0.0","0","0","88540","","588","","","75","86","","","2","86","training","adjacent","CD","3","4","M.jpg","O.jpg","0","1","0","",""
"","feedback","","html-keyboard-response","565","470580","0.0-1.0-780.0-0.0","0","0","88540","","null","","","null","86","","","","","","","","","","","","","","","",""
"","time_out","","html-keyboard-response","566","472584","0.0-1.0-782.0-0.0","0","0","88540","","null","","","null","86","","","","","","","","","","","","","","","",""
"","ITI","","html-keyboard-response","567","473588","0.0-1.0-783.0","0","0","88540","","null","","","null","86","","","","","","","","","","","","","","","NaN",""
"","S1","","html-keyboard-response","568","473842","0.0-1.0-785.0","0","0","88540","","null","","","null","87","","","","","","","","","","","","","","","",""
"","ISI","","html-keyboard-response","569","474346","0.0-1.0-786.0","0","0","88540","","null","","","null","87","NaN","","","","","","","","","","","","","","",""
"","S2","","html-keyboard-response","570","474601","0.0-1.0-787.0","0","0","88540","","null","","","null","87","","NaN","","","","","","","","","","","","","",""
"","response","","html-keyboard-response","571","475228","0.0-1.0-788.0-0.0","0","0","88540","","624","","","75","87","","","2","87","training","adjacent","CD","3","4","M.jpg","O.jpg","0","1","0","",""
"","feedback","","html-keyboard-response","572","476234","0.0-1.0-789.0-0.0","0","0","88540","","null","","","null","87","","","","","","","","","","","","","","","",""
"","time_out","","html-keyboard-response","573","478240","0.0-1.0-791.0-0.0","0","0","88540","","null","","","null","87","","","","","","","","","","","","","","","",""
"","ITI","","html-keyboard-response","574","479244","0.0-1.0-792.0","0","0","88540","","null","","","null","87","","","","","","","","","","","","","","","NaN",""
"","S1","","html-keyboard-response","575","479497","0.0-1.0-794.0","0","0","88540","","null","","","null","88","","","","","","","","","","","","","","","",""
"","ISI","","html-keyboard-response","576","480001","0.0-1.0-795.0","0","0","88540","","null","","","null","88","NaN","","","","","","","","","","","","","","",""
"","S2","","html-keyboard-response","577","480258","0.0-1.0-796.0","0","0","88540","","null","","","null","88","","NaN","","","","","","","","","","","","","",""
"","response","","html-keyboard-response","578","480849","0.0-1.0-797.0-0.0","0","0","88540","","588","","","68","88","","","2","88","training","adjacent","DC","4","3","O.jpg","M.jpg","1","0","0","",""
"","feedback","","html-keyboard-response","579","481854","0.0-1.0-798.0-0.0","0","0","88540","","null","","","null","88","","","","","","","","","","","","","","","",""
"","time_out","","html-keyboard-response","580","483860","0.0-1.0-800.0-0.0","0","0","88540","","null","","","null","88","","","","","","","","","","","","","","","",""
"","ITI","","html-keyboard-response","581","484864","0.0-1.0-801.0","0","0","88540","","null","","","null","88","","","","","","","","","","","","","","","NaN",""
"","S1","","html-keyboard-response","582","485117","0.0-1.0-803.0","0","0","88540","","null","","","null","89","","","","","","","","","","","","","","","",""
