"success","ttype","start_time","trial_type","trial_index","time_elapsed","internal_node_id","warning","missed_checkup","PID","view_history","rt","responses","repeat_instructions","key_press","index","keypress_isi","keypress_S2","block","trial_num","phase","group_type","pair_type","S1_stim","S2_stim","S1_img","S2_img","S1_chosen","S1_higher","accuracy","keypress_iti","total_bonus_tally"
"true","full_screen","d08012022hr1742","fullscreen","0","5613","0.0-0.0","0","0","15232","","","","","","","","","","","","","","","","","","","","","",""
"","instructions","","instructions","1","34642","0.0-1.0-0.0-0.0","0","0","15232","[{""page_index"":0,""viewing_time"":12383},{""page_index"":1,""viewing_time"":10316},{""page_index"":2,""viewing_time"":4844},{""page_index"":3,""viewing_time"":1482}]","29026","","","","","","","","","","","","","","","","","","","",""
"","comprehension_check","","survey-multi-choice","2","46245","0.0-1.0-0.0-1.0","0","0","15232","","11594","{""Q0"":""True"",""Q1"":""D"",""Q2"":""When you see the prompt 'MAKE A CHOICE' after the second image was presented"",""Q3"":""Green mark"",""Q4"":""either D or K""}","0","","","","","","","","","","","","","","","","","",""
"","start_exp","","html-keyboard-response","3","47789","0.0-1.0-1.0","0","0","15232","","1532","","","32","","","","","","","","","","","","","","","","",""
"","S1","","html-keyboard-response","4","48045","0.0-1.0-2.0","0","0","15232","","null","","","null","0","","","","","","","","","","","","","","","",""
"","ISI","","html-keyboard-response","5","50049","0.0-1.0-3.0","0","0","15232","","null","","","null","0","NaN","","","","","","","","","","","","","","",""
"","S2","","html-keyboard-response","6","50302","0.0-1.0-4.0","0","0","15232","","null","","","null","0","","NaN","","","","","","","","","","","","","",""
"","response","","html-keyboard-response","7","51620","0.0-1.0-5.0","0","0","15232","","1313","","","68","0","","","1","0","training","adjacent","CD","3","4","M.jpg","N.jpg","1","1","1","",""
"","feedback","","html-keyboard-response","8","52625","0.0-1.0-6.0-0.0","0","0","15232","","null","","","null","0","","","","","","","","","","","","","","","",""
"","ITI","","html-keyboard-response","9","53628","0.0-1.0-9.0","0","0","15232","","null","","","null","0","","","","","","","","","","","","","","","NaN",""
"","S1","","html-keyboard-response","10","53883","0.0-1.0-11.0","0","0","15232","","null","","","null","1","","","","","","","","","","","","","","","",""
"","ISI","","html-keyboard-response","11","55886","0.0-1.0-12.0","0","0","15232","","null","","","null","1","NaN","","","","","","","","","","","","","","",""
"","S2","","html-keyboard-response","12","56141","0.0-1.0-13.0","0","0","15232","","null","","","null","1","","NaN","","","","","","","","","","","","","",""
"","response","","html-keyboard-response","13","56936","0.0-1.0-14.0","0","0","15232","","792","","","75","1","","","1","1","training","adjacent","ED","5","4","L.jpg","N.jpg","0","0","1","",""
"","feedback","","html-keyboard-response","14","57953","0.0-1.0-15.0-0.0","0","0","15232","","null","","","null","1","","","","","","","","","","","","","","","",""
"","ITI","","html-keyboard-response","15","58957","0.0-1.0-18.0","0","0","15232","","null","","","null","1","","","","","","","","","","","","","","","NaN",""
"","S1","","html-keyboard-response","16","59212","0.0-1.0-20.0","0","0","15232","","null","","","null","2","","","","","","","","","","","","","","","",""
"","ISI","","html-keyboard-response","17","61217","0.0-1.0-21.0","0","0","15232","","null","","","null","2","NaN","","","","","","","","","","","","","","",""
"","S2","","html-keyboard-response","18","61471","0.0-1.0-22.0","0","0","15232","","null","","","null","2","","NaN","","","","","","","","","","","","","",""
"","response","","html-keyboard-response","19","62388","0.0-1.0-23.0","0","0","15232","","915","","","68","2","","","1","2","training","adjacent","BA","2","1","R.jpg","Q.jpg","1","0","0","",""
"","feedback","","html-keyboard-response","20","63393","0.0-1.0-24.0-0.0","0","0","15232","","null","","","null","2","","","","","","","","","","","","","","","",""
"","time_out","","html-keyboard-response","21","65397","0.0-1.0-26.0-0.0","0","0","15232","","null","","","null","2","","","","","","","","","","","","","","","",""
"","ITI","","html-keyboard-response","22","66399","0.0-1.0-27.0","0","0","15232","","null","","","null","2","","","","","","","","","","","","","","","NaN",""
"","S1","","html-keyboard-response","23","66653","0.0-1.0-29.0","0","0","15232","","null","","","null","3","","","","","","","","","","","","","","","",""
"","ISI","","html-keyboard-response","24","68656","0.0-1.0-30.0","0","0","15232","","null","","","null","3","NaN","","","","","","","","","","","","","","",""
"","S2","","html-keyboard-response","25","68910","0.0-1.0-31.0","0","0","15232","","null","","","null","3","","NaN","","","","","","","","","","","","","",""
"","response","","html-keyboard-response","26","69502","0.0-1.0-32.0","0","0","15232","","589","","","75","3","","","1","3","training","adjacent","AB","1","2","Q.jpg","R.jpg","0","1","0","",""
"","feedback","","html-keyboard-response","27","70506","0.0-1.0-33.0-0.0","0","0","15232","","null","","","null","3","","","","","","","","","","","","","","","",""
"","time_out","","html-keyboard-response","28","72510","0.0-1.0-35.0-0.0","0","0","15232","","null","","","null","3","","","","","","","","","","","","","","","",""
"","ITI","","html-keyboard-response","29","73514","0.0-1.0-36.0","0","0","15232","","null","","","null","3","","","","","","","","","","","","","","","NaN",""
"","S1","","html-keyboard-response","30","73768","0.0-1.0-38.0","0","0","15232","","null","","","null","4","","","","","","","","","","","","","","","",""
"","ISI","","html-keyboard-response","31","75772","0.0-1.0-39.0","0","0","15232","","null","","","null","4","NaN","","","","","","","","","","","","","","",""
"","S2","","html-keyboard-response","32","76027","0.0-1.0-40.0","0","0","15232","","null","","","null","4","","NaN","","","","","","","","","","","","","",""
"","response","","html-keyboard-response","33","76494","0.0-1.0-41.0","0","0","15232","","464","","","68","4","","","1","4","training","adjacent","GF","7","6","O.jpg","P.jpg","1","0","0","",""
"","feedback","","html-keyboard-response","34","77498","0.0-1.0-42.0-0.0","0","0","15232","","null","","","null","4","","","","","","","","","","","","","","","",""
"","time_out","","html-keyboard-response","35","79502","0.0-1.0-44.0-0.0","0","0","15232","","null","","","null","4","","","","","","","","","","","","","","","",""
"","ITI","","html-keyboard-response","36","80506","0.0-1.0-45.0","0","0","15232","","null","","","null","4","","","","","","","","","","","","","","","NaN",""
"","S1","","html-keyboard-response","37","80761","0.0-1.0-47.0","0","0","15232","","null","","","null","5","","","","","","","","","","","","","","","",""
"","ISI","","html-keyboard-response","38","82764","0.0-1.0-48.0","0","0","15232","","null","","","null","5","NaN","","","","","","","","","","","","","","",""
"","S2","","html-keyboard-response","39","83017","0.0-1.0-49.0","0","0","15232","","null","","","null","5","","NaN","","","","","","","","","","","","","",""
"","response","","html-keyboard-response","40","83191","0.0-1.0-50.0","0","0","15232","","171","","","68","5","","","1","5","training","adjacent","AB","1","2","Q.jpg","R.jpg","1","1","1","",""
"","feedback","","html-keyboard-response","41","84195","0.0-1.0-51.0-0.0","0","0","15232","","null","","","null","5","","","","","","","","","","","","","","","",""
"","ITI","","html-keyboard-response","42","85198","0.0-1.0-54.0","0","0","15232","","null","","","null","5","","","","","","","","","","","","","","","NaN",""
"","S1","","html-keyboard-response","43","85452","0.0-1.0-56.0","0","0","15232","","null","","","null","6","","","","","","","","","","","","","","","",""
"","ISI","","html-keyboard-response","44","87455","0.0-1.0-57.0","0","0","15232","","null","","","null","6","NaN","","","","","","","","","","","","","","",""
"","S2","","html-keyboard-response","45","87709","0.0-1.0-58.0","0","0","15232","","null","","","null","6","","NaN","","","","","","","","","","","","","",""
"","response","","html-keyboard-response","46","88091","0.0-1.0-59.0","0","0","15232","","379","","","68","6","","","1","6","training","adjacent","EF","5","6","L.jpg","P.jpg","1","1","1","",""
"","feedback","","html-keyboard-response","47","89095","0.0-1.0-60.0-0.0","0","0","15232","","null","","","null","6","","","","","","","","","","","","","","","",""
"","ITI","","html-keyboard-response","48","90098","0.0-1.0-63.0","0","0","15232","","null","","","null","6","","","","","","","","","","","","","","","NaN",""
"","S1","","html-keyboard-response","49","90353","0.0-1.0-65.0","0","0","15232","","null","","","null","7","","","","","","","","","","","","","","","",""
"","ISI","","html-keyboard-response","50","92359","0.0-1.0-66.0","0","0","15232","","null","","","null","7","NaN","","","","","","","","","","","","","","",""
"","S2","","html-keyboard-response","51","92613","0.0-1.0-67.0","0","0","15232","","null","","","null","7","","NaN","","","","","","","","","","","","","",""
"","response","","html-keyboard-response","52","93301","0.0-1.0-68.0","0","0","15232","","685","","","75","7","","","1","7","training","adjacent","FE","6","5","P.jpg","L.jpg","0","0","1","",""
"","feedback","","html-keyboard-response","53","94306","0.0-1.0-69.0-0.0","0","0","15232","","null","","","null","7","","","","","","","","","","","","","","","",""
"","ITI","","html-keyboard-response","54","95309","0.0-1.0-72.0","0","0","15232","","null","","","null","7","","","","","","","","","","","","","","","NaN",""
"","S1","","html-keyboard-response","55","95563","0.0-1.0-74.0","0","0","15232","","null","","","null","8","","","","","","","","","","","","","","","",""
"","ISI","","html-keyboard-response","56","97567","0.0-1.0-75.0","0","0","15232","","null","","","null","8","NaN","","","","","","","","","","","","","","",""
"","S2","","html-keyboard-response","57","97820","0.0-1.0-76.0","0","0","15232","","null","","","null","8","","NaN","","","","","","","","","","","","","",""
"","response","","html-keyboard-response","58","98380","0.0-1.0-77.0","0","0","15232","","557","","","75","8","","","1","8","training","adjacent","CB","3","2","M.jpg","R.jpg","0","0","1","",""
"","feedback","","html-keyboard-response","59","99384","0.0-1.0-78.0-0.0","0","0","15232","","null","","","null","8","","","","","","","","","","","","","","","",""
"","ITI","","html-keyboard-response","60","100388","0.0-1.0-81.0","0","0","15232","","null","","","null","8","","","","","","","","","","","","","","","NaN",""
"","S1","","html-keyboard-response","61","100641","0.0-1.0-83.0","0","0","15232","","null","","","null","9","","","","","","","","","","","","","","","",""
"","ISI","","html-keyboard-response","62","102645","0.0-1.0-84.0","0","0","15232","","null","","","null","9","NaN","","","","","","","","","","","","","","",""
"","S2","","html-keyboard-response","63","102899","0.0-1.0-85.0","0","0","15232","","null","","","null","9","","NaN","","","","","","","","","","","","","",""
"","response","","html-keyboard-response","64","103295","0.0-1.0-86.0","0","0","15232","","393","","","75","9","","","1","9","training","adjacent","FE","6","5","P.jpg","L.jpg","0","0","1","",""
"","feedback","","html-keyboard-response","65","104300","0.0-1.0-87.0-0.0","0","0","15232","","null","","","null","9","","","","","","","","","","","","","","","",""
"","ITI","","html-keyboard-response","66","105304","0.0-1.0-90.0","0","0","15232","","null","","","null","9","","","","","","","","","","","","","","","NaN",""
"","S1","","html-keyboard-response","67","105559","0.0-1.0-92.0","0","0","15232","","null","","","null","10","","","","","","","","","","","","","","","",""
"","ISI","","html-keyboard-response","68","107562","0.0-1.0-93.0","0","0","15232","","null","","","null","10","NaN","","","","","","","","","","","","","","",""
"","S2","","html-keyboard-response","69","107819","0.0-1.0-94.0","0","0","15232","","null","","","null","10","","NaN","","","","","","","","","","","","","",""
"","response","","html-keyboard-response","70","108248","0.0-1.0-95.0","0","0","15232","","426","","","68","10","","","1","10","training","adjacent","DC","4","3","N.jpg","M.jpg","1","0","0","",""
"","feedback","","html-keyboard-response","71","109252","0.0-1.0-96.0-0.0","0","0","15232","","null","","","null","10","","","","","","","","","","","","","","","",""
"","time_out","","html-keyboard-response","72","111255","0.0-1.0-98.0-0.0","0","0","15232","","null","","","null","10","","","","","","","","","","","","","","","",""
"","ITI","","html-keyboard-response","73","112259","0.0-1.0-99.0","0","0","15232","","null","","","null","10","","","","","","","","","","","","","","","NaN",""
"","S1","","html-keyboard-response","74","112514","0.0-1.0-101.0","0","0","15232","","null","","","null","11","","","","","","","","","","","","","","","",""
"","ISI","","html-keyboard-response","75","114518","0.0-1.0-102.0","0","0","15232","","null","","","null","11","NaN","","","","","","","","","","","","","","",""
"","S2","","html-keyboard-response","76","114771","0.0-1.0-103.0","0","0","15232","","null","","","null","11","","NaN","","","","","","","","","","","","","",""
"","response","","html-keyboard-response","77","115793","0.0-1.0-104.0","0","0","15232","","1019","","","68","11","","","1","11","training","adjacent","BA","2","1","R.jpg","Q.jpg","1","0","0","",""
"","feedback","","html-keyboard-response","78","116797","0.0-1.0-105.0-0.0","0","0","15232","","null","","","null","11","","","","","","","","","","","","","","","",""
"","time_out","","html-keyboard-response","79","118801","0.0-1.0-107.0-0.0","0","0","15232","","null","","","null","11","","","","","","","","","","","","","","","",""
"","ITI","","html-keyboard-response","80","119806","0.0-1.0-108.0","0","0","15232","","null","","","null","11","","","","","","","","","","","","","","","NaN",""
"","S1","","html-keyboard-response","81","120060","0.0-1.0-110.0","0","0","15232","","null","","","null","12","","","","","","","","","","","","","","","",""
"","ISI","","html-keyboard-response","82","122063","0.0-1.0-111.0","0","0","15232","","null","","","null","12","NaN","","","","","","","","","","","","","","",""
"","S2","","html-keyboard-response","83","122317","0.0-1.0-112.0","0","0","15232","","null","","","null","12","","NaN","","","","","","","","","","","","","",""
"","response","","html-keyboard-response","84","122528","0.0-1.0-113.0","0","0","15232","","209","","","68","12","","","1","12","training","adjacent","EF","5","6","L.jpg","P.jpg","1","1","1","",""
"","feedback","","html-keyboard-response","85","123534","0.0-1.0-114.0-0.0","0","0","15232","","null","","","null","12","","","","","","","","","","","","","","","",""
"","ITI","","html-keyboard-response","86","124538","0.0-1.0-117.0","0","0","15232","","null","","","null","12","","","","","","","","","","","","","","","NaN",""
"","S1","","html-keyboard-response","87","124792","0.0-1.0-119.0","0","0","15232","","null","","","null","13","","","","","","","","","","","","","","","",""
"","ISI","","html-keyboard-response","88","126796","0.0-1.0-120.0","0","0","15232","","null","","","null","13","NaN","","","","","","","","","","","","","","",""
"","S2","","html-keyboard-response","89","127064","0.0-1.0-121.0","0","0","15232","","null","","","null","13","","NaN","","","","","","","","","","","","","",""
"","response","","html-keyboard-response","90","128004","0.0-1.0-122.0","0","0","15232","","936","","","68","13","","","1","13","training","adjacent","GF","7","6","O.jpg","P.jpg","1","0","0","",""
"","feedback","","html-keyboard-response","91","129008","0.0-1.0-123.0-0.0","0","0","15232","","null","","","null","13","","","","","","","","","","","","","","","",""
"","time_out","","html-keyboard-response","92","131012","0.0-1.0-125.0-0.0","0","0","15232","","null","","","null","13","","","","","","","","","","","","","","","",""
"","ITI","","html-keyboard-response","93","132017","0.0-1.0-126.0","0","0","15232","","null","","","null","13","","","","","","","","","","","","","","","NaN",""
"","S1","","html-keyboard-response","94","132270","0.0-1.0-128.0","0","0","15232","","null","","","null","14","","","","","","","","","","","","","","","",""
"","ISI","","html-keyboard-response","95","134273","0.0-1.0-129.0","0","0","15232","","null","","","null","14","NaN","","","","","","","","","","","","","","",""
"","S2","","html-keyboard-response","96","134527","0.0-1.0-130.0","0","0","15232","","null","","","null","14","","NaN","","","","","","","","","","","","","",""
"","response","","html-keyboard-response","97","134876","0.0-1.0-131.0","0","0","15232","","346","","","68","14","","","1","14","training","adjacent","BC","2","3","R.jpg","M.jpg","1","1","1","",""
"","feedback","","html-keyboard-response","98","135880","0.0-1.0-132.0-0.0","0","0","15232","","null","","","null","14","","","","","","","","","","","","","","","",""
"","ITI","","html-keyboard-response","99","136883","0.0-1.0-135.0","0","0","15232","","null","","","null","14","","","","","","","","","","","","","","","NaN",""
"","S1","","html-keyboard-response","100","137137","0.0-1.0-137.0","0","0","15232","","null","","","null","15","","","","","","","","","","","","","","","",""
"","ISI","","html-keyboard-response","101","139141","0.0-1.0-138.0","0","0","15232","","null","","","null","15","NaN","","","","","","","","","","","","","","",""
"","S2","","html-keyboard-response","102","139394","0.0-1.0-139.0","0","0","15232","","null","","","null","15","","NaN","","","","","","","","","","","","","",""
"","response","","html-keyboard-response","103","140202","0.0-1.0-140.0","0","0","15232","","806","","","68","15","","","1","15","training","adjacent","CD","3","4","M.jpg","N.jpg","1","1","1","",""
"","feedback","","html-keyboard-response","104","141206","0.0-1.0-141.0-0.0","0","0","15232","","null","","","null","15","","","","","","","","","","","","","","","",""
"","ITI","","html-keyboard-response","105","142209","0.0-1.0-144.0","0","0","15232","","null","","","null","15","","","","","","","","","","","","","","","NaN",""
"","S1","","html-keyboard-response","106","142462","0.0-1.0-146.0","0","0","15232","","null","","","null","16","","","","","","","","","","","","","","","",""
"","ISI","","html-keyboard-response","107","144466","0.0-1.0-147.0","0","0","15232","","null","","","null","16","NaN","","","","","","","","","","","","","","",""
"","S2","","html-keyboard-response","108","144720","0.0-1.0-148.0","0","0","15232","","null","","","null","16","","NaN","","","","","","","","","","","","","",""
"","response","","html-keyboard-response","109","145156","0.0-1.0-149.0","0","0","15232","","433","","","75","16","","","1","16","training","adjacent","DC","4","3","N.jpg","M.jpg","0","0","1","",""
"","feedback","","html-keyboard-response","110","146159","0.0-1.0-150.0-0.0","0","0","15232","","null","","","null","16","","","","","","","","","","","","","","","",""
"","ITI","","html-keyboard-response","111","147163","0.0-1.0-153.0","0","0","15232","","null","","","null","16","","","","","","","","","","","","","","","NaN",""
"","S1","","html-keyboard-response","112","147417","0.0-1.0-155.0","0","0","15232","","null","","","null","17","","","","","","","","","","","","","","","",""
"","ISI","","html-keyboard-response","113","149420","0.0-1.0-156.0","0","0","15232","","null","","","null","17","NaN","","","","","","","","","","","","","","",""
"","S2","","html-keyboard-response","114","149674","0.0-1.0-157.0","0","0","15232","","null","","","null","17","","NaN","","","","","","","","","","","","","",""
"","response","","html-keyboard-response","115","150539","0.0-1.0-158.0","0","0","15232","","862","","","68","17","","","1","17","training","adjacent","BA","2","1","R.jpg","Q.jpg","1","0","0","",""
"","feedback","","html-keyboard-response","116","151544","0.0-1.0-159.0-0.0","0","0","15232","","null","","","null","17","","","","","","","","","","","","","","","",""
"","time_out","","html-keyboard-response","117","153547","0.0-1.0-161.0-0.0","0","0","15232","","null","","","null","17","","","","","","","","","","","","","","","",""
"","ITI","","html-keyboard-response","118","154564","0.0-1.0-162.0","0","0","15232","","null","","","null","17","","","","","","","","","","","","","","","NaN",""
"","S1","","html-keyboard-response","119","154817","0.0-1.0-164.0","0","0","15232","","null","","","null","18","","","","","","","","","","","","","","","",""
"","ISI","","html-keyboard-response","120","156819","0.0-1.0-165.0","0","0","15232","","null","","","null","18","NaN","","","","","","","","","","","","","","",""
"","S2","","html-keyboard-response","121","157072","0.0-1.0-166.0","0","0","15232","","null","","","null","18","","NaN","","","","","","","","","","","","","",""
"","response","","html-keyboard-response","122","157538","0.0-1.0-167.0","0","0","15232","","463","","","75","18","","","1","18","training","adjacent","GF","7","6","O.jpg","P.jpg","0","0","1","",""
"","feedback","","html-keyboard-response","123","158542","0.0-1.0-168.0-0.0","0","0","15232","","null","","","null","18","","","","","","","","","","","","","","","",""
"","ITI","","html-keyboard-response","124","159546","0.0-1.0-171.0","0","0","15232","","null","","","null","18","","","","","","","","","","","","","","","NaN",""
"","S1","","html-keyboard-response","125","159809","0.0-1.0-173.0","0","0","15232","","null","","","null","19","","","","","","","","","","","","","","","",""
"","ISI","","html-keyboard-response","126","161814","0.0-1.0-174.0","0","0","15232","","null","","","null","19","NaN","","","","","","","","","","","","","","",""
"","S2","","html-keyboard-response","127","162068","0.0-1.0-175.0","0","0","15232","","null","","","null","19","","NaN","","","","","","","","","","","","","",""
"","response","","html-keyboard-response","128","162641","0.0-1.0-176.0","0","0","15232","","570","","","68","19","","","1","19","training","adjacent","BC","2","3","R.jpg","M.jpg","1","1","1","",""
"","feedback","","html-keyboard-response","129","163645","0.0-1.0-177.0-0.0","0","0","15232","","null","","","null","19","","","","","","","","","","","","","","","",""
"","ITI","","html-keyboard-response","130","164649","0.0-1.0-180.0","0","0","15232","","null","","","null","19","","","","","","","","","","","","","","","NaN",""
"","S1","","html-keyboard-response","131","164903","0.0-1.0-182.0","0","0","15232","","null","","","null","20","","","","","","","","","","","","","","","",""
"","ISI","","html-keyboard-response","132","166907","0.0-1.0-183.0","0","0","15232","","null","","","null","20","NaN","","","","","","","","","","","","","","",""
"","S2","","html-keyboard-response","133","167161","0.0-1.0-184.0","0","0","15232","","null","","","null","20","","NaN","","","","","","","","","","","","","",""
"","response","","html-keyboard-response","134","167297","0.0-1.0-185.0","0","0","15232","","134","","","75","20","","","1","20","training","adjacent","DC","4","3","N.jpg","M.jpg","0","0","1","",""
"","feedback","","html-keyboard-response","135","168301","0.0-1.0-186.0-0.0","0","0","15232","","null","","","null","20","","","","","","","","","","","","","","","",""
"","ITI","","html-keyboard-response","136","169305","0.0-1.0-189.0","0","0","15232","","null","","","null","20","","","","","","","","","","","","","","","NaN",""
"","S1","","html-keyboard-response","137","169560","0.0-1.0-191.0","0","0","15232","","null","","","null","21","","","","","","","","","","","","","","","",""
"","ISI","","html-keyboard-response","138","171563","0.0-1.0-192.0","0","0","15232","","null","","","null","21","NaN","","","","","","","","","","","","","","",""
"","S2","","html-keyboard-response","139","171820","0.0-1.0-193.0","0","0","15232","","null","","","null","21","","NaN","","","","","","","","","","","","","",""
"","response","","html-keyboard-response","140","172196","0.0-1.0-194.0","0","0","15232","","373","","","75","21","","","1","21","training","adjacent","DE","4","5","N.jpg","L.jpg","0","1","0","",""
"","feedback","","html-keyboard-response","141","173199","0.0-1.0-195.0-0.0","0","0","15232","","null","","","null","21","","","","","","","","","","","","","","","",""
"","time_out","","html-keyboard-response","142","175203","0.0-1.0-197.0-0.0","0","0","15232","","null","","","null","21","","","","","","","","","","","","","","","",""
"","ITI","","html-keyboard-response","143","176206","0.0-1.0-198.0","0","0","15232","","null","","","null","21","","","","","","","","","","","","","","","NaN",""
"","S1","","html-keyboard-response","144","176461","0.0-1.0-200.0","0","0","15232","","null","","","null","22","","","","","","","","","","","","","","","",""
"","ISI","","html-keyboard-response","145","178465","0.0-1.0-201.0","0","0","15232","","null","","","null","22","NaN","","","","","","","","","","","","","","",""
"","S2","","html-keyboard-response","146","178718","0.0-1.0-202.0","0","0","15232","","null","","","null","22","","NaN","","","","","","","","","","","","","",""
"","response","","html-keyboard-response","147","179127","0.0-1.0-203.0","0","0","15232","","406","","","68","22","","","1","22","training","adjacent","ED","5","4","L.jpg","N.jpg","1","0","0","",""
"","feedback","","html-keyboard-response","148","180131","0.0-1.0-204.0-0.0","0","0","15232","","null","","","null","22","","","","","","","","","","","","","","","",""
"","time_out","","html-keyboard-response","149","182134","0.0-1.0-206.0-0.0","0","0","15232","","null","","","null","22","","","","","","","","","","","","","","","",""
"","ITI","","html-keyboard-response","150","183137","0.0-1.0-207.0","0","0","15232","","null","","","null","22","","","","","","","","","","","","","","","NaN",""
"","S1","","html-keyboard-response","151","183413","0.0-1.0-209.0","0","0","15232","","null","","","null","23","","","","","","","","","","","","","","","",""
"","ISI","","html-keyboard-response","152","185417","0.0-1.0-210.0","0","0","15232","","null","","","null","23","NaN","","","","","","","","","","","","","","",""
"","S2","","html-keyboard-response","153","185672","0.0-1.0-211.0","0","0","15232","","null","","","null","23","","NaN","","","","","","","","","","","","","",""
"","response","","html-keyboard-response","154","186112","0.0-1.0-212.0","0","0","15232","","437","","","68","23","","","1","23","training","adjacent","AB","1","2","Q.jpg","R.jpg","1","1","1","",""
"","feedback","","html-keyboard-response","155","187116","0.0-1.0-213.0-0.0","0","0","15232","","null","","","null","23","","","","","","","","","","","","","","","",""
"","ITI","","html-keyboard-response","156","188118","0.0-1.0-216.0","0","0","15232","","null","","","null","23","","","","","","","","","","","","","","","NaN",""
"","S1","","html-keyboard-response","157","188374","0.0-1.0-218.0","0","0","15232","","null","","","null","24","","","","","","","","","","","","","","","",""
"","ISI","","html-keyboard-response","158","190377","0.0-1.0-219.0","0","0","15232","","null","","","null","24","NaN","","","","","","","","","","","","","","",""
"","S2","","html-keyboard-response","159","190642","0.0-1.0-220.0","0","0","15232","","null","","","null","24","","NaN","","","","","","","","","","","","","",""
"","response","","html-keyboard-response","160","191394","0.0-1.0-221.0","0","0","15232","","749","","","68","24","","","1","24","training","adjacent","FG","6","7","P.jpg","O.jpg","1","1","1","",""
"","feedback","","html-keyboard-response","161","192399","0.0-1.0-222.0-0.0","0","0","15232","","null","","","null","24","","","","","","","","","","","","","","","",""
"","ITI","","html-keyboard-response","162","193402","0.0-1.0-225.0","0","0","15232","","null","","","null","24","","","","","","","","","","","","","","","NaN",""
"","S1","","html-keyboard-response","163","193657","0.0-1.0-227.0","0","0","15232","","null","","","null","25","","","","","","","","","","","","","","","",""
"","ISI","","html-keyboard-response","164","195660","0.0-1.0-228.0","0","0","15232","","null","","","null","25","NaN","","","","","","","","","","","","","","",""
"","S2","","html-keyboard-response","165","195915","0.0-1.0-229.0","0","0","15232","","null","","","null","25","","NaN","","","","","","","","","","","","","",""
"","response","","html-keyboard-response","166","196934","0.0-1.0-230.0","0","0","15232","","1016","","","75","25","","","1","25","training","adjacent","AB","1","2","Q.jpg","R.jpg","0","1","0","",""
"","feedback","","html-keyboard-response","167","197938","0.0-1.0-231.0-0.0","0","0","15232","","null","","","null","25","","","","","","","","","","","","","","","",""
"","time_out","","html-keyboard-response","168","199941","0.0-1.0-233.0-0.0","0","0","15232","","null","","","null","25","","","","","","","","","","","","","","","",""
"","ITI","","html-keyboard-response","169","200944","0.0-1.0-234.0","0","0","15232","","null","","","null","25","","","","","","","","","","","","","","","NaN",""
"","S1","","html-keyboard-response","170","201198","0.0-1.0-236.0","0","0","15232","","null","","","null","26","","","","","","","","","","","","","","","",""
"","ISI","","html-keyboard-response","171","203201","0.0-1.0-237.0","0","0","15232","","null","","","null","26","NaN","","","","","","","","","","","","","","",""
"","S2","","html-keyboard-response","172","203454","0.0-1.0-238.0","0","0","15232","","null","","","null","26","","NaN","","","","","","","","","","","","","",""
"","response","","html-keyboard-response","173","203711","0.0-1.0-239.0","0","0","15232","","255","","","75","26","","","1","26","training","adjacent","DE","4","5","N.jpg","L.jpg","0","1","0","",""
"","feedback","","html-keyboard-response","174","204716","0.0-1.0-240.0-0.0","0","0","15232","","null","","","null","26","","","","","","","","","","","","","","","",""
"","time_out","","html-keyboard-response","175","206719","0.0-1.0-242.0-0.0","0","0","15232","","null","","","null","26","","","","","","","","","","","","","","","",""
"","ITI","","html-keyboard-response","176","207723","0.0-1.0-243.0","0","0","15232","","null","","","null","26","","","","","","","","","","","","","","","NaN",""
"","S1","","html-keyboard-response","177","207978","0.0-1.0-245.0","0","0","15232","","null","","","null","27","","","","","","","","","","","","","","","",""
"","ISI","","html-keyboard-response","178","209981","0.0-1.0-246.0","0","0","15232","","null","","","null","27","NaN","","","","","","","","","","","","","","",""
"","S2","","html-keyboard-response","179","210235","0.0-1.0-247.0","0","0","15232","","null","","","null","27","","NaN","","","","","","","","","","","","","",""
"","response","","html-keyboard-response","180","210546","0.0-1.0-248.0","0","0","15232","","308","","","68","27","","","1","27","training","adjacent","FG","6","7","P.jpg","O.jpg","1","1","1","",""
"","feedback","","html-keyboard-response","181","211549","0.0-1.0-249.0-0.0","0","0","15232","","null","","","null","27","","","","","","","","","","","","","","","",""
"","ITI","","html-keyboard-response","182","212553","0.0-1.0-252.0","0","0","15232","","null","","","null","27","","","","","","","","","","","","","","","NaN",""
"","S1","","html-keyboard-response","183","212808","0.0-1.0-254.0","0","0","15232","","null","","","null","28","","","","","","","","","","","","","","","",""
"","ISI","","html-keyboard-response","184","214811","0.0-1.0-255.0","0","0","15232","","null","","","null","28","NaN","","","","","","","","","","","","","","",""
"","S2","","html-keyboard-response","185","215066","0.0-1.0-256.0","0","0","15232","","null","","","null","28","","NaN","","","","","","","","","","","","","",""
"","response","","html-keyboard-response","186","215383","0.0-1.0-257.0","0","0","15232","","313","","","68","28","","","1","28","training","adjacent","FG","6","7","P.jpg","O.jpg","1","1","1","",""
"","feedback","","html-keyboard-response","187","216388","0.0-1.0-258.0-0.0","0","0","15232","","null","","","null","28","","","","","","","","","","","","","","","",""
"","ITI","","html-keyboard-response","188","217392","0.0-1.0-261.0","0","0","15232","","null","","","null","28","","","","","","","","","","","","","","","NaN",""
"","S1","","html-keyboard-response","189","217647","0.0-1.0-263.0","0","0","15232","","null","","","null","29","","","","","","","","","","","","","","","",""
"","ISI","","html-keyboard-response","190","219650","0.0-1.0-264.0","0","0","15232","","null","","","null","29","NaN","","","","","","","","","","","","","","",""
"","S2","","html-keyboard-response","191","219905","0.0-1.0-265.0","0","0","15232","","null","","","null","29","","NaN","","","","","","","","","","","","","",""
"","response","","html-keyboard-response","192","220309","0.0-1.0-266.0","0","0","15232","","402","","","68","29","","","1","29","training","adjacent","CB","3","2","M.jpg","R.jpg","1","0","0","",""
"","feedback","","html-keyboard-response","193","221346","0.0-1.0-267.0-0.0","0","0","15232","","null","","","null","29","","","","","","","","","","","","","","","",""
"","time_out","","html-keyboard-response","194","223351","0.0-1.0-269.0-0.0","0","0","15232","","null","","","null","29","","","","","","","","","","","","","","","",""
"","ITI","","html-keyboard-response","195","224355","0.0-1.0-270.0","0","0","15232","","null","","","null","29","","","","","","","","","","","","","","","NaN",""
"","S1","","html-keyboard-response","196","224610","0.0-1.0-272.0","0","0","15232","","null","","","null","30","","","","","","","","","","","","","","","",""
"","ISI","","html-keyboard-response","197","226614","0.0-1.0-273.0","0","0","15232","","null","","","null","30","NaN","","","","","","","","","","","","","","",""
"","S2","","html-keyboard-response","198","226867","0.0-1.0-274.0","0","0","15232","","null","","","null","30","","NaN","","","","","","","","","","","","","",""
"","response","","html-keyboard-response","199","227576","0.0-1.0-275.0","0","0","15232","","706","","","68","30","","","1","30","training","adjacent","BC","2","3","R.jpg","M.jpg","1","1","1","",""
"","feedback","","html-keyboard-response","200","228580","0.0-1.0-276.0-0.0","0","0","15232","","null","","","null","30","","","","","","","","","","","","","","","",""
"","ITI","","html-keyboard-response","201","229584","0.0-1.0-279.0","0","0","15232","","null","","","null","30","","","","","","","","","","","","","","","NaN",""
"","S1","","html-keyboard-response","202","229838","0.0-1.0-281.0","0","0","15232","","null","","","null","31","","","","","","","","","","","","","","","",""
"","ISI","","html-keyboard-response","203","231841","0.0-1.0-282.0","0","0","15232","","null","","","null","31","NaN","","","","","","","","","","","","","","",""
"","S2","","html-keyboard-response","204","232095","0.0-1.0-283.0","0","0","15232","","null","","","null","31","","NaN","","","","","","","","","","","","","",""
"","response","","html-keyboard-response","205","232805","0.0-1.0-284.0","0","0","15232","","707","","","68","31","","","1","31","training","adjacent","GF","7","6","O.jpg","P.jpg","1","0","0","",""
"","feedback","","html-keyboard-response","206","233815","0.0-1.0-285.0-0.0","0","0","15232","","null","","","null","31","","","","","","","","","","","","","","","",""
"","time_out","","html-keyboard-response","207","235820","0.0-1.0-287.0-0.0","0","0","15232","","null","","","null","31","","","","","","","","","","","","","","","",""
"","ITI","","html-keyboard-response","208","236825","0.0-1.0-288.0","0","0","15232","","null","","","null","31","","","","","","","","","","","","","","","NaN",""
"","S1","","html-keyboard-response","209","237079","0.0-1.0-290.0","0","0","15232","","null","","","null","32","","","","","","","","","","","","","","","",""
"","ISI","","html-keyboard-response","210","239083","0.0-1.0-291.0","0","0","15232","","null","","","null","32","NaN","","","","","","","","","","","","","","",""
"","S2","","html-keyboard-response","211","239336","0.0-1.0-292.0","0","0","15232","","null","","","null","32","","NaN","","","","","","","","","","","","","",""
"","response","","html-keyboard-response","212","239966","0.0-1.0-293.0","0","0","15232","","627","","","68","32","","","1","32","training","adjacent","CD","3","4","M.jpg","N.jpg","1","1","1","",""
"","feedback","","html-keyboard-response","213","240970","0.0-1.0-294.0-0.0","0","0","15232","","null","","","null","32","","","","","","","","","","","","","","","",""
"","ITI","","html-keyboard-response","214","241973","0.0-1.0-297.0","0","0","15232","","null","","","null","32","","","","","","","","","","","","","","","NaN",""
"","S1","","html-keyboard-response","215","242227","0.0-1.0-299.0","0","0","15232","","null","","","null","33","","","","","","","","","","","","","","","",""
"","ISI","","html-keyboard-response","216","244230","0.0-1.0-300.0","0","0","15232","","null","","","null","33","NaN","","","","","","","","","","","","","","",""
"","S2","","html-keyboard-response","217","244483","0.0-1.0-301.0","0","0","15232","","null","","","null","33","","NaN","","","","","","","","","","","","","",""
"","response","","html-keyboard-response","218","244750","0.0-1.0-302.0","0","0","15232","","264","","","68","33","","","1","33","training","adjacent","ED","5","4","L.jpg","N.jpg","1","0","0","",""
"","feedback","","html-keyboard-response","219","245753","0.0-1.0-303.0-0.0","0","0","15232","","null","","","null","33","","","","","","","","","","","","","","","",""
"","time_out","","html-keyboard-response","220","247757","0.0-1.0-305.0-0.0","0","0","15232","","null","","","null","33","","","","","","","","","","","","","","","",""
"","ITI","","html-keyboard-response","221","248761","0.0-1.0-306.0","0","0","15232","","null","","","null","33","","","","","","","","","","","","","","","NaN",""
"","S1","","html-keyboard-response","222","249015","0.0-1.0-308.0","0","0","15232","","null","","","null","34","","","","","","","","","","","","","","","",""
"","ISI","","html-keyboard-response","223","251018","0.0-1.0-309.0","0","0","15232","","null","","","null","34","NaN","","","","","","","","","","","","","","",""
"","S2","","html-keyboard-response","224","251274","0.0-1.0-310.0","0","0","15232","","null","","","null","34","","NaN","","","","","","","","","","","","","",""
"","response","","html-keyboard-response","225","251448","0.0-1.0-311.0","0","0","15232","","171","","","75","34","","","1","34","training","adjacent","DE","4","5","N.jpg","L.jpg","0","1","0","",""
"","feedback","","html-keyboard-response","226","252452","0.0-1.0-312.0-0.0","0","0","15232","","null","","","null","34","","","","","","","","","","","","","","","",""
"","time_out","","html-keyboard-response","227","254456","0.0-1.0-314.0-0.0","0","0","15232","","null","","","null","34","","","","","","","","","","","","","","","",""
"","ITI","","html-keyboard-response","228","255460","0.0-1.0-315.0","0","0","15232","","null","","","null","34","","","","","","","","","","","","","","","NaN",""
"","S1","","html-keyboard-response","229","255713","0.0-1.0-317.0","0","0","15232","","null","","","null","35","","","","","","","","","","","","","","","",""
"","ISI","","html-keyboard-response","230","257717","0.0-1.0-318.0","0","0","15232","","null","","","null","35","NaN","","","","","","","","","","","","","","",""
"","S2","","html-keyboard-response","231","257977","0.0-1.0-319.0","0","0","15232","","null","","","null","35","","NaN","","","","","","","","","","","","","",""
"","response","","html-keyboard-response","232","258767","0.0-1.0-320.0","0","0","15232","","787","","","68","35","","","1","35","training","adjacent","EF","5","6","L.jpg","P.jpg","1","1","1","",""
"","feedback","","html-keyboard-response","233","259779","0.0-1.0-321.0-0.0","0","0","15232","","null","","","null","35","","","","","","","","","","","","","","","",""
"","ITI","","html-keyboard-response","234","260783","0.0-1.0-324.0","0","0","15232","","null","","","null","35","","","","","","","","","","","","","","","NaN",""
"","S1","","html-keyboard-response","235","261038","0.0-1.0-326.0","0","0","15232","","null","","","null","36","","","","","","","","","","","","","","","",""
"","ISI","","html-keyboard-response","236","263041","0.0-1.0-327.0","0","0","15232","","null","","","null","36","NaN","","","","","","","","","","","","","","",""
"","S2","","html-keyboard-response","237","263296","0.0-1.0-328.0","0","0","15232","","null","","","null","36","","NaN","","","","","","","","","","","","","",""
"","response","","html-keyboard-response","238","263873","0.0-1.0-329.0","0","0","15232","","574","","","68","36","","","1","36","training","adjacent","FG","6","7","P.jpg","O.jpg","1","1","1","",""
"","feedback","","html-keyboard-response","239","264877","0.0-1.0-330.0-0.0","0","0","15232","","null","","","null","36","","","","","","","","","","","","","","","",""
"","ITI","","html-keyboard-response","240","265880","0.0-1.0-333.0","0","0","15232","","null","","","null","36","","","","","","","","","","","","","","","NaN",""
"","S1","","html-keyboard-response","241","266134","0.0-1.0-335.0","0","0","15232","","null","","","null","37","","","","","","","","","","","","","","","",""
"","ISI","","html-keyboard-response","242","268137","0.0-1.0-336.0","0","0","15232","","null","","","null","37","NaN","","","","","","","","","","","","","","",""
"","S2","","html-keyboard-response","243","268391","0.0-1.0-337.0","0","0","15232","","null","","","null","37","","NaN","","","","","","","","","","","","","",""
"","response","","html-keyboard-response","244","268716","0.0-1.0-338.0","0","0","15232","","321","","","75","37","","","1","37","training","adjacent","CB","3","2","M.jpg","R.jpg","0","0","1","",""
"","feedback","","html-keyboard-response","245","269721","0.0-1.0-339.0-0.0","0","0","15232","","null","","","null","37","","","","","","","","","","","","","","","",""
"","ITI","","html-keyboard-response","246","270725","0.0-1.0-342.0","0","0","15232","","null","","","null","37","","","","","","","","","","","","","","","NaN",""
"","S1","","html-keyboard-response","247","270979","0.0-1.0-344.0","0","0","15232","","null","","","null","38","","","","","","","","","","","","","","","",""
"","ISI","","html-keyboard-response","248","272981","0.0-1.0-345.0","0","0","15232","","null","","","null","38","NaN","","","","","","","","","","","","","","",""
"","S2","","html-keyboard-response","249","273256","0.0-1.0-346.0","0","0","15232","","null","","","null","38","","NaN","","","","","","","","","","","","","",""
"","response","","html-keyboard-response","250","274014","0.0-1.0-347.0","0","0","15232","","755","","","68","38","","","1","38","training","adjacent","FE","6","5","P.jpg","L.jpg","1","0","0","",""
"","feedback","","html-keyboard-response","251","275020","0.0-1.0-348.0-0.0","0","0","15232","","null","","","null","38","","","","","","","","","","","","","","","",""
"","time_out","","html-keyboard-response","252","277025","0.0-1.0-350.0-0.0","0","0","15232","","null","","","null","38","","","","","","","","","","","","","","","",""
"","ITI","","html-keyboard-response","253","278030","0.0-1.0-351.0","0","0","15232","","null","","","null","38","","","","","","","","","","","","","","","NaN",""
"","S1","","html-keyboard-response","254","278285","0.0-1.0-353.0","0","0","15232","","null","","","null","39","","","","","","","","","","","","","","","",""
"","ISI","","html-keyboard-response","255","280289","0.0-1.0-354.0","0","0","15232","","null","","","null","39","NaN","","","","","","","","","","","","","","",""
"","S2","","html-keyboard-response","256","280544","0.0-1.0-355.0","0","0","15232","","null","","","null","39","","NaN","","","","","","","","","","","","","",""
"","response","","html-keyboard-response","257","280855","0.0-1.0-356.0","0","0","15232","","308","","","68","39","","","1","39","training","adjacent","BC","2","3","R.jpg","M.jpg","1","1","1","",""
"","feedback","","html-keyboard-response","258","281860","0.0-1.0-357.0-0.0","0","0","15232","","null","","","null","39","","","","","","","","","","","","","","","",""
"","ITI","","html-keyboard-response","259","282864","0.0-1.0-360.0","0","0","15232","","null","","","null","39","","","","","","","","","","","","","","","NaN",""
"","S1","","html-keyboard-response","260","283118","0.0-1.0-362.0","0","0","15232","","null","","","null","40","","","","","","","","","","","","","","","",""
"","ISI","","html-keyboard-response","261","285124","0.0-1.0-363.0","0","0","15232","","null","","","null","40","NaN","","","","","","","","","","","","","","",""
"","S2","","html-keyboard-response","262","285378","0.0-1.0-364.0","0","0","15232","","null","","","null","40","","NaN","","","","","","","","","","","","","",""
"","response","","html-keyboard-response","263","285692","0.0-1.0-365.0","0","0","15232","","311","","","68","40","","","1","40","training","adjacent","BA","2","1","R.jpg","Q.jpg","1","0","0","",""
"","feedback","","html-keyboard-response","264","286696","0.0-1.0-366.0-0.0","0","0","15232","","null","","","null","40","","","","","","","","","","","","","","","",""
"","time_out","","html-keyboard-response","265","288700","0.0-1.0-368.0-0.0","0","0","15232","","null","","","null","40","","","","","","","","","","","","","","","",""
"","ITI","","html-keyboard-response","266","289703","0.0-1.0-369.0","0","0","15232","","null","","","null","40","","","","","","","","","","","","","","","NaN",""
"","S1","","html-keyboard-response","267","289956","0.0-1.0-371.0","0","0","15232","","null","","","null","41","","","","","","","","","","","","","","","",""
"","ISI","","html-keyboard-response","268","291959","0.0-1.0-372.0","0","0","15232","","null","","","null","41","NaN","","","","","","","","","","","","","","",""
"","S2","","html-keyboard-response","269","292212","0.0-1.0-373.0","0","0","15232","","null","","","null","41","","NaN","","","","","","","","","","","","","",""
"","response","","html-keyboard-response","270","292895","0.0-1.0-374.0","0","0","15232","","680","","","68","41","","","1","41","training","adjacent","CD","3","4","M.jpg","N.jpg","1","1","1","",""
"","feedback","","html-keyboard-response","271","293899","0.0-1.0-375.0-0.0","0","0","15232","","null","","","null","41","","","","","","","","","","","","","","","",""
"","ITI","","html-keyboard-response","272","294903","0.0-1.0-378.0","0","0","15232","","null","","","null","41","","","","","","","","","","","","","","","NaN",""
"","S1","","html-keyboard-response","273","295156","0.0-1.0-380.0","0","0","15232","","null","","","null","42","","","","","","","","","","","","","","","",""
"","ISI","","html-keyboard-response","274","297159","0.0-1.0-381.0","0","0","15232","","null","","","null","42","NaN","","","","","","","","","","","","","","",""
"","S2","","html-keyboard-response","275","297413","0.0-1.0-382.0","0","0","15232","","null","","","null","42","","NaN","","","","","","","","","","","","","",""
"","response","","html-keyboard-response","276","298201","0.0-1.0-383.0","0","0","15232","","786","","","68","42","","","1","42","training","adjacent","DE","4","5","N.jpg","L.jpg","1","1","1","",""
"","feedback","","html-keyboard-response","277","299205","0.0-1.0-384.0-0.0","0","0","15232","","null","","","null","42","","","","","","","","","","","","","","","",""
"","ITI","","html-keyboard-response","278","300208","0.0-1.0-387.0","0","0","15232","","null","","","null","42","","","","","","","","","","","","","","","NaN",""
"","S1","","html-keyboard-response","279","300473","0.0-1.0-389.0","0","0","15232","","null","","","null","43","","","","","","","","","","","","","","","",""
"","ISI","","html-keyboard-response","280","302476","0.0-1.0-390.0","0","0","15232","","null","","","null","43","NaN","","","","","","","","","","","","","","",""
"","S2","","html-keyboard-response","281","302731","0.0-1.0-391.0","0","0","15232","","null","","","null","43","","NaN","","","","","","","","","","","","","",""
"","response","","html-keyboard-response","282","303577","0.0-1.0-392.0","0","0","15232","","844","","","68","43","","","1","43","training","adjacent","DC","4","3","N.jpg","M.jpg","1","0","0","",""
"","feedback","","html-keyboard-response","283","304580","0.0-1.0-393.0-0.0","0","0","15232","","null","","","null","43","","","","","","","","","","","","","","","",""
"","time_out","","html-keyboard-response","284","306584","0.0-1.0-395.0-0.0","0","0","15232","","null","","","null","43","","","","","","","","","","","","","","","",""
"","ITI","","html-keyboard-response","285","307587","0.0-1.0-396.0","0","0","15232","","null","","","null","43","","","","","","","","","","","","","","","NaN",""
"","S1","","html-keyboard-response","286","307840","0.0-1.0-398.0","0","0","15232","","null","","","null","44","","","","","","","","","","","","","","","",""
"","ISI","","html-keyboard-response","287","309843","0.0-1.0-399.0","0","0","15232","","null","","","null","44","NaN","","","","","","","","","","","","","","",""
"","S2","","html-keyboard-response","288","310097","0.0-1.0-400.0","0","0","15232","","null","","","null","44","","NaN","","","","","","","","","","","","","",""
"","response","","html-keyboard-response","289","310665","0.0-1.0-401.0","0","0","15232","","565","","","68","44","","","1","44","training","adjacent","EF","5","6","L.jpg","P.jpg","1","1","1","",""
"","feedback","","html-keyboard-response","290","311669","0.0-1.0-402.0-0.0","0","0","15232","","null","","","null","44","","","","","","","","","","","","","","","",""
"","ITI","","html-keyboard-response","291","312672","0.0-1.0-405.0","0","0","15232","","null","","","null","44","","","","","","","","","","","","","","","NaN",""
"","S1","","html-keyboard-response","292","312925","0.0-1.0-407.0","0","0","15232","","null","","","null","45","","","","","","","","","","","","","","","",""
"","ISI","","html-keyboard-response","293","314929","0.0-1.0-408.0","0","0","15232","","null","","","null","45","NaN","","","","","","","","","","","","","","",""
"","S2","","html-keyboard-response","294","315184","0.0-1.0-409.0","0","0","15232","","null","","","null","45","","NaN","","","","","","","","","","","","","",""
"","response","","html-keyboard-response","295","316063","0.0-1.0-410.0","0","0","15232","","877","","","75","45","","","1","45","training","adjacent","ED","5","4","L.jpg","N.jpg","0","0","1","",""
"","feedback","","html-keyboard-response","296","317066","0.0-1.0-411.0-0.0","0","0","15232","","null","","","null","45","","","","","","","","","","","","","","","",""
"","ITI","","html-keyboard-response","297","318070","0.0-1.0-414.0","0","0","15232","","null","","","null","45","","","","","","","","","","","","","","","NaN",""
"","S1","","html-keyboard-response","298","318325","0.0-1.0-416.0","0","0","15232","","null","","","null","46","","","","","","","","","","","","","","","",""
"","ISI","","html-keyboard-response","299","320328","0.0-1.0-417.0","0","0","15232","","null","","","null","46","NaN","","","","","","","","","","","","","","",""
"","S2","","html-keyboard-response","300","320584","0.0-1.0-418.0","0","0","15232","","null","","","null","46","","NaN","","","","","","","","","","","","","",""
"","response","","html-keyboard-response","301","320940","0.0-1.0-419.0","0","0","15232","","353","","","75","46","","","1","46","training","adjacent","CB","3","2","M.jpg","R.jpg","0","0","1","",""
"","feedback","","html-keyboard-response","302","321943","0.0-1.0-420.0-0.0","0","0","15232","","null","","","null","46","","","","","","","","","","","","","","","",""
"","ITI","","html-keyboard-response","303","322948","0.0-1.0-423.0","0","0","15232","","null","","","null","46","","","","","","","","","","","","","","","NaN",""
"","S1","","html-keyboard-response","304","323202","0.0-1.0-425.0","0","0","15232","","null","","","null","47","","","","","","","","","","","","","","","",""
"","ISI","","html-keyboard-response","305","325205","0.0-1.0-426.0","0","0","15232","","null","","","null","47","NaN","","","","","","","","","","","","","","",""
"","S2","","html-keyboard-response","306","325459","0.0-1.0-427.0","0","0","15232","","null","","","null","47","","NaN","","","","","","","","","","","","","",""
"","response","","html-keyboard-response","307","326342","0.0-1.0-428.0","0","0","15232","","880","","","75","47","","","1","47","training","adjacent","FE","6","5","P.jpg","L.jpg","0","0","1","",""
"","feedback","","html-keyboard-response","308","327347","0.0-1.0-429.0-0.0","0","0","15232","","null","","","null","47","","","","","","","","","","","","","","","",""
"","ITI","","html-keyboard-response","309","328351","0.0-1.0-432.0","0","0","15232","","null","","","null","47","","","","","","","","","","","","","","","NaN",""
"","block_over","","html-keyboard-response","310","342867","0.0-1.0-433.0-0.0","0","0","15232","","14513","","","32","47","","","","","","","","","","","","","","","",""
"","S1","","html-keyboard-response","311","343122","0.0-1.0-434.0","0","0","15232","","null","","","null","48","","","","","","","","","","","","","","","",""
"","ISI","","html-keyboard-response","312","345125","0.0-1.0-435.0","0","0","15232","","null","","","null","48","NaN","","","","","","","","","","","","","","",""
"","S2","","html-keyboard-response","313","345378","0.0-1.0-436.0","0","0","15232","","null","","","null","48","","NaN","","","","","","","","","","","","","",""
"","response","","html-keyboard-response","314","345830","0.0-1.0-437.0","0","0","15232","","449","","","68","48","","","2","48","training","adjacent","GF","7","6","O.jpg","P.jpg","1","0","0","",""
"","feedback","","html-keyboard-response","315","346838","0.0-1.0-438.0-0.0","0","0","15232","","null","","","null","48","","","","","","","","","","","","","","","",""
"","time_out","","html-keyboard-response","316","348842","0.0-1.0-440.0-0.0","0","0","15232","","null","","","null","48","","","","","","","","","","","","","","","",""
"","ITI","","html-keyboard-response","317","349847","0.0-1.0-441.0","0","0","15232","","null","","","null","48","","","","","","","","","","","","","","","NaN",""
"","S1","","html-keyboard-response","318","350100","0.0-1.0-443.0","0","0","15232","","null","","","null","49","","","","","","","","","","","","","","","",""
"","ISI","","html-keyboard-response","319","352103","0.0-1.0-444.0","0","0","15232","","null","","","null","49","NaN","","","","","","","","","","","","","","",""
"","S2","","html-keyboard-response","320","352357","0.0-1.0-445.0","0","0","15232","","null","","","null","49","","NaN","","","","","","","","","","","","","",""
"","response","","html-keyboard-response","321","352766","0.0-1.0-446.0","0","0","15232","","407","","","75","49","","","2","49","training","adjacent","FE","6","5","P.jpg","L.jpg","0","0","1","",""
"","feedback","","html-keyboard-response","322","353771","0.0-1.0-447.0-0.0","0","0","15232","","null","","","null","49","","","","","","","","","","","","","","","",""
"","ITI","","html-keyboard-response","323","354774","0.0-1.0-450.0","0","0","15232","","null","","","null","49","","","","","","","","","","","","","","","NaN",""
"","S1","","html-keyboard-response","324","355027","0.0-1.0-452.0","0","0","15232","","null","","","null","50","","","","","","","","","","","","","","","",""
"","ISI","","html-keyboard-response","325","357031","0.0-1.0-453.0","0","0","15232","","null","","","null","50","NaN","","","","","","","","","","","","","","",""
"","S2","","html-keyboard-response","326","357284","0.0-1.0-454.0","0","0","15232","","null","","","null","50","","NaN","","","","","","","","","","","","","",""
"","response","","html-keyboard-response","327","357790","0.0-1.0-455.0","0","0","15232","","503","","","75","50","","","2","50","training","adjacent","CB","3","2","M.jpg","R.jpg","0","0","1","",""
"","feedback","","html-keyboard-response","328","358796","0.0-1.0-456.0-0.0","0","0","15232","","null","","","null","50","","","","","","","","","","","","","","","",""
"","ITI","","html-keyboard-response","329","359804","0.0-1.0-459.0","0","0","15232","","null","","","null","50","","","","","","","","","","","","","","","NaN",""
"","S1","","html-keyboard-response","330","360062","0.0-1.0-461.0","0","0","15232","","null","","","null","51","","","","","","","","","","","","","","","",""
"","ISI","","html-keyboard-response","331","362066","0.0-1.0-462.0","0","0","15232","","null","","","null","51","NaN","","","","","","","","","","","","","","",""
"","S2","","html-keyboard-response","332","362320","0.0-1.0-463.0","0","0","15232","","null","","","null","51","","NaN","","","","","","","","","","","","","",""
"","response","","html-keyboard-response","333","364291","0.0-1.0-464.0","0","0","15232","","1969","","","75","51","","","2","51","training","adjacent","GF","7","6","O.jpg","P.jpg","0","0","1","",""
"","feedback","","html-keyboard-response","334","365296","0.0-1.0-465.0-0.0","0","0","15232","","null","","","null","51","","","","","","","","","","","","","","","",""
"","ITI","","html-keyboard-response","335","366300","0.0-1.0-468.0","0","0","15232","","null","","","null","51","","","","","","","","","","","","","","","NaN",""
"","S1","","html-keyboard-response","336","366554","0.0-1.0-470.0","0","0","15232","","null","","","null","52","","","","","","","","","","","","","","","",""
"","ISI","","html-keyboard-response","337","368557","0.0-1.0-471.0","0","0","15232","","null","","","null","52","NaN","","","","","","","","","","","","","","",""
"","S2","","html-keyboard-response","338","368811","0.0-1.0-472.0","0","0","15232","","null","","","null","52","","NaN","","","","","","","","","","","","","",""
"","response","","html-keyboard-response","339","369573","0.0-1.0-473.0","0","0","15232","","760","","","68","52","","","2","52","training","adjacent","EF","5","6","L.jpg","P.jpg","1","1","1","",""
"","feedback","","html-keyboard-response","340","370578","0.0-1.0-474.0-0.0","0","0","15232","","null","","","null","52","","","","","","","","","","","","","","","",""
"","ITI","","html-keyboard-response","341","371582","0.0-1.0-477.0","0","0","15232","","null","","","null","52","","","","","","","","","","","","","","","NaN",""
"","S1","","html-keyboard-response","342","371836","0.0-1.0-479.0","0","0","15232","","null","","","null","53","","","","","","","","","","","","","","","",""
"","ISI","","html-keyboard-response","343","373839","0.0-1.0-480.0","0","0","15232","","null","","","null","53","NaN","","","","","","","","","","","","","","",""
"","S2","","html-keyboard-response","344","374092","0.0-1.0-481.0","0","0","15232","","null","","","null","53","","NaN","","","","","","","","","","","","","",""
"","response","","html-keyboard-response","345","374746","0.0-1.0-482.0","0","0","15232","","651","","","68","53","","","2","53","training","adjacent","ED","5","4","L.jpg","N.jpg","1","0","0","",""
"","feedback","","html-keyboard-response","346","375749","0.0-1.0-483.0-0.0","0","0","15232","","null","","","null","53","","","","","","","","","","","","","","","",""
"","time_out","","html-keyboard-response","347","377753","0.0-1.0-485.0-0.0","0","0","15232","","null","","","null","53","","","","","","","","","","","","","","","",""
"","ITI","","html-keyboard-response","348","378757","0.0-1.0-486.0","0","0","15232","","null","","","null","53","","","","","","","","","","","","","","","NaN",""
"","S1","","html-keyboard-response","349","379010","0.0-1.0-488.0","0","0","15232","","null","","","null","54","","","","","","","","","","","","","","","",""
"","ISI","","html-keyboard-response","350","381013","0.0-1.0-489.0","0","0","15232","","null","","","null","54","NaN","","","","","","","","","","","","","","",""
"","S2","","html-keyboard-response","351","381266","0.0-1.0-490.0","0","0","15232","","null","","","null","54","","NaN","","","","","","","","","","","","","",""
"","response","","html-keyboard-response","352","381457","0.0-1.0-491.0","0","0","15232","","188","","","68","54","","","2","54","training","adjacent","BC","2","3","R.jpg","M.jpg","1","1","1","",""
"","feedback","","html-keyboard-response","353","382461","0.0-1.0-492.0-0.0","0","0","15232","","null","","","null","54","","","","","","","","","","","","","","","",""
"","ITI","","html-keyboard-response","354","383465","0.0-1.0-495.0","0","0","15232","","null","","","null","54","","","","","","","","","","","","","","","NaN",""
"","S1","","html-keyboard-response","355","383719","0.0-1.0-497.0","0","0","15232","","null","","","null","55","","","","","","","","","","","","","","","",""
"","ISI","","html-keyboard-response","356","385723","0.0-1.0-498.0","0","0","15232","","null","","","null","55","NaN","","","","","","","","","","","","","","",""
"","S2","","html-keyboard-response","357","385977","0.0-1.0-499.0","0","0","15232","","null","","","null","55","","NaN","","","","","","","","","","","","","",""
"","response","","html-keyboard-response","358","387315","0.0-1.0-500.0","0","0","15232","","1334","","","68","55","","","2","55","training","adjacent","CD","3","4","M.jpg","N.jpg","1","1","1","",""
"","feedback","","html-keyboard-response","359","388319","0.0-1.0-501.0-0.0","0","0","15232","","null","","","null","55","","","","","","","","","","","","","","","",""
"","ITI","","html-keyboard-response","360","389322","0.0-1.0-504.0","0","0","15232","","null","","","null","55","","","","","","","","","","","","","","","NaN",""
"","S1","","html-keyboard-response","361","389575","0.0-1.0-506.0","0","0","15232","","null","","","null","56","","","","","","","","","","","","","","","",""
"","ISI","","html-keyboard-response","362","391579","0.0-1.0-507.0","0","0","15232","","null","","","null","56","NaN","","","","","","","","","","","","","","",""
"","S2","","html-keyboard-response","363","391834","0.0-1.0-508.0","0","0","15232","","null","","","null","56","","NaN","","","","","","","","","","","","","",""
"","response","","html-keyboard-response","364","392537","0.0-1.0-509.0","0","0","15232","","700","","","75","56","","","2","56","training","adjacent","BA","2","1","R.jpg","Q.jpg","0","0","1","",""
"","feedback","","html-keyboard-response","365","393542","0.0-1.0-510.0-0.0","0","0","15232","","null","","","null","56","","","","","","","","","","","","","","","",""
"","ITI","","html-keyboard-response","366","394546","0.0-1.0-513.0","0","0","15232","","null","","","null","56","","","","","","","","","","","","","","","NaN",""
"","S1","","html-keyboard-response","367","394801","0.0-1.0-515.0","0","0","15232","","null","","","null","57","","","","","","","","","","","","","","","",""
"","ISI","","html-keyboard-response","368","396806","0.0-1.0-516.0","0","0","15232","","null","","","null","57","NaN","","","","","","","","","","","","","","",""
"","S2","","html-keyboard-response","369","397060","0.0-1.0-517.0","0","0","15232","","null","","","null","57","","NaN","","","","","","","","","","","","","",""
"","response","","html-keyboard-response","370","397516","0.0-1.0-518.0","0","0","15232","","453","","","68","57","","","2","57","training","adjacent","FG","6","7","P.jpg","O.jpg","1","1","1","",""
"","feedback","","html-keyboard-response","371","398521","0.0-1.0-519.0-0.0","0","0","15232","","null","","","null","57","","","","","","","","","","","","","","","",""
"","ITI","","html-keyboard-response","372","399525","0.0-1.0-522.0","0","0","15232","","null","","","null","57","","","","","","","","","","","","","","","NaN",""
"","S1","","html-keyboard-response","373","399780","0.0-1.0-524.0","0","0","15232","","null","","","null","58","","","","","","","","","","","","","","","",""
"","ISI","","html-keyboard-response","374","401783","0.0-1.0-525.0","0","0","15232","","null","","","null","58","NaN","","","","","","","","","","","","","","",""
"","S2","","html-keyboard-response","375","402037","0.0-1.0-526.0","0","0","15232","","null","","","null","58","","NaN","","","","","","","","","","","","","",""
"","response","","html-keyboard-response","376","402584","0.0-1.0-527.0","0","0","15232","","545","","","68","58","","","2","58","training","adjacent","DC","4","3","N.jpg","M.jpg","1","0","0","",""
"","feedback","","html-keyboard-response","377","403590","0.0-1.0-528.0-0.0","0","0","15232","","null","","","null","58","","","","","","","","","","","","","","","",""
"","time_out","","html-keyboard-response","378","405593","0.0-1.0-530.0-0.0","0","0","15232","","null","","","null","58","","","","","","","","","","","","","","","",""
"","ITI","","html-keyboard-response","379","406597","0.0-1.0-531.0","0","0","15232","","null","","","null","58","","","","","","","","","","","","","","","NaN",""
"","S1","","html-keyboard-response","380","406851","0.0-1.0-533.0","0","0","15232","","null","","","null","59","","","","","","","","","","","","","","","",""
"","ISI","","html-keyboard-response","381","408853","0.0-1.0-534.0","0","0","15232","","null","","","null","59","NaN","","","","","","","","","","","","","","",""
"","S2","","html-keyboard-response","382","409107","0.0-1.0-535.0","0","0","15232","","null","","","null","59","","NaN","","","","","","","","","","","","","",""
"","response","","html-keyboard-response","383","409410","0.0-1.0-536.0","0","0","15232","","300","","","68","59","","","2","59","training","adjacent","DC","4","3","N.jpg","M.jpg","1","0","0","",""
"","feedback","","html-keyboard-response","384","410414","0.0-1.0-537.0-0.0","0","0","15232","","null","","","null","59","","","","","","","","","","","","","","","",""
"","time_out","","html-keyboard-response","385","412418","0.0-1.0-539.0-0.0","0","0","15232","","null","","","null","59","","","","","","","","","","","","","","","",""
"","ITI","","html-keyboard-response","386","413422","0.0-1.0-540.0","0","0","15232","","null","","","null","59","","","","","","","","","","","","","","","NaN",""
"","S1","","html-keyboard-response","387","413678","0.0-1.0-542.0","0","0","15232","","null","","","null","60","","","","","","","","","","","","","","","",""
"","ISI","","html-keyboard-response","388","415682","0.0-1.0-543.0","0","0","15232","","null","","","null","60","NaN","","","","","","","","","","","","","","",""
"","S2","","html-keyboard-response","389","415936","0.0-1.0-544.0","0","0","15232","","null","","","null","60","","NaN","","","","","","","","","","","","","",""
"","response","","html-keyboard-response","390","416342","0.0-1.0-545.0","0","0","15232","","403","","","75","60","","","2","60","training","adjacent","CD","3","4","M.jpg","N.jpg","0","1","0","",""
"","feedback","","html-keyboard-response","391","417347","0.0-1.0-546.0-0.0","0","0","15232","","null","","","null","60","","","","","","","","","","","","","","","",""
"","time_out","","html-keyboard-response","392","419350","0.0-1.0-548.0-0.0","0","0","15232","","null","","","null","60","","","","","","","","","","","","","","","",""
"","ITI","","html-keyboard-response","393","420354","0.0-1.0-549.0","0","0","15232","","null","","","null","60","","","","","","","","","","","","","","","NaN",""
"","S1","","html-keyboard-response","394","420607","0.0-1.0-551.0","0","0","15232","","null","","","null","61","","","","","","","","","","","","","","","",""
"","ISI","","html-keyboard-response","395","422611","0.0-1.0-552.0","0","0","15232","","null","","","null","61","NaN","","","","","","","","","","","","","","",""
"","S2","","html-keyboard-response","396","422866","0.0-1.0-553.0","0","0","15232","","null","","","null","61","","NaN","","","","","","","","","","","","","",""
"","response","","html-keyboard-response","397","423877","0.0-1.0-554.0","0","0","15232","","1009","","","68","61","","","2","61","training","adjacent","CB","3","2","M.jpg","R.jpg","1","0","0","",""
"","feedback","","html-keyboard-response","398","424880","0.0-1.0-555.0-0.0","0","0","15232","","null","","","null","61","","","","","","","","","","","","","","","",""
"","time_out","","html-keyboard-response","399","426884","0.0-1.0-557.0-0.0","0","0","15232","","null","","","null","61","","","","","","","","","","","","","","","",""
"","ITI","","html-keyboard-response","400","427887","0.0-1.0-558.0","0","0","15232","","null","","","null","61","","","","","","","","","","","","","","","NaN",""
"","S1","","html-keyboard-response","401","428141","0.0-1.0-560.0","0","0","15232","","null","","","null","62","","","","","","","","","","","","","","","",""
"","ISI","","html-keyboard-response","402","430145","0.0-1.0-561.0","0","0","15232","","null","","","null","62","NaN","","","","","","","","","","","","","","",""
"","S2","","html-keyboard-response","403","430399","0.0-1.0-562.0","0","0","15232","","null","","","null","62","","NaN","","","","","","","","","","","","","",""
"","response","","html-keyboard-response","404","431266","0.0-1.0-563.0","0","0","15232","","864","","","68","62","","","2","62","training","adjacent","EF","5","6","L.jpg","P.jpg","1","1","1","",""
"","feedback","","html-keyboard-response","405","432271","0.0-1.0-564.0-0.0","0","0","15232","","null","","","null","62","","","","","","","","","","","","","","","",""
"","ITI","","html-keyboard-response","406","433276","0.0-1.0-567.0","0","0","15232","","null","","","null","62","","","","","","","","","","","","","","","NaN",""
"","S1","","html-keyboard-response","407","433531","0.0-1.0-569.0","0","0","15232","","null","","","null","63","","","","","","","","","","","","","","","",""
"","ISI","","html-keyboard-response","408","435536","0.0-1.0-570.0","0","0","15232","","null","","","null","63","NaN","","","","","","","","","","","","","","",""
"","S2","","html-keyboard-response","409","435790","0.0-1.0-571.0","0","0","15232","","null","","","null","63","","NaN","","","","","","","","","","","","","",""
"","response","","html-keyboard-response","410","436168","0.0-1.0-572.0","0","0","15232","","375","","","75","63","","","2","63","training","adjacent","CB","3","2","M.jpg","R.jpg","0","0","1","",""
"","feedback","","html-keyboard-response","411","437173","0.0-1.0-573.0-0.0","0","0","15232","","null","","","null","63","","","","","","","","","","","","","","","",""
"","ITI","","html-keyboard-response","412","438177","0.0-1.0-576.0","0","0","15232","","null","","","null","63","","","","","","","","","","","","","","","NaN",""
"","S1","","html-keyboard-response","413","438431","0.0-1.0-578.0","0","0","15232","","null","","","null","64","","","","","","","","","","","","","","","",""
"","ISI","","html-keyboard-response","414","440434","0.0-1.0-579.0","0","0","15232","","null","","","null","64","NaN","","","","","","","","","","","","","","",""
"","S2","","html-keyboard-response","415","440688","0.0-1.0-580.0","0","0","15232","","null","","","null","64","","NaN","","","","","","","","","","","","","",""
"","response","","html-keyboard-response","416","441006","0.0-1.0-581.0","0","0","15232","","315","","","68","64","","","2","64","training","adjacent","EF","5","6","L.jpg","P.jpg","1","1","1","",""
"","feedback","","html-keyboard-response","417","442009","0.0-1.0-582.0-0.0","0","0","15232","","null","","","null","64","","","","","","","","","","","","","","","",""
"","ITI","","html-keyboard-response","418","443013","0.0-1.0-585.0","0","0","15232","","null","","","null","64","","","","","","","","","","","","","","","NaN",""
"","S1","","html-keyboard-response","419","443268","0.0-1.0-587.0","0","0","15232","","null","","","null","65","","","","","","","","","","","","","","","",""
"","ISI","","html-keyboard-response","420","445271","0.0-1.0-588.0","0","0","15232","","null","","","null","65","NaN","","","","","","","","","","","","","","",""
"","S2","","html-keyboard-response","421","445525","0.0-1.0-589.0","0","0","15232","","null","","","null","65","","NaN","","","","","","","","","","","","","",""
"","response","","html-keyboard-response","422","445942","0.0-1.0-590.0","0","0","15232","","414","","","75","65","","","2","65","training","adjacent","BA","2","1","R.jpg","Q.jpg","0","0","1","",""
"","feedback","","html-keyboard-response","423","446952","0.0-1.0-591.0-0.0","0","0","15232","","null","","","null","65","","","","","","","","","","","","","","","",""
"","ITI","","html-keyboard-response","424","447956","0.0-1.0-594.0","0","0","15232","","null","","","null","65","","","","","","","","","","","","","","","NaN",""
"","S1","","html-keyboard-response","425","448211","0.0-1.0-596.0","0","0","15232","","null","","","null","66","","","","","","","","","","","","","","","",""
"","ISI","","html-keyboard-response","426","450215","0.0-1.0-597.0","0","0","15232","","null","","","null","66","NaN","","","","","","","","","","","","","","",""
"","S2","","html-keyboard-response","427","450469","0.0-1.0-598.0","0","0","15232","","null","","","null","66","","NaN","","","","","","","","","","","","","",""
"","response","","html-keyboard-response","428","451058","0.0-1.0-599.0","0","0","15232","","586","","","75","66","","","2","66","training","adjacent","DC","4","3","N.jpg","M.jpg","0","0","1","",""
"","feedback","","html-keyboard-response","429","452063","0.0-1.0-600.0-0.0","0","0","15232","","null","","","null","66","","","","","","","","","","","","","","","",""
"","ITI","","html-keyboard-response","430","453068","0.0-1.0-603.0","0","0","15232","","null","","","null","66","","","","","","","","","","","","","","","NaN",""
"","S1","","html-keyboard-response","431","453322","0.0-1.0-605.0","0","0","15232","","null","","","null","67","","","","","","","","","","","","","","","",""
"","ISI","","html-keyboard-response","432","455325","0.0-1.0-606.0","0","0","15232","","null","","","null","67","NaN","","","","","","","","","","","","","","",""
"","S2","","html-keyboard-response","433","455578","0.0-1.0-607.0","0","0","15232","","null","","","null","67","","NaN","","","","","","","","","","","","","",""
"","response","","html-keyboard-response","434","456017","0.0-1.0-608.0","0","0","15232","","435","","","68","67","","","2","67","training","adjacent","BC","2","3","R.jpg","M.jpg","1","1","1","",""
"","feedback","","html-keyboard-response","435","457021","0.0-1.0-609.0-0.0","0","0","15232","","null","","","null","67","","","","","","","","","","","","","","","",""
"","ITI","","html-keyboard-response","436","458026","0.0-1.0-612.0","0","0","15232","","null","","","null","67","","","","","","","","","","","","","","","NaN",""
"","S1","","html-keyboard-response","437","458280","0.0-1.0-614.0","0","0","15232","","null","","","null","68","","","","","","","","","","","","","","","",""
"","ISI","","html-keyboard-response","438","460284","0.0-1.0-615.0","0","0","15232","","null","","","null","68","NaN","","","","","","","","","","","","","","",""
"","S2","","html-keyboard-response","439","460538","0.0-1.0-616.0","0","0","15232","","null","","","null","68","","NaN","","","","","","","","","","","","","",""
"","response","","html-keyboard-response","440","460879","0.0-1.0-617.0","0","0","15232","","339","","","68","68","","","2","68","training","adjacent","BC","2","3","R.jpg","M.jpg","1","1","1","",""
"","feedback","","html-keyboard-response","441","461883","0.0-1.0-618.0-0.0","0","0","15232","","null","","","null","68","","","","","","","","","","","","","","","",""
"","ITI","","html-keyboard-response","442","462887","0.0-1.0-621.0","0","0","15232","","null","","","null","68","","","","","","","","","","","","","","","NaN",""
"","S1","","html-keyboard-response","443","463141","0.0-1.0-623.0","0","0","15232","","null","","","null","69","","","","","","","","","","","","","","","",""
"","ISI","","html-keyboard-response","444","465145","0.0-1.0-624.0","0","0","15232","","null","","","null","69","NaN","","","","","","","","","","","","","","",""
"","S2","","html-keyboard-response","445","465399","0.0-1.0-625.0","0","0","15232","","null","","","null","69","","NaN","","","","","","","","","","","","","",""
"","response","","html-keyboard-response","446","465717","0.0-1.0-626.0","0","0","15232","","315","","","68","69","","","2","69","training","adjacent","EF","5","6","L.jpg","P.jpg","1","1","1","",""
"","feedback","","html-keyboard-response","447","466721","0.0-1.0-627.0-0.0","0","0","15232","","null","","","null","69","","","","","","","","","","","","","","","",""
"","ITI","","html-keyboard-response","448","467725","0.0-1.0-630.0","0","0","15232","","null","","","null","69","","","","","","","","","","","","","","","NaN",""
"","S1","","html-keyboard-response","449","467980","0.0-1.0-632.0","0","0","15232","","null","","","null","70","","","","","","","","","","","","","","","",""
"","ISI","","html-keyboard-response","450","469984","0.0-1.0-633.0","0","0","15232","","null","","","null","70","NaN","","","","","","","","","","","","","","",""
"","S2","","html-keyboard-response","451","470239","0.0-1.0-634.0","0","0","15232","","null","","","null","70","","NaN","","","","","","","","","","","","","",""
"","response","","html-keyboard-response","452","470920","0.0-1.0-635.0","0","0","15232","","678","","","75","70","","","2","70","training","adjacent","CD","3","4","M.jpg","N.jpg","0","1","0","",""
"","feedback","","html-keyboard-response","453","471923","0.0-1.0-636.0-0.0","0","0","15232","","null","","","null","70","","","","","","","","","","","","","","","",""
"","time_out","","html-keyboard-response","454","473928","0.0-1.0-638.0-0.0","0","0","15232","","null","","","null","70","","","","","","","","","","","","","","","",""
"","ITI","","html-keyboard-response","455","474934","0.0-1.0-639.0","0","0","15232","","null","","","null","70","","","","","","","","","","","","","","","NaN",""
"","S1","","html-keyboard-response","456","475201","0.0-1.0-641.0","0","0","15232","","null","","","null","71","","","","","","","","","","","","","","","",""
"","ISI","","html-keyboard-response","457","477205","0.0-1.0-642.0","0","0","15232","","null","","","null","71","NaN","","","","","","","","","","","","","","",""
"","S2","","html-keyboard-response","458","477472","0.0-1.0-643.0","0","0","15232","","null","","","null","71","","NaN","","","","","","","","","","","","","",""
"","response","","html-keyboard-response","459","478100","0.0-1.0-644.0","0","0","15232","","625","","","68","71","","","2","71","training","adjacent","CD","3","4","M.jpg","N.jpg","1","1","1","",""
"","feedback","","html-keyboard-response","460","479104","0.0-1.0-645.0-0.0","0","0","15232","","null","","","null","71","","","","","","","","","","","","","","","",""
"","ITI","","html-keyboard-response","461","480108","0.0-1.0-648.0","0","0","15232","","null","","","null","71","","","","","","","","","","","","","","","NaN",""
"","S1","","html-keyboard-response","462","480363","0.0-1.0-650.0","0","0","15232","","null","","","null","72","","","","","","","","","","","","","","","",""
"","ISI","","html-keyboard-response","463","482367","0.0-1.0-651.0","0","0","15232","","null","","","null","72","NaN","","","","","","","","","","","","","","",""
"","S2","","html-keyboard-response","464","482627","0.0-1.0-652.0","0","0","15232","","null","","","null","72","","NaN","","","","","","","","","","","","","",""
"","response","","html-keyboard-response","465","482872","0.0-1.0-653.0","0","0","15232","","242","","","68","72","","","2","72","training","adjacent","AB","1","2","Q.jpg","R.jpg","1","1","1","",""
"","feedback","","html-keyboard-response","466","483876","0.0-1.0-654.0-0.0","0","0","15232","","null","","","null","72","","","","","","","","","","","","","","","",""
"","ITI","","html-keyboard-response","467","484880","0.0-1.0-657.0","0","0","15232","","null","","","null","72","","","","","","","","","","","","","","","NaN",""
"","S1","","html-keyboard-response","468","485135","0.0-1.0-659.0","0","0","15232","","null","","","null","73","","","","","","","","","","","","","","","",""
"","ISI","","html-keyboard-response","469","487139","0.0-1.0-660.0","0","0","15232","","null","","","null","73","NaN","","","","","","","","","","","","","","",""
"","S2","","html-keyboard-response","470","487393","0.0-1.0-661.0","0","0","15232","","null","","","null","73","","NaN","","","","","","","","","","","","","",""
"","response","","html-keyboard-response","471","487852","0.0-1.0-662.0","0","0","15232","","456","","","68","73","","","2","73","training","adjacent","FG","6","7","P.jpg","O.jpg","1","1","1","",""
"","feedback","","html-keyboard-response","472","488858","0.0-1.0-663.0-0.0","0","0","15232","","null","","","null","73","","","","","","","","","","","","","","","",""
"","ITI","","html-keyboard-response","473","489863","0.0-1.0-666.0","0","0","15232","","null","","","null","73","","","","","","","","","","","","","","","NaN",""
"","S1","","html-keyboard-response","474","490117","0.0-1.0-668.0","0","0","15232","","null","","","null","74","","","","","","","","","","","","","","","",""
"","ISI","","html-keyboard-response","475","492119","0.0-1.0-669.0","0","0","15232","","null","","","null","74","NaN","","","","","","","","","","","","","","",""
"","S2","","html-keyboard-response","476","492374","0.0-1.0-670.0","0","0","15232","","null","","","null","74","","NaN","","","","","","","","","","","","","",""
"","response","","html-keyboard-response","477","492607","0.0-1.0-671.0","0","0","15232","","230","","","68","74","","","2","74","training","adjacent","BC","2","3","R.jpg","M.jpg","1","1","1","",""
"","feedback","","html-keyboard-response","478","493612","0.0-1.0-672.0-0.0","0","0","15232","","null","","","null","74","","","","","","","","","","","","","","","",""
"","ITI","","html-keyboard-response","479","494616","0.0-1.0-675.0","0","0","15232","","null","","","null","74","","","","","","","","","","","","","","","NaN",""
"","S1","","html-keyboard-response","480","494871","0.0-1.0-677.0","0","0","15232","","null","","","null","75","","","","","","","","","","","","","","","",""
"","ISI","","html-keyboard-response","481","496875","0.0-1.0-678.0","0","0","15232","","null","","","null","75","NaN","","","","","","","","","","","","","","",""
"","S2","","html-keyboard-response","482","497130","0.0-1.0-679.0","0","0","15232","","null","","","null","75","","NaN","","","","","","","","","","","","","",""
"","response","","html-keyboard-response","483","497374","0.0-1.0-680.0","0","0","15232","","240","","","75","75","","","2","75","training","adjacent","GF","7","6","O.jpg","P.jpg","0","0","1","",""
"","feedback","","html-keyboard-response","484","498378","0.0-1.0-681.0-0.0","0","0","15232","","null","","","null","75","","","","","","","","","","","","","","","",""
"","ITI","","html-keyboard-response","485","499382","0.0-1.0-684.0","0","0","15232","","null","","","null","75","","","","","","","","","","","","","","","NaN",""
"","S1","","html-keyboard-response","486","499636","0.0-1.0-686.0","0","0","15232","","null","","","null","76","","","","","","","","","","","","","","","",""
"","ISI","","html-keyboard-response","487","501640","0.0-1.0-687.0","0","0","15232","","null","","","null","76","NaN","","","","","","","","","","","","","","",""
"","S2","","html-keyboard-response","488","501895","0.0-1.0-688.0","0","0","15232","","null","","","null","76","","NaN","","","","","","","","","","","","","",""
"","response","","html-keyboard-response","489","502630","0.0-1.0-689.0","0","0","15232","","732","","","68","76","","","2","76","training","adjacent","FE","6","5","P.jpg","L.jpg","1","0","0","",""
"","feedback","","html-keyboard-response","490","503635","0.0-1.0-690.0-0.0","0","0","15232","","null","","","null","76","","","","","","","","","","","","","","","",""
"","time_out","","html-keyboard-response","491","505639","0.0-1.0-692.0-0.0","0","0","15232","","null","","","null","76","","","","","","","","","","","","","","","",""
"","ITI","","html-keyboard-response","492","506642","0.0-1.0-693.0","0","0","15232","","null","","","null","76","","","","","","","","","","","","","","","NaN",""
"","S1","","html-keyboard-response","493","506899","0.0-1.0-695.0","0","0","15232","","null","","","null","77","","","","","","","","","","","","","","","",""
"","ISI","","html-keyboard-response","494","508903","0.0-1.0-696.0","0","0","15232","","null","","","null","77","NaN","","","","","","","","","","","","","","",""
"","S2","","html-keyboard-response","495","509157","0.0-1.0-697.0","0","0","15232","","null","","","null","77","","NaN","","","","","","","","","","","","","",""
"","response","","html-keyboard-response","496","509642","0.0-1.0-698.0","0","0","15232","","482","","","75","77","","","2","77","training","adjacent","DE","4","5","N.jpg","L.jpg","0","1","0","",""
"","feedback","","html-keyboard-response","497","510646","0.0-1.0-699.0-0.0","0","0","15232","","null","","","null","77","","","","","","","","","","","","","","","",""
"","time_out","","html-keyboard-response","498","512650","0.0-1.0-701.0-0.0","0","0","15232","","null","","","null","77","","","","","","","","","","","","","","","",""
"","ITI","","html-keyboard-response","499","513653","0.0-1.0-702.0","0","0","15232","","null","","","null","77","","","","","","","","","","","","","","","NaN",""
"","S1","","html-keyboard-response","500","513907","0.0-1.0-704.0","0","0","15232","","null","","","null","78","","","","","","","","","","","","","","","",""
"","ISI","","html-keyboard-response","501","515910","0.0-1.0-705.0","0","0","15232","","null","","","null","78","NaN","","","","","","","","","","","","","","",""
"","S2","","html-keyboard-response","502","516164","0.0-1.0-706.0","0","0","15232","","null","","","null","78","","NaN","","","","","","","","","","","","","",""
"","response","","html-keyboard-response","503","516876","0.0-1.0-707.0","0","0","15232","","709","","","68","78","","","2","78","training","adjacent","DC","4","3","N.jpg","M.jpg","1","0","0","",""
"","feedback","","html-keyboard-response","504","517880","0.0-1.0-708.0-0.0","0","0","15232","","null","","","null","78","","","","","","","","","","","","","","","",""
"","time_out","","html-keyboard-response","505","519885","0.0-1.0-710.0-0.0","0","0","15232","","null","","","null","78","","","","","","","","","","","","","","","",""
"","ITI","","html-keyboard-response","506","520888","0.0-1.0-711.0","0","0","15232","","null","","","null","78","","","","","","","","","","","","","","","NaN",""
"","S1","","html-keyboard-response","507","521142","0.0-1.0-713.0","0","0","15232","","null","","","null","79","","","","","","","","","","","","","","","",""
"","ISI","","html-keyboard-response","508","523144","0.0-1.0-714.0","0","0","15232","","null","","","null","79","NaN","","","","","","","","","","","","","","",""
"","S2","","html-keyboard-response","509","523399","0.0-1.0-715.0","0","0","15232","","null","","","null","79","","NaN","","","","","","","","","","","","","",""
"","response","","html-keyboard-response","510","523584","0.0-1.0-716.0","0","0","15232","","183","","","75","79","","","2","79","training","adjacent","BA","2","1","R.jpg","Q.jpg","0","0","1","",""
"","feedback","","html-keyboard-response","511","524588","0.0-1.0-717.0-0.0","0","0","15232","","null","","","null","79","","","","","","","","","","","","","","","",""
"","ITI","","html-keyboard-response","512","525593","0.0-1.0-720.0","0","0","15232","","null","","","null","79","","","","","","","","","","","","","","","NaN",""
"","S1","","html-keyboard-response","513","525848","0.0-1.0-722.0","0","0","15232","","null","","","null","80","","","","","","","","","","","","","","","",""
"","ISI","","html-keyboard-response","514","527851","0.0-1.0-723.0","0","0","15232","","null","","","null","80","NaN","","","","","","","","","","","","","","",""
"","S2","","html-keyboard-response","515","528106","0.0-1.0-724.0","0","0","15232","","null","","","null","80","","NaN","","","","","","","","","","","","","",""
"","response","","html-keyboard-response","516","528584","0.0-1.0-725.0","0","0","15232","","475","","","75","80","","","2","80","training","adjacent","ED","5","4","L.jpg","N.jpg","0","0","1","",""
"","feedback","","html-keyboard-response","517","529589","0.0-1.0-726.0-0.0","0","0","15232","","null","","","null","80","","","","","","","","","","","","","","","",""
"","ITI","","html-keyboard-response","518","530592","0.0-1.0-729.0","0","0","15232","","null","","","null","80","","","","","","","","","","","","","","","NaN",""
"","S1","","html-keyboard-response","519","530847","0.0-1.0-731.0","0","0","15232","","null","","","null","81","","","","","","","","","","","","","","","",""
"","ISI","","html-keyboard-response","520","532852","0.0-1.0-732.0","0","0","15232","","null","","","null","81","NaN","","","","","","","","","","","","","","",""
"","S2","","html-keyboard-response","521","533106","0.0-1.0-733.0","0","0","15232","","null","","","null","81","","NaN","","","","","","","","","","","","","",""
"","response","","html-keyboard-response","522","533916","0.0-1.0-734.0","0","0","15232","","807","","","68","81","","","2","81","training","adjacent","FE","6","5","P.jpg","L.jpg","1","0","0","",""
"","feedback","","html-keyboard-response","523","534920","0.0-1.0-735.0-0.0","0","0","15232","","null","","","null","81","","","","","","","","","","","","","","","",""
"","time_out","","html-keyboard-response","524","536925","0.0-1.0-737.0-0.0","0","0","15232","","null","","","null","81","","","","","","","","","","","","","","","",""
"","ITI","","html-keyboard-response","525","537929","0.0-1.0-738.0","0","0","15232","","null","","","null","81","","","","","","","","","","","","","","","NaN",""
"","S1","","html-keyboard-response","526","538183","0.0-1.0-740.0","0","0","15232","","null","","","null","82","","","","","","","","","","","","","","","",""
"","ISI","","html-keyboard-response","527","540186","0.0-1.0-741.0","0","0","15232","","null","","","null","82","NaN","","","","","","","","","","","","","","",""
"","S2","","html-keyboard-response","528","540441","0.0-1.0-742.0","0","0","15232","","null","","","null","82","","NaN","","","","","","","","","","","","","",""
"","response","","html-keyboard-response","529","540895","0.0-1.0-743.0","0","0","15232","","451","","","75","82","","","2","82","training","adjacent","DE","4","5","N.jpg","L.jpg","0","1","0","",""
"","feedback","","html-keyboard-response","530","541898","0.0-1.0-744.0-0.0","0","0","15232","","null","","","null","82","","","","","","","","","","","","","","","",""
"","time_out","","html-keyboard-response","531","543906","0.0-1.0-746.0-0.0","0","0","15232","","null","","","null","82","","","","","","","","","","","","","","","",""
"","ITI","","html-keyboard-response","532","544910","0.0-1.0-747.0","0","0","15232","","null","","","null","82","","","","","","","","","","","","","","","NaN",""
"","S1","","html-keyboard-response","533","545164","0.0-1.0-749.0","0","0","15232","","null","","","null","83","","","","","","","","","","","","","","","",""
"","ISI","","html-keyboard-response","534","547167","0.0-1.0-750.0","0","0","15232","","null","","","null","83","NaN","","","","","","","","","","","","","","",""
"","S2","","html-keyboard-response","535","547421","0.0-1.0-751.0","0","0","15232","","null","","","null","83","","NaN","","","","","","","","","","","","","",""
"","response","","html-keyboard-response","536","548638","0.0-1.0-752.0","0","0","15232","","1214","","","68","83","","","2","83","training","adjacent","FG","6","7","P.jpg","O.jpg","1","1","1","",""
"","feedback","","html-keyboard-response","537","549643","0.0-1.0-753.0-0.0","0","0","15232","","null","","","null","83","","","","","","","","","","","","","","","",""
"","ITI","","html-keyboard-response","538","550648","0.0-1.0-756.0","0","0","15232","","null","","","null","83","","","","","","","","","","","","","","","NaN",""
"","S1","","html-keyboard-response","539","550902","0.0-1.0-758.0","0","0","15232","","null","","","null","84","","","","","","","","","","","","","","","",""
"","ISI","","html-keyboard-response","540","552906","0.0-1.0-759.0","0","0","15232","","null","","","null","84","NaN","","","","","","","","","","","","","","",""
"","S2","","html-keyboard-response","541","553161","0.0-1.0-760.0","0","0","15232","","null","","","null","84","","NaN","","","","","","","","","","","","","",""
"","response","","html-keyboard-response","542","553345","0.0-1.0-761.0","0","0","15232","","182","","","68","84","","","2","84","training","adjacent","AB","1","2","Q.jpg","R.jpg","1","1","1","",""
"","feedback","","html-keyboard-response","543","554350","0.0-1.0-762.0-0.0","0","0","15232","","null","","","null","84","","","","","","","","","","","","","","","",""
"","ITI","","html-keyboard-response","544","555355","0.0-1.0-765.0","0","0","15232","","null","","","null","84","","","","","","","","","","","","","","","NaN",""
"","S1","","html-keyboard-response","545","555609","0.0-1.0-767.0","0","0","15232","","null","","","null","85","","","","","","","","","","","","","","","",""
"","ISI","","html-keyboard-response","546","557613","0.0-1.0-768.0","0","0","15232","","null","","","null","85","NaN","","","","","","","","","","","","","","",""
"","S2","","html-keyboard-response","547","557867","0.0-1.0-769.0","0","0","15232","","null","","","null","85","","NaN","","","","","","","","","","","","","",""
"","response","","html-keyboard-response","548","558634","0.0-1.0-770.0","0","0","15232","","764","","","68","85","","","2","85","training","adjacent","DE","4","5","N.jpg","L.jpg","1","1","1","",""
"","feedback","","html-keyboard-response","549","559638","0.0-1.0-771.0-0.0","0","0","15232","","null","","","null","85","","","","","","","","","","","","","","","",""
"","ITI","","html-keyboard-response","550","560642","0.0-1.0-774.0","0","0","15232","","null","","","null","85","","","","","","","","","","","","","","","NaN",""
"","S1","","html-keyboard-response","551","560897","0.0-1.0-776.0","0","0","15232","","null","","","null","86","","","","","","","","","","","","","","","",""
"","ISI","","html-keyboard-response","552","562902","0.0-1.0-777.0","0","0","15232","","null","","","null","86","NaN","","","","","","","","","","","","","","",""
"","S2","","html-keyboard-response","553","563157","0.0-1.0-778.0","0","0","15232","","null","","","null","86","","NaN","","","","","","","","","","","","","",""
"","response","","html-keyboard-response","554","563236","0.0-1.0-779.0","0","0","15232","","76","","","68","86","","","2","86","training","adjacent","AB","1","2","Q.jpg","R.jpg","1","1","1","",""
"","feedback","","html-keyboard-response","555","564241","0.0-1.0-780.0-0.0","0","0","15232","","null","","","null","86","","","","","","","","","","","","","","","",""
"","ITI","","html-keyboard-response","556","565246","0.0-1.0-783.0","0","0","15232","","null","","","null","86","","","","","","","","","","","","","","","NaN",""
"","S1","","html-keyboard-response","557","565501","0.0-1.0-785.0","0","0","15232","","null","","","null","87","","","","","","","","","","","","","","","",""
"","ISI","","html-keyboard-response","558","567505","0.0-1.0-786.0","0","0","15232","","null","","","null","87","NaN","","","","","","","","","","","","","","",""
"","S2","","html-keyboard-response","559","567760","0.0-1.0-787.0","0","0","15232","","null","","","null","87","","NaN","","","","","","","","","","","","","",""
"","response","","html-keyboard-response","560","568117","0.0-1.0-788.0","0","0","15232","","354","","","68","87","","","2","87","training","adjacent","FG","6","7","P.jpg","O.jpg","1","1","1","",""
"","feedback","","html-keyboard-response","561","569122","0.0-1.0-789.0-0.0","0","0","15232","","null","","","null","87","","","","","","","","","","","","","","","",""
"","ITI","","html-keyboard-response","562","570126","0.0-1.0-792.0","0","0","15232","","null","","","null","87","","","","","","","","","","","","","","","NaN",""
"","S1","","html-keyboard-response","563","570381","0.0-1.0-794.0","0","0","15232","","null","","","null","88","","","","","","","","","","","","","","","",""
"","ISI","","html-keyboard-response","564","572384","0.0-1.0-795.0","0","0","15232","","null","","","null","88","NaN","","","","","","","","","","","","","","",""
"","S2","","html-keyboard-response","565","572638","0.0-1.0-796.0","0","0","15232","","null","","","null","88","","NaN","","","","","","","","","","","","","",""
"","response","","html-keyboard-response","566","572721","0.0-1.0-797.0","0","0","15232","","80","","","75","88","","","2","88","training","adjacent","GF","7","6","O.jpg","P.jpg","0","0","1","",""
"","feedback","","html-keyboard-response","567","573725","0.0-1.0-798.0-0.0","0","0","15232","","null","","","null","88","","","","","","","","","","","","","","","",""
"","ITI","","html-keyboard-response","568","574729","0.0-1.0-801.0","0","0","15232","","null","","","null","88","","","","","","","","","","","","","","","NaN",""
"","S1","","html-keyboard-response","569","574983","0.0-1.0-803.0","0","0","15232","","null","","","null","89","","","","","","","","","","","","","","","",""
"","ISI","","html-keyboard-response","570","576987","0.0-1.0-804.0","0","0","15232","","null","","","null","89","NaN","","","","","","","","","","","","","","",""
"","S2","","html-keyboard-response","571","577241","0.0-1.0-805.0","0","0","15232","","null","","","null","89","","NaN","","","","","","","","","","","","","",""
"","response","","html-keyboard-response","572","577534","0.0-1.0-806.0","0","0","15232","","290","","","68","89","","","2","89","training","adjacent","DE","4","5","N.jpg","L.jpg","1","1","1","",""
"","feedback","","html-keyboard-response","573","578538","0.0-1.0-807.0-0.0","0","0","15232","","null","","","null","89","","","","","","","","","","","","","","","",""
"","ITI","","html-keyboard-response","574","579543","0.0-1.0-810.0","0","0","15232","","null","","","null","89","","","","","","","","","","","","","","","NaN",""
"","S1","","html-keyboard-response","575","579803","0.0-1.0-812.0","0","0","15232","","null","","","null","90","","","","","","","","","","","","","","","",""
"","ISI","","html-keyboard-response","576","581810","0.0-1.0-813.0","0","0","15232","","null","","","null","90","NaN","","","","","","","","","","","","","","",""
"","S2","","html-keyboard-response","577","582064","0.0-1.0-814.0","0","0","15232","","null","","","null","90","","NaN","","","","","","","","","","","","","",""
"","response","","html-keyboard-response","578","582589","0.0-1.0-815.0","0","0","15232","","522","","","75","90","","","2","90","training","adjacent","ED","5","4","L.jpg","N.jpg","0","0","1","",""
"","feedback","","html-keyboard-response","579","583594","0.0-1.0-816.0-0.0","0","0","15232","","null","","","null","90","","","","","","","","","","","","","","","",""
"","ITI","","html-keyboard-response","580","584598","0.0-1.0-819.0","0","0","15232","","null","","","null","90","","","","","","","","","","","","","","","NaN",""
"","S1","","html-keyboard-response","581","584852","0.0-1.0-821.0","0","0","15232","","null","","","null","91","","","","","","","","","","","","","","","",""
"","ISI","","html-keyboard-response","582","586856","0.0-1.0-822.0","0","0","15232","","null","","","null","91","NaN","","","","","","","","","","","","","","",""
"","S2","","html-keyboard-response","583","587110","0.0-1.0-823.0","0","0","15232","","null","","","null","91","","NaN","","","","","","","","","","","","","",""
"","response","","html-keyboard-response","584","587479","0.0-1.0-824.0","0","0","15232","","366","","","75","91","","","2","91","training","adjacent","ED","5","4","L.jpg","N.jpg","0","0","1","",""
