"success","ttype","start_time","trial_type","trial_index","time_elapsed","internal_node_id","warning","missed_checkup","PID","view_history","rt","responses","repeat_instructions","key_press","index","keypress_isi","keypress_S2","block","trial_num","phase","group_type","pair_type","S1_stim","S2_stim","S1_img","S2_img","S1_chosen","S1_higher","accuracy","keypress_iti","total_bonus_tally"
"true","full_screen","d03072023hr1755","fullscreen","0","178357","0.0-0.0","0","0","70772","","","","","","","","","","","","","","","","","","","","","",""
"","instructions","","instructions","1","4272566","0.0-1.0-0.0-0.0","0","0","70772","[{""page_index"":0,""viewing_time"":10059},{""page_index"":1,""viewing_time"":19395},{""page_index"":2,""viewing_time"":4062822},{""page_index"":3,""viewing_time"":1930}]","4094207","","","","","","","","","","","","","","","","","","","",""
"","comprehension_check","","survey-multi-choice","2","4315254","0.0-1.0-0.0-1.0","0","0","70772","","42683","{""Q0"":""True"",""Q1"":""D"",""Q2"":""Once the second image appears and while the screen 'MAKE A CHOICE' is shown"",""Q3"":""Green mark"",""Q4"":""either D or K""}","0","","","","","","","","","","","","","","","","","",""
"","start_exp","","html-keyboard-response","3","4317886","0.0-1.0-1.0","0","0","70772","","2629","","","32","","","","","","","","","","","","","","","","",""
"","S1","","html-keyboard-response","4","4318139","0.0-1.0-2.0","0","0","70772","","null","","","null","0","","","","","","","","","","","","","","","",""
"","ISI","","html-keyboard-response","5","4319156","0.0-1.0-3.0","0","0","70772","","null","","","null","0","NaN","","","","","","","","","","","","","","",""
"","S2","","html-keyboard-response","6","4319412","0.0-1.0-4.0","0","0","70772","","null","","","null","0","","NaN","","","","","","","","","","","","","",""
"","response","","html-keyboard-response","7","4320085","0.0-1.0-5.0-0.0","0","0","70772","","666","","","68","0","","","1","0","training","adjacent","CD","3","4","Q.jpg","M.jpg","1","1","1","",""
"","feedback","","html-keyboard-response","8","4321168","0.0-1.0-6.0-0.0","0","0","70772","","null","","","null","0","","","","","","","","","","","","","","","",""
"","ITI","","html-keyboard-response","9","4322171","0.0-1.0-9.0","0","0","70772","","null","","","null","0","","","","","","","","","","","","","","","NaN",""
"","S1","","html-keyboard-response","10","4322431","0.0-1.0-11.0","0","0","70772","","null","","","null","1","","","","","","","","","","","","","","","",""
"","ISI","","html-keyboard-response","11","4323434","0.0-1.0-12.0","0","0","70772","","null","","","null","1","NaN","","","","","","","","","","","","","","",""
"","S2","","html-keyboard-response","12","4323686","0.0-1.0-13.0","0","0","70772","","null","","","null","1","","NaN","","","","","","","","","","","","","",""
"","response","","html-keyboard-response","13","4323709","0.0-1.0-14.0-0.0","0","0","70772","","22","","","75","1","","","1","1","training","adjacent","DC","4","3","M.jpg","Q.jpg","0","0","1","",""
"","feedback","","html-keyboard-response","14","4324712","0.0-1.0-15.0-0.0","0","0","70772","","null","","","null","1","","","","","","","","","","","","","","","",""
"","ITI","","html-keyboard-response","15","4325713","0.0-1.0-18.0","0","0","70772","","null","","","null","1","","","","","","","","","","","","","","","NaN",""
"","S1","","html-keyboard-response","16","4325966","0.0-1.0-20.0","0","0","70772","","null","","","null","2","","","","","","","","","","","","","","","",""
"","ISI","","html-keyboard-response","17","4326968","0.0-1.0-21.0","0","0","70772","","null","","","null","2","NaN","","","","","","","","","","","","","","",""
"","S2","","html-keyboard-response","18","4327220","0.0-1.0-22.0","0","0","70772","","null","","","null","2","","NaN","","","","","","","","","","","","","",""
"","response","","html-keyboard-response","19","4327437","0.0-1.0-23.0-0.0","0","0","70772","","216","","","68","2","","","1","2","training","adjacent","EF","5","6","O.jpg","L.jpg","1","1","1","",""
"","feedback","","html-keyboard-response","20","4328439","0.0-1.0-24.0-0.0","0","0","70772","","null","","","null","2","","","","","","","","","","","","","","","",""
"","ITI","","html-keyboard-response","21","4329441","0.0-1.0-27.0","0","0","70772","","null","","","null","2","","","","","","","","","","","","","","","NaN",""
"","S1","","html-keyboard-response","22","4329694","0.0-1.0-29.0","0","0","70772","","null","","","null","3","","","","","","","","","","","","","","","",""
"","ISI","","html-keyboard-response","23","4330696","0.0-1.0-30.0","0","0","70772","","null","","","null","3","NaN","","","","","","","","","","","","","","",""
"","S2","","html-keyboard-response","24","4330947","0.0-1.0-31.0","0","0","70772","","null","","","null","3","","NaN","","","","","","","","","","","","","",""
"","response","","html-keyboard-response","25","4331079","0.0-1.0-32.0-0.0","0","0","70772","","129","","","75","3","","","1","3","training","adjacent","DC","4","3","M.jpg","Q.jpg","0","0","1","",""
"","feedback","","html-keyboard-response","26","4332081","0.0-1.0-33.0-0.0","0","0","70772","","null","","","null","3","","","","","","","","","","","","","","","",""
"","ITI","","html-keyboard-response","27","4333083","0.0-1.0-36.0","0","0","70772","","null","","","null","3","","","","","","","","","","","","","","","NaN",""
"","S1","","html-keyboard-response","28","4333383","0.0-1.0-38.0","0","0","70772","","null","","","null","4","","","","","","","","","","","","","","","",""
"","ISI","","html-keyboard-response","29","4334385","0.0-1.0-39.0","0","0","70772","","null","","","null","4","NaN","","","","","","","","","","","","","","",""
"","S2","","html-keyboard-response","30","4334637","0.0-1.0-40.0","0","0","70772","","null","","","null","4","","NaN","","","","","","","","","","","","","",""
"","response","","html-keyboard-response","31","4334869","0.0-1.0-41.0-0.0","0","0","70772","","231","","","75","4","","","1","4","training","adjacent","FG","6","7","L.jpg","P.jpg","0","1","0","",""
"","feedback","","html-keyboard-response","32","4335871","0.0-1.0-42.0-0.0","0","0","70772","","null","","","null","4","","","","","","","","","","","","","","","",""
"","time_out","","html-keyboard-response","33","4337888","0.0-1.0-44.0-0.0","0","0","70772","","null","","","null","4","","","","","","","","","","","","","","","",""
"","ITI","","html-keyboard-response","34","4338890","0.0-1.0-45.0","0","0","70772","","null","","","null","4","","","","","","","","","","","","","","","NaN",""
"","S1","","html-keyboard-response","35","4339144","0.0-1.0-47.0","0","0","70772","","null","","","null","5","","","","","","","","","","","","","","","",""
"","ISI","","html-keyboard-response","36","4340146","0.0-1.0-48.0","0","0","70772","","null","","","null","5","NaN","","","","","","","","","","","","","","",""
"","S2","","html-keyboard-response","37","4340397","0.0-1.0-49.0","0","0","70772","","null","","","null","5","","NaN","","","","","","","","","","","","","",""
"","response","","html-keyboard-response","38","4340502","0.0-1.0-50.0-0.0","0","0","70772","","103","","","68","5","","","1","5","training","adjacent","EF","5","6","O.jpg","L.jpg","1","1","1","",""
"","feedback","","html-keyboard-response","39","4341504","0.0-1.0-51.0-0.0","0","0","70772","","null","","","null","5","","","","","","","","","","","","","","","",""
"","ITI","","html-keyboard-response","40","4342514","0.0-1.0-54.0","0","0","70772","","null","","","null","5","","","","","","","","","","","","","","","NaN",""
"","S1","","html-keyboard-response","41","4342766","0.0-1.0-56.0","0","0","70772","","null","","","null","6","","","","","","","","","","","","","","","",""
"","ISI","","html-keyboard-response","42","4343767","0.0-1.0-57.0","0","0","70772","","null","","","null","6","NaN","","","","","","","","","","","","","","",""
"","S2","","html-keyboard-response","43","4344019","0.0-1.0-58.0","0","0","70772","","null","","","null","6","","NaN","","","","","","","","","","","","","",""
"","response","","html-keyboard-response","44","4344037","0.0-1.0-59.0-0.0","0","0","70772","","17","","","68","6","","","1","6","training","adjacent","CD","3","4","Q.jpg","M.jpg","1","1","1","",""
"","feedback","","html-keyboard-response","45","4345040","0.0-1.0-60.0-0.0","0","0","70772","","null","","","null","6","","","","","","","","","","","","","","","",""
"","ITI","","html-keyboard-response","46","4346042","0.0-1.0-63.0","0","0","70772","","null","","","null","6","","","","","","","","","","","","","","","NaN",""
"","S1","","html-keyboard-response","47","4346300","0.0-1.0-65.0","0","0","70772","","null","","","null","7","","","","","","","","","","","","","","","",""
"","ISI","","html-keyboard-response","48","4347302","0.0-1.0-66.0","0","0","70772","","null","","","null","7","NaN","","","","","","","","","","","","","","",""
"","S2","","html-keyboard-response","49","4347554","0.0-1.0-67.0","0","0","70772","","null","","","null","7","","NaN","","","","","","","","","","","","","",""
"","response","","html-keyboard-response","50","4347645","0.0-1.0-68.0-0.0","0","0","70772","","90","","","75","7","","","1","7","training","adjacent","FG","6","7","L.jpg","P.jpg","0","1","0","",""
"","feedback","","html-keyboard-response","51","4348647","0.0-1.0-69.0-0.0","0","0","70772","","null","","","null","7","","","","","","","","","","","","","","","",""
"","time_out","","html-keyboard-response","52","4350648","0.0-1.0-71.0-0.0","0","0","70772","","null","","","null","7","","","","","","","","","","","","","","","",""
"","ITI","","html-keyboard-response","53","4351650","0.0-1.0-72.0","0","0","70772","","null","","","null","7","","","","","","","","","","","","","","","NaN",""
"","S1","","html-keyboard-response","54","4351902","0.0-1.0-74.0","0","0","70772","","null","","","null","8","","","","","","","","","","","","","","","",""
"","ISI","","html-keyboard-response","55","4352905","0.0-1.0-75.0","0","0","70772","","null","","","null","8","NaN","","","","","","","","","","","","","","",""
"","S2","","html-keyboard-response","56","4353158","0.0-1.0-76.0","0","0","70772","","null","","","null","8","","NaN","","","","","","","","","","","","","",""
"","response","","html-keyboard-response","57","4353214","0.0-1.0-77.0-0.0","0","0","70772","","54","","","75","8","","","1","8","training","adjacent","DE","4","5","M.jpg","O.jpg","0","1","0","",""
"","feedback","","html-keyboard-response","58","4354216","0.0-1.0-78.0-0.0","0","0","70772","","null","","","null","8","","","","","","","","","","","","","","","",""
"","time_out","","html-keyboard-response","59","4356218","0.0-1.0-80.0-0.0","0","0","70772","","null","","","null","8","","","","","","","","","","","","","","","",""
"","ITI","","html-keyboard-response","60","4357220","0.0-1.0-81.0","0","0","70772","","null","","","null","8","","","","","","","","","","","","","","","NaN",""
"","S1","","html-keyboard-response","61","4357472","0.0-1.0-83.0","0","0","70772","","null","","","null","9","","","","","","","","","","","","","","","",""
"","ISI","","html-keyboard-response","62","4358473","0.0-1.0-84.0","0","0","70772","","null","","","null","9","NaN","","","","","","","","","","","","","","",""
"","S2","","html-keyboard-response","63","4358726","0.0-1.0-85.0","0","0","70772","","null","","","null","9","","NaN","","","","","","","","","","","","","",""
"","response","","html-keyboard-response","64","4358950","0.0-1.0-86.0-0.0","0","0","70772","","222","","","68","9","","","1","9","training","adjacent","AB","1","2","R.jpg","N.jpg","1","1","1","",""
"","feedback","","html-keyboard-response","65","4359953","0.0-1.0-87.0-0.0","0","0","70772","","null","","","null","9","","","","","","","","","","","","","","","",""
"","ITI","","html-keyboard-response","66","4360983","0.0-1.0-90.0","0","0","70772","","null","","","null","9","","","","","","","","","","","","","","","NaN",""
"","S1","","html-keyboard-response","67","4361234","0.0-1.0-92.0","0","0","70772","","null","","","null","10","","","","","","","","","","","","","","","",""
"","ISI","","html-keyboard-response","68","4362236","0.0-1.0-93.0","0","0","70772","","null","","","null","10","NaN","","","","","","","","","","","","","","",""
"","S2","","html-keyboard-response","69","4362489","0.0-1.0-94.0","0","0","70772","","null","","","null","10","","NaN","","","","","","","","","","","","","",""
"","response","","html-keyboard-response","70","4362542","0.0-1.0-95.0-0.0","0","0","70772","","50","","","68","10","","","1","10","training","adjacent","CD","3","4","Q.jpg","M.jpg","1","1","1","",""
"","feedback","","html-keyboard-response","71","4363543","0.0-1.0-96.0-0.0","0","0","70772","","null","","","null","10","","","","","","","","","","","","","","","",""
"","ITI","","html-keyboard-response","72","4364596","0.0-1.0-99.0","0","0","70772","","null","","","null","10","","","","","","","","","","","","","","","NaN",""
"","S1","","html-keyboard-response","73","4364848","0.0-1.0-101.0","0","0","70772","","null","","","null","11","","","","","","","","","","","","","","","",""
"","ISI","","html-keyboard-response","74","4365851","0.0-1.0-102.0","0","0","70772","","null","","","null","11","NaN","","","","","","","","","","","","","","",""
"","S2","","html-keyboard-response","75","4366103","0.0-1.0-103.0","0","0","70772","","null","","","null","11","","NaN","","","","","","","","","","","","","",""
"","response","","html-keyboard-response","76","4366238","0.0-1.0-104.0-0.0","0","0","70772","","134","","","68","11","","","1","11","training","adjacent","GF","7","6","P.jpg","L.jpg","1","0","0","",""
"","feedback","","html-keyboard-response","77","4367240","0.0-1.0-105.0-0.0","0","0","70772","","null","","","null","11","","","","","","","","","","","","","","","",""
"","time_out","","html-keyboard-response","78","4369253","0.0-1.0-107.0-0.0","0","0","70772","","null","","","null","11","","","","","","","","","","","","","","","",""
"","ITI","","html-keyboard-response","79","4370255","0.0-1.0-108.0","0","0","70772","","null","","","null","11","","","","","","","","","","","","","","","NaN",""
"","S1","","html-keyboard-response","80","4370507","0.0-1.0-110.0","0","0","70772","","null","","","null","12","","","","","","","","","","","","","","","",""
"","ISI","","html-keyboard-response","81","4371509","0.0-1.0-111.0","0","0","70772","","null","","","null","12","NaN","","","","","","","","","","","","","","",""
"","S2","","html-keyboard-response","82","4371761","0.0-1.0-112.0","0","0","70772","","null","","","null","12","","NaN","","","","","","","","","","","","","",""
"","response","","html-keyboard-response","83","4371861","0.0-1.0-113.0-0.0","0","0","70772","","99","","","68","12","","","1","12","training","adjacent","FE","6","5","L.jpg","O.jpg","1","0","0","",""
"","feedback","","html-keyboard-response","84","4372914","0.0-1.0-114.0-0.0","0","0","70772","","null","","","null","12","","","","","","","","","","","","","","","",""
"","time_out","","html-keyboard-response","85","4374916","0.0-1.0-116.0-0.0","0","0","70772","","null","","","null","12","","","","","","","","","","","","","","","",""
"","ITI","","html-keyboard-response","86","4375918","0.0-1.0-117.0","0","0","70772","","null","","","null","12","","","","","","","","","","","","","","","NaN",""
"","S1","","html-keyboard-response","87","4376171","0.0-1.0-119.0","0","0","70772","","null","","","null","13","","","","","","","","","","","","","","","",""
"","ISI","","html-keyboard-response","88","4377173","0.0-1.0-120.0","0","0","70772","","null","","","null","13","NaN","","","","","","","","","","","","","","",""
"","S2","","html-keyboard-response","89","4377426","0.0-1.0-121.0","0","0","70772","","null","","","null","13","","NaN","","","","","","","","","","","","","",""
"","response","","html-keyboard-response","90","4377502","0.0-1.0-122.0-0.0","0","0","70772","","74","","","75","13","","","1","13","training","adjacent","BA","2","1","N.jpg","R.jpg","0","0","1","",""
"","feedback","","html-keyboard-response","91","4378504","0.0-1.0-123.0-0.0","0","0","70772","","null","","","null","13","","","","","","","","","","","","","","","",""
"","ITI","","html-keyboard-response","92","4379506","0.0-1.0-126.0","0","0","70772","","null","","","null","13","","","","","","","","","","","","","","","NaN",""
"","S1","","html-keyboard-response","93","4379760","0.0-1.0-128.0","0","0","70772","","null","","","null","14","","","","","","","","","","","","","","","",""
"","ISI","","html-keyboard-response","94","4380762","0.0-1.0-129.0","0","0","70772","","null","","","null","14","NaN","","","","","","","","","","","","","","",""
"","S2","","html-keyboard-response","95","4380997","0.0-1.0-130.0","0","0","70772","","234","","","75","14","","k","1","14","training","adjacent","DC","4","3","M.jpg","Q.jpg","0","0","1","",""
"","feedback","","html-keyboard-response","96","4382000","0.0-1.0-132.0-0.0","0","0","70772","","null","","","null","14","","","","","","","","","","","","","","","",""
"","ITI","","html-keyboard-response","97","4383049","0.0-1.0-135.0","0","0","70772","","null","","","null","14","","","","","","","","","","","","","","","NaN",""
"","S1","","html-keyboard-response","98","4383301","0.0-1.0-137.0","0","0","70772","","null","","","null","15","","","","","","","","","","","","","","","",""
"","ISI","","html-keyboard-response","99","4384358","0.0-1.0-138.0","0","0","70772","","null","","","null","15","NaN","","","","","","","","","","","","","","",""
"","S2","","html-keyboard-response","100","4384612","0.0-1.0-139.0","0","0","70772","","null","","","null","15","","NaN","","","","","","","","","","","","","",""
"","response","","html-keyboard-response","101","4384660","0.0-1.0-140.0-0.0","0","0","70772","","48","","","68","15","","","1","15","training","adjacent","AB","1","2","R.jpg","N.jpg","1","1","1","",""
"","feedback","","html-keyboard-response","102","4385662","0.0-1.0-141.0-0.0","0","0","70772","","null","","","null","15","","","","","","","","","","","","","","","",""
"","ITI","","html-keyboard-response","103","4386665","0.0-1.0-144.0","0","0","70772","","null","","","null","15","","","","","","","","","","","","","","","NaN",""
"","S1","","html-keyboard-response","104","4386916","0.0-1.0-146.0","0","0","70772","","null","","","null","16","","","","","","","","","","","","","","","",""
"","ISI","","html-keyboard-response","105","4387919","0.0-1.0-147.0","0","0","70772","","null","","","null","16","NaN","","","","","","","","","","","","","","",""
"","S2","","html-keyboard-response","106","4388141","0.0-1.0-148.0","0","0","70772","","221","","","75","16","","k","1","16","training","adjacent","DE","4","5","M.jpg","O.jpg","0","1","0","",""
"","feedback","","html-keyboard-response","107","4389144","0.0-1.0-150.0-0.0","0","0","70772","","null","","","null","16","","","","","","","","","","","","","","","",""
"","time_out","","html-keyboard-response","108","4391149","0.0-1.0-152.0-0.0","0","0","70772","","null","","","null","16","","","","","","","","","","","","","","","",""
"","ITI","","html-keyboard-response","109","4392151","0.0-1.0-153.0","0","0","70772","","null","","","null","16","","","","","","","","","","","","","","","NaN",""
"","S1","","html-keyboard-response","110","4392402","0.0-1.0-155.0","0","0","70772","","null","","","null","17","","","","","","","","","","","","","","","",""
"","ISI","","html-keyboard-response","111","4393404","0.0-1.0-156.0","0","0","70772","","null","","","null","17","NaN","","","","","","","","","","","","","","",""
"","S2","","html-keyboard-response","112","4393656","0.0-1.0-157.0","0","0","70772","","null","","","null","17","","NaN","","","","","","","","","","","","","",""
"","response","","html-keyboard-response","113","4393838","0.0-1.0-158.0-0.0","0","0","70772","","181","","","68","17","","","1","17","training","adjacent","DE","4","5","M.jpg","O.jpg","1","1","1","",""
"","feedback","","html-keyboard-response","114","4394839","0.0-1.0-159.0-0.0","0","0","70772","","null","","","null","17","","","","","","","","","","","","","","","",""
"","ITI","","html-keyboard-response","115","4395841","0.0-1.0-162.0","0","0","70772","","null","","","null","17","","","","","","","","","","","","","","","NaN",""
"","S1","","html-keyboard-response","116","4396093","0.0-1.0-164.0","0","0","70772","","null","","","null","18","","","","","","","","","","","","","","","",""
"","ISI","","html-keyboard-response","117","4397116","0.0-1.0-165.0","0","0","70772","","null","","","null","18","NaN","","","","","","","","","","","","","","",""
"","S2","","html-keyboard-response","118","4397368","0.0-1.0-166.0","0","0","70772","","null","","","null","18","","NaN","","","","","","","","","","","","","",""
"","response","","html-keyboard-response","119","4397492","0.0-1.0-167.0-0.0","0","0","70772","","124","","","68","18","","","1","18","training","adjacent","ED","5","4","O.jpg","M.jpg","1","0","0","",""
"","feedback","","html-keyboard-response","120","4398507","0.0-1.0-168.0-0.0","0","0","70772","","null","","","null","18","","","","","","","","","","","","","","","",""
"","time_out","","html-keyboard-response","121","4400516","0.0-1.0-170.0-0.0","0","0","70772","","null","","","null","18","","","","","","","","","","","","","","","",""
"","ITI","","html-keyboard-response","122","4401521","0.0-1.0-171.0","0","0","70772","","null","","","null","18","","","","","","","","","","","","","","","NaN",""
"","S1","","html-keyboard-response","123","4401772","0.0-1.0-173.0","0","0","70772","","null","","","null","19","","","","","","","","","","","","","","","",""
"","ISI","","html-keyboard-response","124","4402902","0.0-1.0-174.0","0","0","70772","","null","","","null","19","NaN","","","","","","","","","","","","","","",""
"","S2","","html-keyboard-response","125","4402935","0.0-1.0-175.0","0","0","70772","","31","","","75","19","","k","1","19","training","adjacent","BC","2","3","N.jpg","Q.jpg","0","1","0","",""
"","feedback","","html-keyboard-response","126","4403938","0.0-1.0-177.0-0.0","0","0","70772","","null","","","null","19","","","","","","","","","","","","","","","",""
"","time_out","","html-keyboard-response","127","4405941","0.0-1.0-179.0-0.0","0","0","70772","","null","","","null","19","","","","","","","","","","","","","","","",""
"","ITI","","html-keyboard-response","128","4406949","0.0-1.0-180.0","0","0","70772","","null","","","null","19","","","","","","","","","","","","","","","NaN",""
"","S1","","html-keyboard-response","129","4407201","0.0-1.0-182.0","0","0","70772","","null","","","null","20","","","","","","","","","","","","","","","",""
"","ISI","","html-keyboard-response","130","4408202","0.0-1.0-183.0","0","0","70772","","null","","","null","20","NaN","","","","","","","","","","","","","","",""
"","S2","","html-keyboard-response","131","4408455","0.0-1.0-184.0","0","0","70772","","null","","","null","20","","NaN","","","","","","","","","","","","","",""
"","response","","html-keyboard-response","132","4408462","0.0-1.0-185.0-0.0","0","0","70772","","4","","","75","20","","","1","20","training","adjacent","BA","2","1","N.jpg","R.jpg","0","0","1","",""
"","feedback","","html-keyboard-response","133","4409490","0.0-1.0-186.0-0.0","0","0","70772","","null","","","null","20","","","","","","","","","","","","","","","",""
"","ITI","","html-keyboard-response","134","4410494","0.0-1.0-189.0","0","0","70772","","null","","","null","20","","","","","","","","","","","","","","","NaN",""
"","S1","","html-keyboard-response","135","4410746","0.0-1.0-191.0","0","0","70772","","null","","","null","21","","","","","","","","","","","","","","","",""
"","ISI","","html-keyboard-response","136","4411749","0.0-1.0-192.0","0","0","70772","","null","","","null","21","NaN","","","","","","","","","","","","","","",""
"","S2","","html-keyboard-response","137","4412001","0.0-1.0-193.0","0","0","70772","","null","","","null","21","","NaN","","","","","","","","","","","","","",""
"","response","","html-keyboard-response","138","4412085","0.0-1.0-194.0-0.0","0","0","70772","","82","","","68","21","","","1","21","training","adjacent","ED","5","4","O.jpg","M.jpg","1","0","0","",""
"","feedback","","html-keyboard-response","139","4413088","0.0-1.0-195.0-0.0","0","0","70772","","null","","","null","21","","","","","","","","","","","","","","","",""
"","time_out","","html-keyboard-response","140","4415090","0.0-1.0-197.0-0.0","0","0","70772","","null","","","null","21","","","","","","","","","","","","","","","",""
"","ITI","","html-keyboard-response","141","4416093","0.0-1.0-198.0","0","0","70772","","null","","","null","21","","","","","","","","","","","","","","","NaN",""
"","S1","","html-keyboard-response","142","4416345","0.0-1.0-200.0","0","0","70772","","null","","","null","22","","","","","","","","","","","","","","","",""
"","ISI","","html-keyboard-response","143","4417349","0.0-1.0-201.0","0","0","70772","","163","","","75","22","k","","","","","","","","","","","","","","",""
"","S2","","html-keyboard-response","144","4417601","0.0-1.0-202.0","0","0","70772","","null","","","null","22","","NaN","","","","","","","","","","","","","",""
"","response","","html-keyboard-response","145","4417629","0.0-1.0-203.0-0.0","0","0","70772","","27","","","75","22","","","1","22","training","adjacent","EF","5","6","O.jpg","L.jpg","0","1","0","",""
"","feedback","","html-keyboard-response","146","4418630","0.0-1.0-204.0-0.0","0","0","70772","","null","","","null","22","","","","","","","","","","","","","","","",""
"","time_out","","html-keyboard-response","147","4420632","0.0-1.0-206.0-0.0","0","0","70772","","null","","","null","22","","","","","","","","","","","","","","","",""
"","ITI","","html-keyboard-response","148","4421634","0.0-1.0-207.0","0","0","70772","","null","","","null","22","","","","","","","","","","","","","","","NaN",""
"","S1","","html-keyboard-response","149","4421886","0.0-1.0-209.0","0","0","70772","","null","","","null","23","","","","","","","","","","","","","","","",""
"","ISI","","html-keyboard-response","150","4422888","0.0-1.0-210.0","0","0","70772","","null","","","null","23","NaN","","","","","","","","","","","","","","",""
"","S2","","html-keyboard-response","151","4423144","0.0-1.0-211.0","0","0","70772","","null","","","null","23","","NaN","","","","","","","","","","","","","",""
"","response","","html-keyboard-response","152","4423153","0.0-1.0-212.0-0.0","0","0","70772","","7","","","75","23","","","1","23","training","adjacent","DC","4","3","M.jpg","Q.jpg","0","0","1","",""
"","feedback","","html-keyboard-response","153","4424156","0.0-1.0-213.0-0.0","0","0","70772","","null","","","null","23","","","","","","","","","","","","","","","",""
"","ITI","","html-keyboard-response","154","4425158","0.0-1.0-216.0","0","0","70772","","null","","","null","23","","","","","","","","","","","","","","","NaN",""
"","S1","","html-keyboard-response","155","4425411","0.0-1.0-218.0","0","0","70772","","null","","","null","24","","","","","","","","","","","","","","","",""
"","ISI","","html-keyboard-response","156","4426412","0.0-1.0-219.0","0","0","70772","","null","","","null","24","NaN","","","","","","","","","","","","","","",""
"","S2","","html-keyboard-response","157","4426663","0.0-1.0-220.0","0","0","70772","","null","","","null","24","","NaN","","","","","","","","","","","","","",""
"","response","","html-keyboard-response","158","4427029","0.0-1.0-221.0-0.0","0","0","70772","","364","","","75","24","","","1","24","training","adjacent","BC","2","3","N.jpg","Q.jpg","0","1","0","",""
"","feedback","","html-keyboard-response","159","4428031","0.0-1.0-222.0-0.0","0","0","70772","","null","","","null","24","","","","","","","","","","","","","","","",""
"","time_out","","html-keyboard-response","160","4430033","0.0-1.0-224.0-0.0","0","0","70772","","null","","","null","24","","","","","","","","","","","","","","","",""
"","ITI","","html-keyboard-response","161","4431035","0.0-1.0-225.0","0","0","70772","","null","","","null","24","","","","","","","","","","","","","","","NaN",""
"","S1","","html-keyboard-response","162","4431287","0.0-1.0-227.0","0","0","70772","","null","","","null","25","","","","","","","","","","","","","","","",""
"","ISI","","html-keyboard-response","163","4432325","0.0-1.0-228.0","0","0","70772","","null","","","null","25","NaN","","","","","","","","","","","","","","",""
"","S2","","html-keyboard-response","164","4432578","0.0-1.0-229.0","0","0","70772","","null","","","null","25","","NaN","","","","","","","","","","","","","",""
"","response","","html-keyboard-response","165","4432661","0.0-1.0-230.0-0.0","0","0","70772","","82","","","68","25","","","1","25","training","adjacent","CB","3","2","Q.jpg","N.jpg","1","0","0","",""
"","feedback","","html-keyboard-response","166","4433663","0.0-1.0-231.0-0.0","0","0","70772","","null","","","null","25","","","","","","","","","","","","","","","",""
"","time_out","","html-keyboard-response","167","4435665","0.0-1.0-233.0-0.0","0","0","70772","","null","","","null","25","","","","","","","","","","","","","","","",""
"","ITI","","html-keyboard-response","168","4436667","0.0-1.0-234.0","0","0","70772","","null","","","null","25","","","","","","","","","","","","","","","NaN",""
"","S1","","html-keyboard-response","169","4436920","0.0-1.0-236.0","0","0","70772","","null","","","null","26","","","","","","","","","","","","","","","",""
"","ISI","","html-keyboard-response","170","4437921","0.0-1.0-237.0","0","0","70772","","null","","","null","26","NaN","","","","","","","","","","","","","","",""
"","S2","","html-keyboard-response","171","4438183","0.0-1.0-238.0","0","0","70772","","null","","","null","26","","NaN","","","","","","","","","","","","","",""
"","response","","html-keyboard-response","172","4438197","0.0-1.0-239.0-0.0","0","0","70772","","12","","","68","26","","","1","26","training","adjacent","AB","1","2","R.jpg","N.jpg","1","1","1","",""
"","feedback","","html-keyboard-response","173","4439198","0.0-1.0-240.0-0.0","0","0","70772","","null","","","null","26","","","","","","","","","","","","","","","",""
"","ITI","","html-keyboard-response","174","4440200","0.0-1.0-243.0","0","0","70772","","null","","","null","26","","","","","","","","","","","","","","","NaN",""
"","S1","","html-keyboard-response","175","4440453","0.0-1.0-245.0","0","0","70772","","null","","","null","27","","","","","","","","","","","","","","","",""
"","ISI","","html-keyboard-response","176","4441455","0.0-1.0-246.0","0","0","70772","","null","","","null","27","NaN","","","","","","","","","","","","","","",""
"","S2","","html-keyboard-response","177","4441707","0.0-1.0-247.0","0","0","70772","","null","","","null","27","","NaN","","","","","","","","","","","","","",""
"","response","","html-keyboard-response","178","4441741","0.0-1.0-248.0-0.0","0","0","70772","","33","","","68","27","","","1","27","training","adjacent","FG","6","7","L.jpg","P.jpg","1","1","1","",""
"","feedback","","html-keyboard-response","179","4442744","0.0-1.0-249.0-0.0","0","0","70772","","null","","","null","27","","","","","","","","","","","","","","","",""
"","ITI","","html-keyboard-response","180","4443746","0.0-1.0-252.0","0","0","70772","","null","","","null","27","","","","","","","","","","","","","","","NaN",""
"","S1","","html-keyboard-response","181","4443998","0.0-1.0-254.0","0","0","70772","","null","","","null","28","","","","","","","","","","","","","","","",""
"","ISI","","html-keyboard-response","182","4445000","0.0-1.0-255.0","0","0","70772","","null","","","null","28","NaN","","","","","","","","","","","","","","",""
"","S2","","html-keyboard-response","183","4445253","0.0-1.0-256.0","0","0","70772","","null","","","null","28","","NaN","","","","","","","","","","","","","",""
"","response","","html-keyboard-response","184","4445502","0.0-1.0-257.0-0.0","0","0","70772","","248","","","68","28","","","1","28","training","adjacent","GF","7","6","P.jpg","L.jpg","1","0","0","",""
"","feedback","","html-keyboard-response","185","4446544","0.0-1.0-258.0-0.0","0","0","70772","","null","","","null","28","","","","","","","","","","","","","","","",""
"","time_out","","html-keyboard-response","186","4448546","0.0-1.0-260.0-0.0","0","0","70772","","null","","","null","28","","","","","","","","","","","","","","","",""
"","ITI","","html-keyboard-response","187","4449554","0.0-1.0-261.0","0","0","70772","","null","","","null","28","","","","","","","","","","","","","","","NaN",""
"","S1","","html-keyboard-response","188","4449807","0.0-1.0-263.0","0","0","70772","","null","","","null","29","","","","","","","","","","","","","","","",""
"","ISI","","html-keyboard-response","189","4450856","0.0-1.0-264.0","0","0","70772","","null","","","null","29","NaN","","","","","","","","","","","","","","",""
"","S2","","html-keyboard-response","190","4451094","0.0-1.0-265.0","0","0","70772","","237","","","68","29","","d","1","29","training","adjacent","CD","3","4","Q.jpg","M.jpg","1","1","1","",""
"","feedback","","html-keyboard-response","191","4452172","0.0-1.0-267.0-0.0","0","0","70772","","null","","","null","29","","","","","","","","","","","","","","","",""
"","ITI","","html-keyboard-response","192","4453176","0.0-1.0-270.0","0","0","70772","","null","","","null","29","","","","","","","","","","","","","","","NaN",""
"","S1","","html-keyboard-response","193","4453428","0.0-1.0-272.0","0","0","70772","","null","","","null","30","","","","","","","","","","","","","","","",""
"","ISI","","html-keyboard-response","194","4454431","0.0-1.0-273.0","0","0","70772","","null","","","null","30","NaN","","","","","","","","","","","","","","",""
"","S2","","html-keyboard-response","195","4454684","0.0-1.0-274.0","0","0","70772","","null","","","null","30","","NaN","","","","","","","","","","","","","",""
"","response","","html-keyboard-response","196","4454685","0.0-1.0-275.0-0.0","0","0","70772","","0","","","68","30","","","1","30","training","adjacent","BC","2","3","N.jpg","Q.jpg","1","1","1","",""
"","feedback","","html-keyboard-response","197","4455687","0.0-1.0-276.0-0.0","0","0","70772","","null","","","null","30","","","","","","","","","","","","","","","",""
"","ITI","","html-keyboard-response","198","4456688","0.0-1.0-279.0","0","0","70772","","null","","","null","30","","","","","","","","","","","","","","","NaN",""
"","S1","","html-keyboard-response","199","4456961","0.0-1.0-281.0","0","0","70772","","null","","","null","31","","","","","","","","","","","","","","","",""
"","ISI","","html-keyboard-response","200","4457963","0.0-1.0-282.0","0","0","70772","","null","","","null","31","NaN","","","","","","","","","","","","","","",""
"","S2","","html-keyboard-response","201","4458216","0.0-1.0-283.0","0","0","70772","","null","","","null","31","","NaN","","","","","","","","","","","","","",""
"","response","","html-keyboard-response","202","4458253","0.0-1.0-284.0-0.0","0","0","70772","","36","","","68","31","","","1","31","training","adjacent","BA","2","1","N.jpg","R.jpg","1","0","0","",""
"","feedback","","html-keyboard-response","203","4459255","0.0-1.0-285.0-0.0","0","0","70772","","null","","","null","31","","","","","","","","","","","","","","","",""
"","time_out","","html-keyboard-response","204","4461257","0.0-1.0-287.0-0.0","0","0","70772","","null","","","null","31","","","","","","","","","","","","","","","",""
"","ITI","","html-keyboard-response","205","4462260","0.0-1.0-288.0","0","0","70772","","null","","","null","31","","","","","","","","","","","","","","","NaN",""
"","S1","","html-keyboard-response","206","4462511","0.0-1.0-290.0","0","0","70772","","null","","","null","32","","","","","","","","","","","","","","","",""
"","ISI","","html-keyboard-response","207","4463513","0.0-1.0-291.0","0","0","70772","","null","","","null","32","NaN","","","","","","","","","","","","","","",""
"","S2","","html-keyboard-response","208","4463766","0.0-1.0-292.0","0","0","70772","","null","","","null","32","","NaN","","","","","","","","","","","","","",""
"","response","","html-keyboard-response","209","4463885","0.0-1.0-293.0-0.0","0","0","70772","","118","","","75","32","","","1","32","training","adjacent","CB","3","2","Q.jpg","N.jpg","0","0","1","",""
"","feedback","","html-keyboard-response","210","4464895","0.0-1.0-294.0-0.0","0","0","70772","","null","","","null","32","","","","","","","","","","","","","","","",""
"","ITI","","html-keyboard-response","211","4465897","0.0-1.0-297.0","0","0","70772","","null","","","null","32","","","","","","","","","","","","","","","NaN",""
"","S1","","html-keyboard-response","212","4466150","0.0-1.0-299.0","0","0","70772","","null","","","null","33","","","","","","","","","","","","","","","",""
"","ISI","","html-keyboard-response","213","4467152","0.0-1.0-300.0","0","0","70772","","null","","","null","33","NaN","","","","","","","","","","","","","","",""
"","S2","","html-keyboard-response","214","4467397","0.0-1.0-301.0","0","0","70772","","244","","","75","33","","k","1","33","training","adjacent","FG","6","7","L.jpg","P.jpg","0","1","0","",""
"","feedback","","html-keyboard-response","215","4468399","0.0-1.0-303.0-0.0","0","0","70772","","null","","","null","33","","","","","","","","","","","","","","","",""
"","time_out","","html-keyboard-response","216","4470401","0.0-1.0-305.0-0.0","0","0","70772","","null","","","null","33","","","","","","","","","","","","","","","",""
"","ITI","","html-keyboard-response","217","4471403","0.0-1.0-306.0","0","0","70772","","null","","","null","33","","","","","","","","","","","","","","","NaN",""
"","S1","","html-keyboard-response","218","4471655","0.0-1.0-308.0","0","0","70772","","null","","","null","34","","","","","","","","","","","","","","","",""
"","ISI","","html-keyboard-response","219","4472668","0.0-1.0-309.0","0","0","70772","","null","","","null","34","NaN","","","","","","","","","","","","","","",""
"","S2","","html-keyboard-response","220","4472919","0.0-1.0-310.0","0","0","70772","","null","","","null","34","","NaN","","","","","","","","","","","","","",""
"","response","","html-keyboard-response","221","4472949","0.0-1.0-311.0-0.0","0","0","70772","","28","","","68","34","","","1","34","training","adjacent","AB","1","2","R.jpg","N.jpg","1","1","1","",""
"","feedback","","html-keyboard-response","222","4473952","0.0-1.0-312.0-0.0","0","0","70772","","null","","","null","34","","","","","","","","","","","","","","","",""
"","ITI","","html-keyboard-response","223","4474954","0.0-1.0-315.0","0","0","70772","","null","","","null","34","","","","","","","","","","","","","","","NaN",""
"","S1","","html-keyboard-response","224","4475207","0.0-1.0-317.0","0","0","70772","","null","","","null","35","","","","","","","","","","","","","","","",""
"","ISI","","html-keyboard-response","225","4476209","0.0-1.0-318.0","0","0","70772","","null","","","null","35","NaN","","","","","","","","","","","","","","",""
"","S2","","html-keyboard-response","226","4476414","0.0-1.0-319.0","0","0","70772","","203","","","75","35","","k","1","35","training","adjacent","GF","7","6","P.jpg","L.jpg","0","0","1","",""
"","feedback","","html-keyboard-response","227","4477416","0.0-1.0-321.0-0.0","0","0","70772","","null","","","null","35","","","","","","","","","","","","","","","",""
"","ITI","","html-keyboard-response","228","4478495","0.0-1.0-324.0","0","0","70772","","null","","","null","35","","","","","","","","","","","","","","","NaN",""
"","S1","","html-keyboard-response","229","4478748","0.0-1.0-326.0","0","0","70772","","null","","","null","36","","","","","","","","","","","","","","","",""
"","ISI","","html-keyboard-response","230","4479749","0.0-1.0-327.0","0","0","70772","","null","","","null","36","NaN","","","","","","","","","","","","","","",""
"","S2","","html-keyboard-response","231","4480002","0.0-1.0-328.0","0","0","70772","","null","","","null","36","","NaN","","","","","","","","","","","","","",""
"","response","","html-keyboard-response","232","4480061","0.0-1.0-329.0-0.0","0","0","70772","","58","","","68","36","","","1","36","training","adjacent","CB","3","2","Q.jpg","N.jpg","1","0","0","",""
"","feedback","","html-keyboard-response","233","4481065","0.0-1.0-330.0-0.0","0","0","70772","","null","","","null","36","","","","","","","","","","","","","","","",""
"","time_out","","html-keyboard-response","234","4483066","0.0-1.0-332.0-0.0","0","0","70772","","null","","","null","36","","","","","","","","","","","","","","","",""
"","ITI","","html-keyboard-response","235","4484068","0.0-1.0-333.0","0","0","70772","","null","","","null","36","","","","","","","","","","","","","","","NaN",""
"","S1","","html-keyboard-response","236","4484321","0.0-1.0-335.0","0","0","70772","","null","","","null","37","","","","","","","","","","","","","","","",""
"","ISI","","html-keyboard-response","237","4485323","0.0-1.0-336.0","0","0","70772","","null","","","null","37","NaN","","","","","","","","","","","","","","",""
"","S2","","html-keyboard-response","238","4485575","0.0-1.0-337.0","0","0","70772","","null","","","null","37","","NaN","","","","","","","","","","","","","",""
"","response","","html-keyboard-response","239","4485909","0.0-1.0-338.0-0.0","0","0","70772","","332","","","75","37","","","1","37","training","adjacent","BC","2","3","N.jpg","Q.jpg","0","1","0","",""
"","feedback","","html-keyboard-response","240","4486913","0.0-1.0-339.0-0.0","0","0","70772","","null","","","null","37","","","","","","","","","","","","","","","",""
"","time_out","","html-keyboard-response","241","4488916","0.0-1.0-341.0-0.0","0","0","70772","","null","","","null","37","","","","","","","","","","","","","","","",""
"","ITI","","html-keyboard-response","242","4489918","0.0-1.0-342.0","0","0","70772","","null","","","null","37","","","","","","","","","","","","","","","NaN",""
"","S1","","html-keyboard-response","243","4490170","0.0-1.0-344.0","0","0","70772","","null","","","null","38","","","","","","","","","","","","","","","",""
"","ISI","","html-keyboard-response","244","4491177","0.0-1.0-345.0","0","0","70772","","null","","","null","38","NaN","","","","","","","","","","","","","","",""
"","S2","","html-keyboard-response","245","4491429","0.0-1.0-346.0","0","0","70772","","null","","","null","38","","NaN","","","","","","","","","","","","","",""
"","response","","html-keyboard-response","246","4491493","0.0-1.0-347.0-0.0","0","0","70772","","63","","","75","38","","","1","38","training","adjacent","CB","3","2","Q.jpg","N.jpg","0","0","1","",""
"","feedback","","html-keyboard-response","247","4492495","0.0-1.0-348.0-0.0","0","0","70772","","null","","","null","38","","","","","","","","","","","","","","","",""
"","ITI","","html-keyboard-response","248","4493497","0.0-1.0-351.0","0","0","70772","","null","","","null","38","","","","","","","","","","","","","","","NaN",""
"","S1","","html-keyboard-response","249","4493750","0.0-1.0-353.0","0","0","70772","","null","","","null","39","","","","","","","","","","","","","","","",""
"","ISI","","html-keyboard-response","250","4494752","0.0-1.0-354.0","0","0","70772","","null","","","null","39","NaN","","","","","","","","","","","","","","",""
"","S2","","html-keyboard-response","251","4495005","0.0-1.0-355.0","0","0","70772","","null","","","null","39","","NaN","","","","","","","","","","","","","",""
"","response","","html-keyboard-response","252","4495013","0.0-1.0-356.0-0.0","0","0","70772","","7","","","68","39","","","1","39","training","adjacent","FE","6","5","L.jpg","O.jpg","1","0","0","",""
"","feedback","","html-keyboard-response","253","4496016","0.0-1.0-357.0-0.0","0","0","70772","","null","","","null","39","","","","","","","","","","","","","","","",""
"","time_out","","html-keyboard-response","254","4498018","0.0-1.0-359.0-0.0","0","0","70772","","null","","","null","39","","","","","","","","","","","","","","","",""
"","ITI","","html-keyboard-response","255","4499020","0.0-1.0-360.0","0","0","70772","","null","","","null","39","","","","","","","","","","","","","","","NaN",""
"","S1","","html-keyboard-response","256","4499272","0.0-1.0-362.0","0","0","70772","","null","","","null","40","","","","","","","","","","","","","","","",""
"","ISI","","html-keyboard-response","257","4500274","0.0-1.0-363.0","0","0","70772","","null","","","null","40","NaN","","","","","","","","","","","","","","",""
"","S2","","html-keyboard-response","258","4500526","0.0-1.0-364.0","0","0","70772","","null","","","null","40","","NaN","","","","","","","","","","","","","",""
"","response","","html-keyboard-response","259","4500660","0.0-1.0-365.0-0.0","0","0","70772","","132","","","68","40","","","1","40","training","adjacent","FE","6","5","L.jpg","O.jpg","1","0","0","",""
"","feedback","","html-keyboard-response","260","4501662","0.0-1.0-366.0-0.0","0","0","70772","","null","","","null","40","","","","","","","","","","","","","","","",""
"","time_out","","html-keyboard-response","261","4503665","0.0-1.0-368.0-0.0","0","0","70772","","null","","","null","40","","","","","","","","","","","","","","","",""
"","ITI","","html-keyboard-response","262","4504667","0.0-1.0-369.0","0","0","70772","","null","","","null","40","","","","","","","","","","","","","","","NaN",""
"","S1","","html-keyboard-response","263","4504919","0.0-1.0-371.0","0","0","70772","","null","","","null","41","","","","","","","","","","","","","","","",""
"","ISI","","html-keyboard-response","264","4505921","0.0-1.0-372.0","0","0","70772","","null","","","null","41","NaN","","","","","","","","","","","","","","",""
"","S2","","html-keyboard-response","265","4506173","0.0-1.0-373.0","0","0","70772","","null","","","null","41","","NaN","","","","","","","","","","","","","",""
"","response","","html-keyboard-response","266","4506198","0.0-1.0-374.0-0.0","0","0","70772","","23","","","75","41","","","1","41","training","adjacent","EF","5","6","O.jpg","L.jpg","0","1","0","",""
"","feedback","","html-keyboard-response","267","4507200","0.0-1.0-375.0-0.0","0","0","70772","","null","","","null","41","","","","","","","","","","","","","","","",""
"","time_out","","html-keyboard-response","268","4509205","0.0-1.0-377.0-0.0","0","0","70772","","null","","","null","41","","","","","","","","","","","","","","","",""
"","ITI","","html-keyboard-response","269","4510244","0.0-1.0-378.0","0","0","70772","","null","","","null","41","","","","","","","","","","","","","","","NaN",""
"","S1","","html-keyboard-response","270","4510497","0.0-1.0-380.0","0","0","70772","","null","","","null","42","","","","","","","","","","","","","","","",""
"","ISI","","html-keyboard-response","271","4511499","0.0-1.0-381.0","0","0","70772","","null","","","null","42","NaN","","","","","","","","","","","","","","",""
"","S2","","html-keyboard-response","272","4511750","0.0-1.0-382.0","0","0","70772","","null","","","null","42","","NaN","","","","","","","","","","","","","",""
"","response","","html-keyboard-response","273","4511909","0.0-1.0-383.0-0.0","0","0","70772","","157","","","68","42","","","1","42","training","adjacent","ED","5","4","O.jpg","M.jpg","1","0","0","",""
"","feedback","","html-keyboard-response","274","4512911","0.0-1.0-384.0-0.0","0","0","70772","","null","","","null","42","","","","","","","","","","","","","","","",""
"","time_out","","html-keyboard-response","275","4514916","0.0-1.0-386.0-0.0","0","0","70772","","null","","","null","42","","","","","","","","","","","","","","","",""
"","ITI","","html-keyboard-response","276","4515917","0.0-1.0-387.0","0","0","70772","","null","","","null","42","","","","","","","","","","","","","","","NaN",""
"","S1","","html-keyboard-response","277","4516169","0.0-1.0-389.0","0","0","70772","","null","","","null","43","","","","","","","","","","","","","","","",""
"","ISI","","html-keyboard-response","278","4517172","0.0-1.0-390.0","0","0","70772","","null","","","null","43","NaN","","","","","","","","","","","","","","",""
"","S2","","html-keyboard-response","279","4517424","0.0-1.0-391.0","0","0","70772","","null","","","null","43","","NaN","","","","","","","","","","","","","",""
"","response","","html-keyboard-response","280","4517461","0.0-1.0-392.0-0.0","0","0","70772","","35","","","75","43","","","1","43","training","adjacent","DE","4","5","M.jpg","O.jpg","0","1","0","",""
"","feedback","","html-keyboard-response","281","4518528","0.0-1.0-393.0-0.0","0","0","70772","","null","","","null","43","","","","","","","","","","","","","","","",""
"","time_out","","html-keyboard-response","282","4520531","0.0-1.0-395.0-0.0","0","0","70772","","null","","","null","43","","","","","","","","","","","","","","","",""
"","ITI","","html-keyboard-response","283","4521535","0.0-1.0-396.0","0","0","70772","","null","","","null","43","","","","","","","","","","","","","","","NaN",""
"","S1","","html-keyboard-response","284","4521788","0.0-1.0-398.0","0","0","70772","","null","","","null","44","","","","","","","","","","","","","","","",""
"","ISI","","html-keyboard-response","285","4522804","0.0-1.0-399.0","0","0","70772","","null","","","null","44","NaN","","","","","","","","","","","","","","",""
"","S2","","html-keyboard-response","286","4523058","0.0-1.0-400.0","0","0","70772","","null","","","null","44","","NaN","","","","","","","","","","","","","",""
"","response","","html-keyboard-response","287","4523100","0.0-1.0-401.0-0.0","0","0","70772","","41","","","68","44","","","1","44","training","adjacent","FE","6","5","L.jpg","O.jpg","1","0","0","",""
"","feedback","","html-keyboard-response","288","4524104","0.0-1.0-402.0-0.0","0","0","70772","","null","","","null","44","","","","","","","","","","","","","","","",""
"","time_out","","html-keyboard-response","289","4526106","0.0-1.0-404.0-0.0","0","0","70772","","null","","","null","44","","","","","","","","","","","","","","","",""
"","ITI","","html-keyboard-response","290","4527107","0.0-1.0-405.0","0","0","70772","","null","","","null","44","","","","","","","","","","","","","","","NaN",""
"","S1","","html-keyboard-response","291","4527360","0.0-1.0-407.0","0","0","70772","","null","","","null","45","","","","","","","","","","","","","","","",""
"","ISI","","html-keyboard-response","292","4528363","0.0-1.0-408.0","0","0","70772","","null","","","null","45","NaN","","","","","","","","","","","","","","",""
"","S2","","html-keyboard-response","293","4528615","0.0-1.0-409.0","0","0","70772","","null","","","null","45","","NaN","","","","","","","","","","","","","",""
"","response","","html-keyboard-response","294","4528748","0.0-1.0-410.0-0.0","0","0","70772","","131","","","75","45","","","1","45","training","adjacent","ED","5","4","O.jpg","M.jpg","0","0","1","",""
"","feedback","","html-keyboard-response","295","4529751","0.0-1.0-411.0-0.0","0","0","70772","","null","","","null","45","","","","","","","","","","","","","","","",""
"","ITI","","html-keyboard-response","296","4530807","0.0-1.0-414.0","0","0","70772","","null","","","null","45","","","","","","","","","","","","","","","NaN",""
"","S1","","html-keyboard-response","297","4531060","0.0-1.0-416.0","0","0","70772","","null","","","null","46","","","","","","","","","","","","","","","",""
"","ISI","","html-keyboard-response","298","4532063","0.0-1.0-417.0","0","0","70772","","null","","","null","46","NaN","","","","","","","","","","","","","","",""
"","S2","","html-keyboard-response","299","4532308","0.0-1.0-418.0","0","0","70772","","244","","","75","46","","k","1","46","training","adjacent","GF","7","6","P.jpg","L.jpg","0","0","1","",""
"","feedback","","html-keyboard-response","300","4533310","0.0-1.0-420.0-0.0","0","0","70772","","null","","","null","46","","","","","","","","","","","","","","","",""
"","ITI","","html-keyboard-response","301","4534313","0.0-1.0-423.0","0","0","70772","","null","","","null","46","","","","","","","","","","","","","","","NaN",""
"","S1","","html-keyboard-response","302","4534568","0.0-1.0-425.0","0","0","70772","","null","","","null","47","","","","","","","","","","","","","","","",""
"","ISI","","html-keyboard-response","303","4535570","0.0-1.0-426.0","0","0","70772","","null","","","null","47","NaN","","","","","","","","","","","","","","",""
"","S2","","html-keyboard-response","304","4535822","0.0-1.0-427.0","0","0","70772","","null","","","null","47","","NaN","","","","","","","","","","","","","",""
"","response","","html-keyboard-response","305","4535854","0.0-1.0-428.0-0.0","0","0","70772","","30","","","68","47","","","1","47","training","adjacent","BA","2","1","N.jpg","R.jpg","1","0","0","",""
"","feedback","","html-keyboard-response","306","4536857","0.0-1.0-429.0-0.0","0","0","70772","","null","","","null","47","","","","","","","","","","","","","","","",""
"","time_out","","html-keyboard-response","307","4538860","0.0-1.0-431.0-0.0","0","0","70772","","null","","","null","47","","","","","","","","","","","","","","","",""
"","ITI","","html-keyboard-response","308","4539864","0.0-1.0-432.0","0","0","70772","","null","","","null","47","","","","","","","","","","","","","","","NaN",""
"","block_over","","html-keyboard-response","309","4930908","0.0-1.0-433.0-0.0","0","0","70772","","391041","","","32","47","","","","","","","","","","","","","","","",""
"","S1","","html-keyboard-response","310","4931160","0.0-1.0-434.0","0","0","70772","","null","","","null","48","","","","","","","","","","","","","","","",""
"","ISI","","html-keyboard-response","311","4932162","0.0-1.0-435.0","0","0","70772","","null","","","null","48","NaN","","","","","","","","","","","","","","",""
"","S2","","html-keyboard-response","312","4932415","0.0-1.0-436.0","0","0","70772","","null","","","null","48","","NaN","","","","","","","","","","","","","",""
"","response","","html-keyboard-response","313","4932503","0.0-1.0-437.0-0.0","0","0","70772","","87","","","75","48","","","2","48","training","adjacent","BA","2","1","N.jpg","R.jpg","0","0","1","",""
"","feedback","","html-keyboard-response","314","4933507","0.0-1.0-438.0-0.0","0","0","70772","","null","","","null","48","","","","","","","","","","","","","","","",""
"","ITI","","html-keyboard-response","315","4934509","0.0-1.0-441.0","0","0","70772","","null","","","null","48","","","","","","","","","","","","","","","NaN",""
"","S1","","html-keyboard-response","316","4934762","0.0-1.0-443.0","0","0","70772","","null","","","null","49","","","","","","","","","","","","","","","",""
"","ISI","","html-keyboard-response","317","4935765","0.0-1.0-444.0","0","0","70772","","null","","","null","49","NaN","","","","","","","","","","","","","","",""
"","S2","","html-keyboard-response","318","4936027","0.0-1.0-445.0","0","0","70772","","null","","","null","49","","NaN","","","","","","","","","","","","","",""
"","response","","html-keyboard-response","319","4936076","0.0-1.0-446.0-0.0","0","0","70772","","47","","","68","49","","","2","49","training","adjacent","CB","3","2","Q.jpg","N.jpg","1","0","0","",""
"","feedback","","html-keyboard-response","320","4937078","0.0-1.0-447.0-0.0","0","0","70772","","null","","","null","49","","","","","","","","","","","","","","","",""
"","time_out","","html-keyboard-response","321","4939081","0.0-1.0-449.0-0.0","0","0","70772","","null","","","null","49","","","","","","","","","","","","","","","",""
"","ITI","","html-keyboard-response","322","4940083","0.0-1.0-450.0","0","0","70772","","null","","","null","49","","","","","","","","","","","","","","","NaN",""
"","S1","","html-keyboard-response","323","4940335","0.0-1.0-452.0","0","0","70772","","null","","","null","50","","","","","","","","","","","","","","","",""
"","ISI","","html-keyboard-response","324","4941338","0.0-1.0-453.0","0","0","70772","","null","","","null","50","NaN","","","","","","","","","","","","","","",""
"","S2","","html-keyboard-response","325","4941591","0.0-1.0-454.0","0","0","70772","","null","","","null","50","","NaN","","","","","","","","","","","","","",""
"","response","","html-keyboard-response","326","4941637","0.0-1.0-455.0-0.0","0","0","70772","","45","","","68","50","","","2","50","training","adjacent","FG","6","7","L.jpg","P.jpg","1","1","1","",""
"","feedback","","html-keyboard-response","327","4942639","0.0-1.0-456.0-0.0","0","0","70772","","null","","","null","50","","","","","","","","","","","","","","","",""
"","ITI","","html-keyboard-response","328","4943641","0.0-1.0-459.0","0","0","70772","","null","","","null","50","","","","","","","","","","","","","","","NaN",""
"","S1","","html-keyboard-response","329","4943895","0.0-1.0-461.0","0","0","70772","","null","","","null","51","","","","","","","","","","","","","","","",""
"","ISI","","html-keyboard-response","330","4944899","0.0-1.0-462.0","0","0","70772","","null","","","null","51","NaN","","","","","","","","","","","","","","",""
"","S2","","html-keyboard-response","331","4945158","0.0-1.0-463.0","0","0","70772","","null","","","null","51","","NaN","","","","","","","","","","","","","",""
"","response","","html-keyboard-response","332","4945292","0.0-1.0-464.0-0.0","0","0","70772","","133","","","68","51","","","2","51","training","adjacent","FG","6","7","L.jpg","P.jpg","1","1","1","",""
"","feedback","","html-keyboard-response","333","4946294","0.0-1.0-465.0-0.0","0","0","70772","","null","","","null","51","","","","","","","","","","","","","","","",""
"","ITI","","html-keyboard-response","334","4947297","0.0-1.0-468.0","0","0","70772","","null","","","null","51","","","","","","","","","","","","","","","NaN",""
"","S1","","html-keyboard-response","335","4947550","0.0-1.0-470.0","0","0","70772","","null","","","null","52","","","","","","","","","","","","","","","",""
"","ISI","","html-keyboard-response","336","4948553","0.0-1.0-471.0","0","0","70772","","null","","","null","52","NaN","","","","","","","","","","","","","","",""
"","S2","","html-keyboard-response","337","4948779","0.0-1.0-472.0","0","0","70772","","224","","","75","52","","k","2","52","training","adjacent","DC","4","3","M.jpg","Q.jpg","0","0","1","",""
"","feedback","","html-keyboard-response","338","4949782","0.0-1.0-474.0-0.0","0","0","70772","","null","","","null","52","","","","","","","","","","","","","","","",""
"","ITI","","html-keyboard-response","339","4950795","0.0-1.0-477.0","0","0","70772","","null","","","null","52","","","","","","","","","","","","","","","NaN",""
"","S1","","html-keyboard-response","340","4951048","0.0-1.0-479.0","0","0","70772","","null","","","null","53","","","","","","","","","","","","","","","",""
"","ISI","","html-keyboard-response","341","4952050","0.0-1.0-480.0","0","0","70772","","null","","","null","53","NaN","","","","","","","","","","","","","","",""
"","S2","","html-keyboard-response","342","4952302","0.0-1.0-481.0","0","0","70772","","null","","","null","53","","NaN","","","","","","","","","","","","","",""
"","response","","html-keyboard-response","343","4952372","0.0-1.0-482.0-0.0","0","0","70772","","69","","","68","53","","","2","53","training","adjacent","BA","2","1","N.jpg","R.jpg","1","0","0","",""
"","feedback","","html-keyboard-response","344","4953374","0.0-1.0-483.0-0.0","0","0","70772","","null","","","null","53","","","","","","","","","","","","","","","",""
"","time_out","","html-keyboard-response","345","4955378","0.0-1.0-485.0-0.0","0","0","70772","","null","","","null","53","","","","","","","","","","","","","","","",""
"","ITI","","html-keyboard-response","346","4956380","0.0-1.0-486.0","0","0","70772","","null","","","null","53","","","","","","","","","","","","","","","NaN",""
"","S1","","html-keyboard-response","347","4956631","0.0-1.0-488.0","0","0","70772","","null","","","null","54","","","","","","","","","","","","","","","",""
"","ISI","","html-keyboard-response","348","4957635","0.0-1.0-489.0","0","0","70772","","null","","","null","54","NaN","","","","","","","","","","","","","","",""
"","S2","","html-keyboard-response","349","4957887","0.0-1.0-490.0","0","0","70772","","null","","","null","54","","NaN","","","","","","","","","","","","","",""
"","response","","html-keyboard-response","350","4957963","0.0-1.0-491.0-0.0","0","0","70772","","76","","","68","54","","","2","54","training","adjacent","BC","2","3","N.jpg","Q.jpg","1","1","1","",""
"","feedback","","html-keyboard-response","351","4958973","0.0-1.0-492.0-0.0","0","0","70772","","null","","","null","54","","","","","","","","","","","","","","","",""
"","ITI","","html-keyboard-response","352","4959975","0.0-1.0-495.0","0","0","70772","","null","","","null","54","","","","","","","","","","","","","","","NaN",""
"","S1","","html-keyboard-response","353","4960227","0.0-1.0-497.0","0","0","70772","","null","","","null","55","","","","","","","","","","","","","","","",""
"","ISI","","html-keyboard-response","354","4961233","0.0-1.0-498.0","0","0","70772","","null","","","null","55","NaN","","","","","","","","","","","","","","",""
"","S2","","html-keyboard-response","355","4961485","0.0-1.0-499.0","0","0","70772","","null","","","null","55","","NaN","","","","","","","","","","","","","",""
"","response","","html-keyboard-response","356","4961820","0.0-1.0-500.0-0.0","0","0","70772","","334","","","68","55","","","2","55","training","adjacent","DE","4","5","M.jpg","O.jpg","1","1","1","",""
"","feedback","","html-keyboard-response","357","4962822","0.0-1.0-501.0-0.0","0","0","70772","","null","","","null","55","","","","","","","","","","","","","","","",""
"","ITI","","html-keyboard-response","358","4963825","0.0-1.0-504.0","0","0","70772","","null","","","null","55","","","","","","","","","","","","","","","NaN",""
"","S1","","html-keyboard-response","359","4964077","0.0-1.0-506.0","0","0","70772","","null","","","null","56","","","","","","","","","","","","","","","",""
"","ISI","","html-keyboard-response","360","4965102","0.0-1.0-507.0","0","0","70772","","null","","","null","56","NaN","","","","","","","","","","","","","","",""
"","S2","","html-keyboard-response","361","4965355","0.0-1.0-508.0","0","0","70772","","null","","","null","56","","NaN","","","","","","","","","","","","","",""
"","response","","html-keyboard-response","362","4965468","0.0-1.0-509.0-0.0","0","0","70772","","112","","","68","56","","","2","56","training","adjacent","DE","4","5","M.jpg","O.jpg","1","1","1","",""
"","feedback","","html-keyboard-response","363","4966470","0.0-1.0-510.0-0.0","0","0","70772","","null","","","null","56","","","","","","","","","","","","","","","",""
"","ITI","","html-keyboard-response","364","4967486","0.0-1.0-513.0","0","0","70772","","null","","","null","56","","","","","","","","","","","","","","","NaN",""
"","S1","","html-keyboard-response","365","4967739","0.0-1.0-515.0","0","0","70772","","null","","","null","57","","","","","","","","","","","","","","","",""
"","ISI","","html-keyboard-response","366","4968783","0.0-1.0-516.0","0","0","70772","","null","","","null","57","NaN","","","","","","","","","","","","","","",""
"","S2","","html-keyboard-response","367","4969036","0.0-1.0-517.0","0","0","70772","","null","","","null","57","","NaN","","","","","","","","","","","","","",""
"","response","","html-keyboard-response","368","4969147","0.0-1.0-518.0-0.0","0","0","70772","","110","","","75","57","","","2","57","training","adjacent","GF","7","6","P.jpg","L.jpg","0","0","1","",""
"","feedback","","html-keyboard-response","369","4970149","0.0-1.0-519.0-0.0","0","0","70772","","null","","","null","57","","","","","","","","","","","","","","","",""
"","ITI","","html-keyboard-response","370","4971151","0.0-1.0-522.0","0","0","70772","","null","","","null","57","","","","","","","","","","","","","","","NaN",""
"","S1","","html-keyboard-response","371","4971404","0.0-1.0-524.0","0","0","70772","","null","","","null","58","","","","","","","","","","","","","","","",""
"","ISI","","html-keyboard-response","372","4972407","0.0-1.0-525.0","0","0","70772","","null","","","null","58","NaN","","","","","","","","","","","","","","",""
"","S2","","html-keyboard-response","373","4972659","0.0-1.0-526.0","0","0","70772","","null","","","null","58","","NaN","","","","","","","","","","","","","",""
"","response","","html-keyboard-response","374","4972875","0.0-1.0-527.0-0.0","0","0","70772","","216","","","68","58","","","2","58","training","adjacent","BC","2","3","N.jpg","Q.jpg","1","1","1","",""
"","feedback","","html-keyboard-response","375","4973877","0.0-1.0-528.0-0.0","0","0","70772","","null","","","null","58","","","","","","","","","","","","","","","",""
"","ITI","","html-keyboard-response","376","4974880","0.0-1.0-531.0","0","0","70772","","null","","","null","58","","","","","","","","","","","","","","","NaN",""
"","S1","","html-keyboard-response","377","4975132","0.0-1.0-533.0","0","0","70772","","null","","","null","59","","","","","","","","","","","","","","","",""
"","ISI","","html-keyboard-response","378","4976135","0.0-1.0-534.0","0","0","70772","","null","","","null","59","NaN","","","","","","","","","","","","","","",""
"","S2","","html-keyboard-response","379","4976387","0.0-1.0-535.0","0","0","70772","","null","","","null","59","","NaN","","","","","","","","","","","","","",""
"","response","","html-keyboard-response","380","4976428","0.0-1.0-536.0-0.0","0","0","70772","","40","","","68","59","","","2","59","training","adjacent","FE","6","5","L.jpg","O.jpg","1","0","0","",""
"","feedback","","html-keyboard-response","381","4977431","0.0-1.0-537.0-0.0","0","0","70772","","null","","","null","59","","","","","","","","","","","","","","","",""
"","time_out","","html-keyboard-response","382","4979434","0.0-1.0-539.0-0.0","0","0","70772","","null","","","null","59","","","","","","","","","","","","","","","",""
"","ITI","","html-keyboard-response","383","4980436","0.0-1.0-540.0","0","0","70772","","null","","","null","59","","","","","","","","","","","","","","","NaN",""
"","S1","","html-keyboard-response","384","4980687","0.0-1.0-542.0","0","0","70772","","null","","","null","60","","","","","","","","","","","","","","","",""
"","ISI","","html-keyboard-response","385","4981690","0.0-1.0-543.0","0","0","70772","","null","","","null","60","NaN","","","","","","","","","","","","","","",""
"","S2","","html-keyboard-response","386","4981943","0.0-1.0-544.0","0","0","70772","","null","","","null","60","","NaN","","","","","","","","","","","","","",""
"","response","","html-keyboard-response","387","4982020","0.0-1.0-545.0-0.0","0","0","70772","","76","","","68","60","","","2","60","training","adjacent","FG","6","7","L.jpg","P.jpg","1","1","1","",""
"","feedback","","html-keyboard-response","388","4983022","0.0-1.0-546.0-0.0","0","0","70772","","null","","","null","60","","","","","","","","","","","","","","","",""
"","ITI","","html-keyboard-response","389","4984026","0.0-1.0-549.0","0","0","70772","","null","","","null","60","","","","","","","","","","","","","","","NaN",""
"","S1","","html-keyboard-response","390","4984279","0.0-1.0-551.0","0","0","70772","","null","","","null","61","","","","","","","","","","","","","","","",""
"","ISI","","html-keyboard-response","391","4985281","0.0-1.0-552.0","0","0","70772","","null","","","null","61","NaN","","","","","","","","","","","","","","",""
"","S2","","html-keyboard-response","392","4985534","0.0-1.0-553.0","0","0","70772","","null","","","null","61","","NaN","","","","","","","","","","","","","",""
"","response","","html-keyboard-response","393","4985973","0.0-1.0-554.0-0.0","0","0","70772","","436","","","68","61","","","2","61","training","adjacent","ED","5","4","O.jpg","M.jpg","1","0","0","",""
"","feedback","","html-keyboard-response","394","4986976","0.0-1.0-555.0-0.0","0","0","70772","","null","","","null","61","","","","","","","","","","","","","","","",""
"","time_out","","html-keyboard-response","395","4988978","0.0-1.0-557.0-0.0","0","0","70772","","null","","","null","61","","","","","","","","","","","","","","","",""
"","ITI","","html-keyboard-response","396","4989986","0.0-1.0-558.0","0","0","70772","","null","","","null","61","","","","","","","","","","","","","","","NaN",""
"","S1","","html-keyboard-response","397","4990285","0.0-1.0-560.0","0","0","70772","","null","","","null","62","","","","","","","","","","","","","","","",""
"","ISI","","html-keyboard-response","398","4991288","0.0-1.0-561.0","0","0","70772","","null","","","null","62","NaN","","","","","","","","","","","","","","",""
"","S2","","html-keyboard-response","399","4991540","0.0-1.0-562.0","0","0","70772","","null","","","null","62","","NaN","","","","","","","","","","","","","",""
"","response","","html-keyboard-response","400","4991549","0.0-1.0-563.0-0.0","0","0","70772","","8","","","68","62","","","2","62","training","adjacent","FG","6","7","L.jpg","P.jpg","1","1","1","",""
"","feedback","","html-keyboard-response","401","4992551","0.0-1.0-564.0-0.0","0","0","70772","","null","","","null","62","","","","","","","","","","","","","","","",""
"","ITI","","html-keyboard-response","402","4993553","0.0-1.0-567.0","0","0","70772","","null","","","null","62","","","","","","","","","","","","","","","NaN",""
"","S1","","html-keyboard-response","403","4993806","0.0-1.0-569.0","0","0","70772","","null","","","null","63","","","","","","","","","","","","","","","",""
"","ISI","","html-keyboard-response","404","4994809","0.0-1.0-570.0","0","0","70772","","null","","","null","63","NaN","","","","","","","","","","","","","","",""
"","S2","","html-keyboard-response","405","4995061","0.0-1.0-571.0","0","0","70772","","null","","","null","63","","NaN","","","","","","","","","","","","","",""
"","response","","html-keyboard-response","406","4995245","0.0-1.0-572.0-0.0","0","0","70772","","183","","","75","63","","","2","63","training","adjacent","DE","4","5","M.jpg","O.jpg","0","1","0","",""
"","feedback","","html-keyboard-response","407","4996247","0.0-1.0-573.0-0.0","0","0","70772","","null","","","null","63","","","","","","","","","","","","","","","",""
"","time_out","","html-keyboard-response","408","4998249","0.0-1.0-575.0-0.0","0","0","70772","","null","","","null","63","","","","","","","","","","","","","","","",""
"","ITI","","html-keyboard-response","409","4999251","0.0-1.0-576.0","0","0","70772","","null","","","null","63","","","","","","","","","","","","","","","NaN",""
"","S1","","html-keyboard-response","410","4999504","0.0-1.0-578.0","0","0","70772","","null","","","null","64","","","","","","","","","","","","","","","",""
"","ISI","","html-keyboard-response","411","5000506","0.0-1.0-579.0","0","0","70772","","null","","","null","64","NaN","","","","","","","","","","","","","","",""
"","S2","","html-keyboard-response","412","5000758","0.0-1.0-580.0","0","0","70772","","null","","","null","64","","NaN","","","","","","","","","","","","","",""
"","response","","html-keyboard-response","413","5000804","0.0-1.0-581.0-0.0","0","0","70772","","44","","","75","64","","","2","64","training","adjacent","FE","6","5","L.jpg","O.jpg","0","0","1","",""
"","feedback","","html-keyboard-response","414","5001807","0.0-1.0-582.0-0.0","0","0","70772","","null","","","null","64","","","","","","","","","","","","","","","",""
"","ITI","","html-keyboard-response","415","5002809","0.0-1.0-585.0","0","0","70772","","null","","","null","64","","","","","","","","","","","","","","","NaN",""
"","S1","","html-keyboard-response","416","5003062","0.0-1.0-587.0","0","0","70772","","null","","","null","65","","","","","","","","","","","","","","","",""
"","ISI","","html-keyboard-response","417","5004064","0.0-1.0-588.0","0","0","70772","","null","","","null","65","NaN","","","","","","","","","","","","","","",""
"","S2","","html-keyboard-response","418","5004317","0.0-1.0-589.0","0","0","70772","","null","","","null","65","","NaN","","","","","","","","","","","","","",""
"","response","","html-keyboard-response","419","5004533","0.0-1.0-590.0-0.0","0","0","70772","","212","","","75","65","","","2","65","training","adjacent","ED","5","4","O.jpg","M.jpg","0","0","1","",""
"","feedback","","html-keyboard-response","420","5005536","0.0-1.0-591.0-0.0","0","0","70772","","null","","","null","65","","","","","","","","","","","","","","","",""
"","ITI","","html-keyboard-response","421","5006539","0.0-1.0-594.0","0","0","70772","","null","","","null","65","","","","","","","","","","","","","","","NaN",""
"","S1","","html-keyboard-response","422","5006791","0.0-1.0-596.0","0","0","70772","","null","","","null","66","","","","","","","","","","","","","","","",""
"","ISI","","html-keyboard-response","423","5007793","0.0-1.0-597.0","0","0","70772","","null","","","null","66","NaN","","","","","","","","","","","","","","",""
"","S2","","html-keyboard-response","424","5008046","0.0-1.0-598.0","0","0","70772","","null","","","null","66","","NaN","","","","","","","","","","","","","",""
"","response","","html-keyboard-response","425","5008213","0.0-1.0-599.0-0.0","0","0","70772","","166","","","75","66","","","2","66","training","adjacent","FE","6","5","L.jpg","O.jpg","0","0","1","",""
"","feedback","","html-keyboard-response","426","5009215","0.0-1.0-600.0-0.0","0","0","70772","","null","","","null","66","","","","","","","","","","","","","","","",""
"","ITI","","html-keyboard-response","427","5010217","0.0-1.0-603.0","0","0","70772","","null","","","null","66","","","","","","","","","","","","","","","NaN",""
"","S1","","html-keyboard-response","428","5010469","0.0-1.0-605.0","0","0","70772","","null","","","null","67","","","","","","","","","","","","","","","",""
"","ISI","","html-keyboard-response","429","5011471","0.0-1.0-606.0","0","0","70772","","null","","","null","67","NaN","","","","","","","","","","","","","","",""
"","S2","","html-keyboard-response","430","5011724","0.0-1.0-607.0","0","0","70772","","null","","","null","67","","NaN","","","","","","","","","","","","","",""
"","response","","html-keyboard-response","431","5011988","0.0-1.0-608.0-0.0","0","0","70772","","262","","","75","67","","","2","67","training","adjacent","CD","3","4","Q.jpg","M.jpg","0","1","0","",""
"","feedback","","html-keyboard-response","432","5012990","0.0-1.0-609.0-0.0","0","0","70772","","null","","","null","67","","","","","","","","","","","","","","","",""
"","time_out","","html-keyboard-response","433","5014992","0.0-1.0-611.0-0.0","0","0","70772","","null","","","null","67","","","","","","","","","","","","","","","",""
"","ITI","","html-keyboard-response","434","5015994","0.0-1.0-612.0","0","0","70772","","null","","","null","67","","","","","","","","","","","","","","","NaN",""
"","S1","","html-keyboard-response","435","5016253","0.0-1.0-614.0","0","0","70772","","null","","","null","68","","","","","","","","","","","","","","","",""
"","ISI","","html-keyboard-response","436","5017306","0.0-1.0-615.0","0","0","70772","","null","","","null","68","NaN","","","","","","","","","","","","","","",""
"","S2","","html-keyboard-response","437","5017558","0.0-1.0-616.0","0","0","70772","","null","","","null","68","","NaN","","","","","","","","","","","","","",""
"","response","","html-keyboard-response","438","5017636","0.0-1.0-617.0-0.0","0","0","70772","","76","","","68","68","","","2","68","training","adjacent","CD","3","4","Q.jpg","M.jpg","1","1","1","",""
"","feedback","","html-keyboard-response","439","5018645","0.0-1.0-618.0-0.0","0","0","70772","","null","","","null","68","","","","","","","","","","","","","","","",""
"","ITI","","html-keyboard-response","440","5019647","0.0-1.0-621.0","0","0","70772","","null","","","null","68","","","","","","","","","","","","","","","NaN",""
"","S1","","html-keyboard-response","441","5019899","0.0-1.0-623.0","0","0","70772","","null","","","null","69","","","","","","","","","","","","","","","",""
"","ISI","","html-keyboard-response","442","5020901","0.0-1.0-624.0","0","0","70772","","null","","","null","69","NaN","","","","","","","","","","","","","","",""
"","S2","","html-keyboard-response","443","5021155","0.0-1.0-625.0","0","0","70772","","null","","","null","69","","NaN","","","","","","","","","","","","","",""
"","response","","html-keyboard-response","444","5021160","0.0-1.0-626.0-0.0","0","0","70772","","2","","","68","69","","","2","69","training","adjacent","EF","5","6","O.jpg","L.jpg","1","1","1","",""
"","feedback","","html-keyboard-response","445","5022164","0.0-1.0-627.0-0.0","0","0","70772","","null","","","null","69","","","","","","","","","","","","","","","",""
"","ITI","","html-keyboard-response","446","5023167","0.0-1.0-630.0","0","0","70772","","null","","","null","69","","","","","","","","","","","","","","","NaN",""
"","S1","","html-keyboard-response","447","5023450","0.0-1.0-632.0","0","0","70772","","null","","","null","70","","","","","","","","","","","","","","","",""
"","ISI","","html-keyboard-response","448","5024452","0.0-1.0-633.0","0","0","70772","","null","","","null","70","NaN","","","","","","","","","","","","","","",""
"","S2","","html-keyboard-response","449","5024706","0.0-1.0-634.0","0","0","70772","","null","","","null","70","","NaN","","","","","","","","","","","","","",""
"","response","","html-keyboard-response","450","5024812","0.0-1.0-635.0-0.0","0","0","70772","","104","","","68","70","","","2","70","training","adjacent","CB","3","2","Q.jpg","N.jpg","1","0","0","",""
"","feedback","","html-keyboard-response","451","5025814","0.0-1.0-636.0-0.0","0","0","70772","","null","","","null","70","","","","","","","","","","","","","","","",""
"","time_out","","html-keyboard-response","452","5027816","0.0-1.0-638.0-0.0","0","0","70772","","null","","","null","70","","","","","","","","","","","","","","","",""
"","ITI","","html-keyboard-response","453","5028818","0.0-1.0-639.0","0","0","70772","","null","","","null","70","","","","","","","","","","","","","","","NaN",""
"","S1","","html-keyboard-response","454","5029070","0.0-1.0-641.0","0","0","70772","","null","","","null","71","","","","","","","","","","","","","","","",""
"","ISI","","html-keyboard-response","455","5030072","0.0-1.0-642.0","0","0","70772","","null","","","null","71","NaN","","","","","","","","","","","","","","",""
"","S2","","html-keyboard-response","456","5030327","0.0-1.0-643.0","0","0","70772","","null","","","null","71","","NaN","","","","","","","","","","","","","",""
"","response","","html-keyboard-response","457","5030478","0.0-1.0-644.0-0.0","0","0","70772","","149","","","75","71","","","2","71","training","adjacent","CD","3","4","Q.jpg","M.jpg","0","1","0","",""
"","feedback","","html-keyboard-response","458","5031481","0.0-1.0-645.0-0.0","0","0","70772","","null","","","null","71","","","","","","","","","","","","","","","",""
"","time_out","","html-keyboard-response","459","5033489","0.0-1.0-647.0-0.0","0","0","70772","","null","","","null","71","","","","","","","","","","","","","","","",""
"","ITI","","html-keyboard-response","460","5034503","0.0-1.0-648.0","0","0","70772","","null","","","null","71","","","","","","","","","","","","","","","NaN",""
"","S1","","html-keyboard-response","461","5034754","0.0-1.0-650.0","0","0","70772","","null","","","null","72","","","","","","","","","","","","","","","",""
"","ISI","","html-keyboard-response","462","5035756","0.0-1.0-651.0","0","0","70772","","null","","","null","72","NaN","","","","","","","","","","","","","","",""
"","S2","","html-keyboard-response","463","5036005","0.0-1.0-652.0","0","0","70772","","247","","","68","72","","d","2","72","training","adjacent","EF","5","6","O.jpg","L.jpg","1","1","1","",""
"","feedback","","html-keyboard-response","464","5037007","0.0-1.0-654.0-0.0","0","0","70772","","null","","","null","72","","","","","","","","","","","","","","","",""
"","ITI","","html-keyboard-response","465","5038009","0.0-1.0-657.0","0","0","70772","","null","","","null","72","","","","","","","","","","","","","","","NaN",""
"","S1","","html-keyboard-response","466","5038261","0.0-1.0-659.0","0","0","70772","","null","","","null","73","","","","","","","","","","","","","","","",""
"","ISI","","html-keyboard-response","467","5039263","0.0-1.0-660.0","0","0","70772","","null","","","null","73","NaN","","","","","","","","","","","","","","",""
"","S2","","html-keyboard-response","468","5039516","0.0-1.0-661.0","0","0","70772","","null","","","null","73","","NaN","","","","","","","","","","","","","",""
"","response","","html-keyboard-response","469","5039605","0.0-1.0-662.0-0.0","0","0","70772","","88","","","75","73","","","2","73","training","adjacent","DC","4","3","M.jpg","Q.jpg","0","0","1","",""
"","feedback","","html-keyboard-response","470","5040607","0.0-1.0-663.0-0.0","0","0","70772","","null","","","null","73","","","","","","","","","","","","","","","",""
"","ITI","","html-keyboard-response","471","5041609","0.0-1.0-666.0","0","0","70772","","null","","","null","73","","","","","","","","","","","","","","","NaN",""
"","S1","","html-keyboard-response","472","5041861","0.0-1.0-668.0","0","0","70772","","null","","","null","74","","","","","","","","","","","","","","","",""
"","ISI","","html-keyboard-response","473","5042865","0.0-1.0-669.0","0","0","70772","","null","","","null","74","NaN","","","","","","","","","","","","","","",""
"","S2","","html-keyboard-response","474","5043118","0.0-1.0-670.0","0","0","70772","","null","","","null","74","","NaN","","","","","","","","","","","","","",""
"","response","","html-keyboard-response","475","5043124","0.0-1.0-671.0-0.0","0","0","70772","","4","","","75","74","","","2","74","training","adjacent","GF","7","6","P.jpg","L.jpg","0","0","1","",""
"","feedback","","html-keyboard-response","476","5044126","0.0-1.0-672.0-0.0","0","0","70772","","null","","","null","74","","","","","","","","","","","","","","","",""
"","ITI","","html-keyboard-response","477","5045128","0.0-1.0-675.0","0","0","70772","","null","","","null","74","","","","","","","","","","","","","","","NaN",""
"","S1","","html-keyboard-response","478","5045380","0.0-1.0-677.0","0","0","70772","","null","","","null","75","","","","","","","","","","","","","","","",""
"","ISI","","html-keyboard-response","479","5046382","0.0-1.0-678.0","0","0","70772","","null","","","null","75","NaN","","","","","","","","","","","","","","",""
"","S2","","html-keyboard-response","480","5046634","0.0-1.0-679.0","0","0","70772","","null","","","null","75","","NaN","","","","","","","","","","","","","",""
"","response","","html-keyboard-response","481","5046812","0.0-1.0-680.0-0.0","0","0","70772","","177","","","68","75","","","2","75","training","adjacent","DE","4","5","M.jpg","O.jpg","1","1","1","",""
"","feedback","","html-keyboard-response","482","5047815","0.0-1.0-681.0-0.0","0","0","70772","","null","","","null","75","","","","","","","","","","","","","","","",""
"","ITI","","html-keyboard-response","483","5048817","0.0-1.0-684.0","0","0","70772","","null","","","null","75","","","","","","","","","","","","","","","NaN",""
"","S1","","html-keyboard-response","484","5049069","0.0-1.0-686.0","0","0","70772","","null","","","null","76","","","","","","","","","","","","","","","",""
"","ISI","","html-keyboard-response","485","5050072","0.0-1.0-687.0","0","0","70772","","null","","","null","76","NaN","","","","","","","","","","","","","","",""
"","S2","","html-keyboard-response","486","5050324","0.0-1.0-688.0","0","0","70772","","null","","","null","76","","NaN","","","","","","","","","","","","","",""
"","response","","html-keyboard-response","487","5050388","0.0-1.0-689.0-0.0","0","0","70772","","62","","","68","76","","","2","76","training","adjacent","CB","3","2","Q.jpg","N.jpg","1","0","0","",""
"","feedback","","html-keyboard-response","488","5051394","0.0-1.0-690.0-0.0","0","0","70772","","null","","","null","76","","","","","","","","","","","","","","","",""
"","time_out","","html-keyboard-response","489","5053397","0.0-1.0-692.0-0.0","0","0","70772","","null","","","null","76","","","","","","","","","","","","","","","",""
"","ITI","","html-keyboard-response","490","5054399","0.0-1.0-693.0","0","0","70772","","null","","","null","76","","","","","","","","","","","","","","","NaN",""
"","S1","","html-keyboard-response","491","5054651","0.0-1.0-695.0","0","0","70772","","null","","","null","77","","","","","","","","","","","","","","","",""
"","ISI","","html-keyboard-response","492","5055653","0.0-1.0-696.0","0","0","70772","","null","","","null","77","NaN","","","","","","","","","","","","","","",""
"","S2","","html-keyboard-response","493","5055906","0.0-1.0-697.0","0","0","70772","","null","","","null","77","","NaN","","","","","","","","","","","","","",""
"","response","","html-keyboard-response","494","5055965","0.0-1.0-698.0-0.0","0","0","70772","","57","","","68","77","","","2","77","training","adjacent","AB","1","2","R.jpg","N.jpg","1","1","1","",""
"","feedback","","html-keyboard-response","495","5056967","0.0-1.0-699.0-0.0","0","0","70772","","null","","","null","77","","","","","","","","","","","","","","","",""
"","ITI","","html-keyboard-response","496","5057983","0.0-1.0-702.0","0","0","70772","","null","","","null","77","","","","","","","","","","","","","","","NaN",""
"","S1","","html-keyboard-response","497","5058239","0.0-1.0-704.0","0","0","70772","","null","","","null","78","","","","","","","","","","","","","","","",""
"","ISI","","html-keyboard-response","498","5059242","0.0-1.0-705.0","0","0","70772","","null","","","null","78","NaN","","","","","","","","","","","","","","",""
"","S2","","html-keyboard-response","499","5059535","0.0-1.0-706.0","0","0","70772","","null","","","null","78","","NaN","","","","","","","","","","","","","",""
"","response","","html-keyboard-response","500","5059587","0.0-1.0-707.0-0.0","0","0","70772","","51","","","68","78","","","2","78","training","adjacent","BC","2","3","N.jpg","Q.jpg","1","1","1","",""
"","feedback","","html-keyboard-response","501","5060590","0.0-1.0-708.0-0.0","0","0","70772","","null","","","null","78","","","","","","","","","","","","","","","",""
"","ITI","","html-keyboard-response","502","5061640","0.0-1.0-711.0","0","0","70772","","null","","","null","78","","","","","","","","","","","","","","","NaN",""
"","S1","","html-keyboard-response","503","5061893","0.0-1.0-713.0","0","0","70772","","null","","","null","79","","","","","","","","","","","","","","","",""
"","ISI","","html-keyboard-response","504","5062895","0.0-1.0-714.0","0","0","70772","","null","","","null","79","NaN","","","","","","","","","","","","","","",""
"","S2","","html-keyboard-response","505","5063148","0.0-1.0-715.0","0","0","70772","","null","","","null","79","","NaN","","","","","","","","","","","","","",""
"","response","","html-keyboard-response","506","5063259","0.0-1.0-716.0-0.0","0","0","70772","","109","","","75","79","","","2","79","training","adjacent","DC","4","3","M.jpg","Q.jpg","0","0","1","",""
"","feedback","","html-keyboard-response","507","5064263","0.0-1.0-717.0-0.0","0","0","70772","","null","","","null","79","","","","","","","","","","","","","","","",""
"","ITI","","html-keyboard-response","508","5065266","0.0-1.0-720.0","0","0","70772","","null","","","null","79","","","","","","","","","","","","","","","NaN",""
"","S1","","html-keyboard-response","509","5065548","0.0-1.0-722.0","0","0","70772","","null","","","null","80","","","","","","","","","","","","","","","",""
"","ISI","","html-keyboard-response","510","5066550","0.0-1.0-723.0","0","0","70772","","null","","","null","80","NaN","","","","","","","","","","","","","","",""
"","S2","","html-keyboard-response","511","5066802","0.0-1.0-724.0","0","0","70772","","null","","","null","80","","NaN","","","","","","","","","","","","","",""
"","response","","html-keyboard-response","512","5066868","0.0-1.0-725.0-0.0","0","0","70772","","65","","","75","80","","","2","80","training","adjacent","DC","4","3","M.jpg","Q.jpg","0","0","1","",""
"","feedback","","html-keyboard-response","513","5067871","0.0-1.0-726.0-0.0","0","0","70772","","null","","","null","80","","","","","","","","","","","","","","","",""
"","ITI","","html-keyboard-response","514","5068873","0.0-1.0-729.0","0","0","70772","","null","","","null","80","","","","","","","","","","","","","","","NaN",""
"","S1","","html-keyboard-response","515","5069125","0.0-1.0-731.0","0","0","70772","","null","","","null","81","","","","","","","","","","","","","","","",""
"","ISI","","html-keyboard-response","516","5070126","0.0-1.0-732.0","0","0","70772","","null","","","null","81","NaN","","","","","","","","","","","","","","",""
"","S2","","html-keyboard-response","517","5070378","0.0-1.0-733.0","0","0","70772","","null","","","null","81","","NaN","","","","","","","","","","","","","",""
"","response","","html-keyboard-response","518","5070476","0.0-1.0-734.0-0.0","0","0","70772","","96","","","68","81","","","2","81","training","adjacent","AB","1","2","R.jpg","N.jpg","1","1","1","",""
"","feedback","","html-keyboard-response","519","5071479","0.0-1.0-735.0-0.0","0","0","70772","","null","","","null","81","","","","","","","","","","","","","","","",""
"","ITI","","html-keyboard-response","520","5072481","0.0-1.0-738.0","0","0","70772","","null","","","null","81","","","","","","","","","","","","","","","NaN",""
"","S1","","html-keyboard-response","521","5072733","0.0-1.0-740.0","0","0","70772","","null","","","null","82","","","","","","","","","","","","","","","",""
"","ISI","","html-keyboard-response","522","5073735","0.0-1.0-741.0","0","0","70772","","null","","","null","82","NaN","","","","","","","","","","","","","","",""
"","S2","","html-keyboard-response","523","5073988","0.0-1.0-742.0","0","0","70772","","null","","","null","82","","NaN","","","","","","","","","","","","","",""
"","response","","html-keyboard-response","524","5074033","0.0-1.0-743.0-0.0","0","0","70772","","43","","","68","82","","","2","82","training","adjacent","BA","2","1","N.jpg","R.jpg","1","0","0","",""
"","feedback","","html-keyboard-response","525","5075035","0.0-1.0-744.0-0.0","0","0","70772","","null","","","null","82","","","","","","","","","","","","","","","",""
"","time_out","","html-keyboard-response","526","5077038","0.0-1.0-746.0-0.0","0","0","70772","","null","","","null","82","","","","","","","","","","","","","","","",""
"","ITI","","html-keyboard-response","527","5078040","0.0-1.0-747.0","0","0","70772","","null","","","null","82","","","","","","","","","","","","","","","NaN",""
"","S1","","html-keyboard-response","528","5078304","0.0-1.0-749.0","0","0","70772","","null","","","null","83","","","","","","","","","","","","","","","",""
"","ISI","","html-keyboard-response","529","5079307","0.0-1.0-750.0","0","0","70772","","null","","","null","83","NaN","","","","","","","","","","","","","","",""
"","S2","","html-keyboard-response","530","5079559","0.0-1.0-751.0","0","0","70772","","null","","","null","83","","NaN","","","","","","","","","","","","","",""
"","response","","html-keyboard-response","531","5079652","0.0-1.0-752.0-0.0","0","0","70772","","92","","","75","83","","","2","83","training","adjacent","AB","1","2","R.jpg","N.jpg","0","1","0","",""
"","feedback","","html-keyboard-response","532","5080654","0.0-1.0-753.0-0.0","0","0","70772","","null","","","null","83","","","","","","","","","","","","","","","",""
"","time_out","","html-keyboard-response","533","5082657","0.0-1.0-755.0-0.0","0","0","70772","","null","","","null","83","","","","","","","","","","","","","","","",""
"","ITI","","html-keyboard-response","534","5083676","0.0-1.0-756.0","0","0","70772","","null","","","null","83","","","","","","","","","","","","","","","NaN",""
"","S1","","html-keyboard-response","535","5083928","0.0-1.0-758.0","0","0","70772","","null","","","null","84","","","","","","","","","","","","","","","",""
"","ISI","","html-keyboard-response","536","5084931","0.0-1.0-759.0","0","0","70772","","null","","","null","84","NaN","","","","","","","","","","","","","","",""
"","S2","","html-keyboard-response","537","5085180","0.0-1.0-760.0","0","0","70772","","247","","","75","84","","k","2","84","training","adjacent","EF","5","6","O.jpg","L.jpg","0","1","0","",""
"","feedback","","html-keyboard-response","538","5086187","0.0-1.0-762.0-0.0","0","0","70772","","null","","","null","84","","","","","","","","","","","","","","","",""
"","time_out","","html-keyboard-response","539","5088190","0.0-1.0-764.0-0.0","0","0","70772","","null","","","null","84","","","","","","","","","","","","","","","",""
"","ITI","","html-keyboard-response","540","5089192","0.0-1.0-765.0","0","0","70772","","null","","","null","84","","","","","","","","","","","","","","","NaN",""
"","S1","","html-keyboard-response","541","5089445","0.0-1.0-767.0","0","0","70772","","null","","","null","85","","","","","","","","","","","","","","","",""
"","ISI","","html-keyboard-response","542","5090448","0.0-1.0-768.0","0","0","70772","","null","","","null","85","NaN","","","","","","","","","","","","","","",""
"","S2","","html-keyboard-response","543","5090700","0.0-1.0-769.0","0","0","70772","","null","","","null","85","","NaN","","","","","","","","","","","","","",""
"","response","","html-keyboard-response","544","5090780","0.0-1.0-770.0-0.0","0","0","70772","","79","","","68","85","","","2","85","training","adjacent","CB","3","2","Q.jpg","N.jpg","1","0","0","",""
"","feedback","","html-keyboard-response","545","5091783","0.0-1.0-771.0-0.0","0","0","70772","","null","","","null","85","","","","","","","","","","","","","","","",""
"","time_out","","html-keyboard-response","546","5093785","0.0-1.0-773.0-0.0","0","0","70772","","null","","","null","85","","","","","","","","","","","","","","","",""
"","ITI","","html-keyboard-response","547","5094787","0.0-1.0-774.0","0","0","70772","","null","","","null","85","","","","","","","","","","","","","","","NaN",""
"","S1","","html-keyboard-response","548","5095039","0.0-1.0-776.0","0","0","70772","","null","","","null","86","","","","","","","","","","","","","","","",""
"","ISI","","html-keyboard-response","549","5096042","0.0-1.0-777.0","0","0","70772","","null","","","null","86","NaN","","","","","","","","","","","","","","",""
"","S2","","html-keyboard-response","550","5096284","0.0-1.0-778.0","0","0","70772","","240","","","75","86","","k","2","86","training","adjacent","GF","7","6","P.jpg","L.jpg","0","0","1","",""
"","feedback","","html-keyboard-response","551","5097286","0.0-1.0-780.0-0.0","0","0","70772","","null","","","null","86","","","","","","","","","","","","","","","",""
"","ITI","","html-keyboard-response","552","5098288","0.0-1.0-783.0","0","0","70772","","null","","","null","86","","","","","","","","","","","","","","","NaN",""
"","S1","","html-keyboard-response","553","5098541","0.0-1.0-785.0","0","0","70772","","null","","","null","87","","","","","","","","","","","","","","","",""
"","ISI","","html-keyboard-response","554","5099578","0.0-1.0-786.0","0","0","70772","","null","","","null","87","NaN","","","","","","","","","","","","","","",""
"","S2","","html-keyboard-response","555","5099830","0.0-1.0-787.0","0","0","70772","","null","","","null","87","","NaN","","","","","","","","","","","","","",""
"","response","","html-keyboard-response","556","5099932","0.0-1.0-788.0-0.0","0","0","70772","","100","","","68","87","","","2","87","training","adjacent","CD","3","4","Q.jpg","M.jpg","1","1","1","",""
"","feedback","","html-keyboard-response","557","5100934","0.0-1.0-789.0-0.0","0","0","70772","","null","","","null","87","","","","","","","","","","","","","","","",""
"","ITI","","html-keyboard-response","558","5101936","0.0-1.0-792.0","0","0","70772","","null","","","null","87","","","","","","","","","","","","","","","NaN",""
"","S1","","html-keyboard-response","559","5102190","0.0-1.0-794.0","0","0","70772","","null","","","null","88","","","","","","","","","","","","","","","",""
"","ISI","","html-keyboard-response","560","5103191","0.0-1.0-795.0","0","0","70772","","null","","","null","88","NaN","","","","","","","","","","","","","","",""
"","S2","","html-keyboard-response","561","5103444","0.0-1.0-796.0","0","0","70772","","null","","","null","88","","NaN","","","","","","","","","","","","","",""
"","response","","html-keyboard-response","562","5103484","0.0-1.0-797.0-0.0","0","0","70772","","38","","","75","88","","","2","88","training","adjacent","FE","6","5","L.jpg","O.jpg","0","0","1","",""
"","feedback","","html-keyboard-response","563","5104487","0.0-1.0-798.0-0.0","0","0","70772","","null","","","null","88","","","","","","","","","","","","","","","",""
"","ITI","","html-keyboard-response","564","5105526","0.0-1.0-801.0","0","0","70772","","null","","","null","88","","","","","","","","","","","","","","","NaN",""
"","S1","","html-keyboard-response","565","5105778","0.0-1.0-803.0","0","0","70772","","null","","","null","89","","","","","","","","","","","","","","","",""
"","ISI","","html-keyboard-response","566","5106780","0.0-1.0-804.0","0","0","70772","","null","","","null","89","NaN","","","","","","","","","","","","","","",""
"","S2","","html-keyboard-response","567","5107028","0.0-1.0-805.0","0","0","70772","","246","","","68","89","","d","2","89","training","adjacent","BC","2","3","N.jpg","Q.jpg","1","1","1","",""
"","feedback","","html-keyboard-response","568","5108055","0.0-1.0-807.0-0.0","0","0","70772","","null","","","null","89","","","","","","","","","","","","","","","",""
"","ITI","","html-keyboard-response","569","5109057","0.0-1.0-810.0","0","0","70772","","null","","","null","89","","","","","","","","","","","","","","","NaN",""
"","S1","","html-keyboard-response","570","5109309","0.0-1.0-812.0","0","0","70772","","null","","","null","90","","","","","","","","","","","","","","","",""
"","ISI","","html-keyboard-response","571","5110312","0.0-1.0-813.0","0","0","70772","","null","","","null","90","NaN","","","","","","","","","","","","","","",""
"","S2","","html-keyboard-response","572","5110564","0.0-1.0-814.0","0","0","70772","","251","","","75","90","","k","2","90","training","adjacent","GF","7","6","P.jpg","L.jpg","0","0","1","",""
"","feedback","","html-keyboard-response","573","5111566","0.0-1.0-816.0-0.0","0","0","70772","","null","","","null","90","","","","","","","","","","","","","","","",""
"","ITI","","html-keyboard-response","574","5112568","0.0-1.0-819.0","0","0","70772","","null","","","null","90","","","","","","","","","","","","","","","NaN",""
"","S1","","html-keyboard-response","575","5112820","0.0-1.0-821.0","0","0","70772","","null","","","null","91","","","","","","","","","","","","","","","",""
"","ISI","","html-keyboard-response","576","5113822","0.0-1.0-822.0","0","0","70772","","null","","","null","91","NaN","","","","","","","","","","","","","","",""
"","S2","","html-keyboard-response","577","5114097","0.0-1.0-823.0","0","0","70772","","null","","","null","91","","NaN","","","","","","","","","","","","","",""
"","response","","html-keyboard-response","578","5114100","0.0-1.0-824.0-0.0","0","0","70772","","1","","","68","91","","","2","91","training","adjacent","BA","2","1","N.jpg","R.jpg","1","0","0","",""
"","feedback","","html-keyboard-response","579","5115104","0.0-1.0-825.0-0.0","0","0","70772","","null","","","null","91","","","","","","","","","","","","","","","",""
