"success","ttype","start_time","trial_type","trial_index","time_elapsed","internal_node_id","warning","missed_checkup","PID","view_history","rt","responses","repeat_instructions","key_press","index","keypress_isi","keypress_S2","block","trial_num","phase","group_type","pair_type","S1_stim","S2_stim","S1_img","S2_img","S1_chosen","S1_higher","accuracy","keypress_iti","total_bonus_tally"
"true","full_screen","d03042023hr0042","fullscreen","0","10349","0.0-0.0","0","0","60795","","","","","","","","","","","","","","","","","","","","","",""
"","instructions","","instructions","1","57553","0.0-1.0-0.0-0.0","0","0","60795","[{""page_index"":0,""viewing_time"":4845},{""page_index"":1,""viewing_time"":28896},{""page_index"":2,""viewing_time"":11248},{""page_index"":3,""viewing_time"":2208}]","47198","","","","","","","","","","","","","","","","","","","",""
"","comprehension_check","","survey-multi-choice","2","83903","0.0-1.0-0.0-1.0","0","0","60795","","26340","{""Q0"":""True"",""Q1"":""K"",""Q2"":""Once the second image appears and while the screen 'MAKE A CHOICE' is shown"",""Q3"":""Green mark"",""Q4"":""either D or K""}","0","","","","","","","","","","","","","","","","","",""
"","start_exp","","html-keyboard-response","3","86867","0.0-1.0-1.0","0","0","60795","","2959","","","32","","","","","","","","","","","","","","","","",""
"","S1","","html-keyboard-response","4","87130","0.0-1.0-2.0","0","0","60795","","null","","","null","0","","","","","","","","","","","","","","","",""
"","ISI","","html-keyboard-response","5","87649","0.0-1.0-3.0","0","0","60795","","null","","","null","0","NaN","","","","","","","","","","","","","","",""
"","S2","","html-keyboard-response","6","87916","0.0-1.0-4.0","0","0","60795","","null","","","null","0","","NaN","","","","","","","","","","","","","",""
"","response","","html-keyboard-response","7","88884","0.0-1.0-5.0-0.0","0","0","60795","","964","","","68","0","","","1","0","training","adjacent","AB","1","2","P.jpg","O.jpg","0","1","0","",""
"","feedback","","html-keyboard-response","8","89897","0.0-1.0-6.0-0.0","0","0","60795","","null","","","null","0","","","","","","","","","","","","","","","",""
"","time_out","","html-keyboard-response","9","91904","0.0-1.0-8.0-0.0","0","0","60795","","null","","","null","0","","","","","","","","","","","","","","","",""
"","ITI","","html-keyboard-response","10","92912","0.0-1.0-9.0","0","0","60795","","null","","","null","0","","","","","","","","","","","","","","","NaN",""
"","S1","","html-keyboard-response","11","93178","0.0-1.0-11.0","0","0","60795","","null","","","null","1","","","","","","","","","","","","","","","",""
"","ISI","","html-keyboard-response","12","93683","0.0-1.0-12.0","0","0","60795","","null","","","null","1","NaN","","","","","","","","","","","","","","",""
"","S2","","html-keyboard-response","13","93950","0.0-1.0-13.0","0","0","60795","","null","","","null","1","","NaN","","","","","","","","","","","","","",""
"","response","","html-keyboard-response","14","94358","0.0-1.0-14.0-0.0","0","0","60795","","404","","","75","1","","","1","1","training","adjacent","FE","6","5","R.jpg","L.jpg","1","0","0","",""
"","feedback","","html-keyboard-response","15","95377","0.0-1.0-15.0-0.0","0","0","60795","","null","","","null","1","","","","","","","","","","","","","","","",""
"","time_out","","html-keyboard-response","16","97388","0.0-1.0-17.0-0.0","0","0","60795","","null","","","null","1","","","","","","","","","","","","","","","",""
"","ITI","","html-keyboard-response","17","98395","0.0-1.0-18.0","0","0","60795","","null","","","null","1","","","","","","","","","","","","","","","NaN",""
"","S1","","html-keyboard-response","18","98661","0.0-1.0-20.0","0","0","60795","","null","","","null","2","","","","","","","","","","","","","","","",""
"","ISI","","html-keyboard-response","19","99180","0.0-1.0-21.0","0","0","60795","","null","","","null","2","NaN","","","","","","","","","","","","","","",""
"","S2","","html-keyboard-response","20","99447","0.0-1.0-22.0","0","0","60795","","null","","","null","2","","NaN","","","","","","","","","","","","","",""
"","response","","html-keyboard-response","21","99944","0.0-1.0-23.0-0.0","0","0","60795","","495","","","68","2","","","1","2","training","adjacent","DC","4","3","N.jpg","M.jpg","0","0","1","",""
"","feedback","","html-keyboard-response","22","100953","0.0-1.0-24.0-0.0","0","0","60795","","null","","","null","2","","","","","","","","","","","","","","","",""
"","ITI","","html-keyboard-response","23","101958","0.0-1.0-27.0","0","0","60795","","null","","","null","2","","","","","","","","","","","","","","","NaN",""
"","S1","","html-keyboard-response","24","102225","0.0-1.0-29.0","0","0","60795","","null","","","null","3","","","","","","","","","","","","","","","",""
"","ISI","","html-keyboard-response","25","102744","0.0-1.0-30.0","0","0","60795","","null","","","null","3","NaN","","","","","","","","","","","","","","",""
"","S2","","html-keyboard-response","26","103010","0.0-1.0-31.0","0","0","60795","","null","","","null","3","","NaN","","","","","","","","","","","","","",""
"","response","","html-keyboard-response","27","103435","0.0-1.0-32.0-0.0","0","0","60795","","421","","","75","3","","","1","3","training","adjacent","ED","5","4","L.jpg","N.jpg","1","0","0","",""
"","feedback","","html-keyboard-response","28","104444","0.0-1.0-33.0-0.0","0","0","60795","","null","","","null","3","","","","","","","","","","","","","","","",""
"","time_out","","html-keyboard-response","29","106460","0.0-1.0-35.0-0.0","0","0","60795","","null","","","null","3","","","","","","","","","","","","","","","",""
"","ITI","","html-keyboard-response","30","107468","0.0-1.0-36.0","0","0","60795","","null","","","null","3","","","","","","","","","","","","","","","NaN",""
"","S1","","html-keyboard-response","31","107733","0.0-1.0-38.0","0","0","60795","","null","","","null","4","","","","","","","","","","","","","","","",""
"","ISI","","html-keyboard-response","32","108254","0.0-1.0-39.0","0","0","60795","","null","","","null","4","NaN","","","","","","","","","","","","","","",""
"","S2","","html-keyboard-response","33","108518","0.0-1.0-40.0","0","0","60795","","null","","","null","4","","NaN","","","","","","","","","","","","","",""
"","response","","html-keyboard-response","34","109090","0.0-1.0-41.0-0.0","0","0","60795","","569","","","68","4","","","1","4","training","adjacent","FG","6","7","R.jpg","Q.jpg","0","1","0","",""
"","feedback","","html-keyboard-response","35","110109","0.0-1.0-42.0-0.0","0","0","60795","","null","","","null","4","","","","","","","","","","","","","","","",""
"","time_out","","html-keyboard-response","36","112121","0.0-1.0-44.0-0.0","0","0","60795","","null","","","null","4","","","","","","","","","","","","","","","",""
"","ITI","","html-keyboard-response","37","113130","0.0-1.0-45.0","0","0","60795","","null","","","null","4","","","","","","","","","","","","","","","NaN",""
"","S1","","html-keyboard-response","38","113398","0.0-1.0-47.0","0","0","60795","","null","","","null","5","","","","","","","","","","","","","","","",""
"","ISI","","html-keyboard-response","39","113901","0.0-1.0-48.0","0","0","60795","","null","","","null","5","NaN","","","","","","","","","","","","","","",""
"","S2","","html-keyboard-response","40","114168","0.0-1.0-49.0","0","0","60795","","null","","","null","5","","NaN","","","","","","","","","","","","","",""
"","response","","html-keyboard-response","41","114670","0.0-1.0-50.0-0.0","0","0","60795","","498","","","75","5","","","1","5","training","adjacent","EF","5","6","L.jpg","R.jpg","1","1","1","",""
"","feedback","","html-keyboard-response","42","115680","0.0-1.0-51.0-0.0","0","0","60795","","null","","","null","5","","","","","","","","","","","","","","","",""
"","ITI","","html-keyboard-response","43","116685","0.0-1.0-54.0","0","0","60795","","null","","","null","5","","","","","","","","","","","","","","","NaN",""
"","S1","","html-keyboard-response","44","116955","0.0-1.0-56.0","0","0","60795","","null","","","null","6","","","","","","","","","","","","","","","",""
"","ISI","","html-keyboard-response","45","117470","0.0-1.0-57.0","0","0","60795","","null","","","null","6","NaN","","","","","","","","","","","","","","",""
"","S2","","html-keyboard-response","46","117739","0.0-1.0-58.0","0","0","60795","","null","","","null","6","","NaN","","","","","","","","","","","","","",""
"","response","","html-keyboard-response","47","118394","0.0-1.0-59.0-0.0","0","0","60795","","652","","","68","6","","","1","6","training","adjacent","CD","3","4","M.jpg","N.jpg","0","1","0","",""
"","feedback","","html-keyboard-response","48","119406","0.0-1.0-60.0-0.0","0","0","60795","","null","","","null","6","","","","","","","","","","","","","","","",""
"","time_out","","html-keyboard-response","49","121417","0.0-1.0-62.0-0.0","0","0","60795","","null","","","null","6","","","","","","","","","","","","","","","",""
"","ITI","","html-keyboard-response","50","122422","0.0-1.0-63.0","0","0","60795","","null","","","null","6","","","","","","","","","","","","","","","NaN",""
"","S1","","html-keyboard-response","51","122689","0.0-1.0-65.0","0","0","60795","","null","","","null","7","","","","","","","","","","","","","","","",""
"","ISI","","html-keyboard-response","52","123207","0.0-1.0-66.0","0","0","60795","","null","","","null","7","NaN","","","","","","","","","","","","","","",""
"","S2","","html-keyboard-response","53","123474","0.0-1.0-67.0","0","0","60795","","null","","","null","7","","NaN","","","","","","","","","","","","","",""
"","response","","html-keyboard-response","54","124131","0.0-1.0-68.0-0.0","0","0","60795","","655","","","75","7","","","1","7","training","adjacent","BA","2","1","O.jpg","P.jpg","1","0","0","",""
"","feedback","","html-keyboard-response","55","125140","0.0-1.0-69.0-0.0","0","0","60795","","null","","","null","7","","","","","","","","","","","","","","","",""
"","time_out","","html-keyboard-response","56","127152","0.0-1.0-71.0-0.0","0","0","60795","","null","","","null","7","","","","","","","","","","","","","","","",""
"","ITI","","html-keyboard-response","57","128159","0.0-1.0-72.0","0","0","60795","","null","","","null","7","","","","","","","","","","","","","","","NaN",""
"","S1","","html-keyboard-response","58","128425","0.0-1.0-74.0","0","0","60795","","null","","","null","8","","","","","","","","","","","","","","","",""
"","ISI","","html-keyboard-response","59","128943","0.0-1.0-75.0","0","0","60795","","null","","","null","8","NaN","","","","","","","","","","","","","","",""
"","S2","","html-keyboard-response","60","129211","0.0-1.0-76.0","0","0","60795","","null","","","null","8","","NaN","","","","","","","","","","","","","",""
"","response","","html-keyboard-response","61","129925","0.0-1.0-77.0-0.0","0","0","60795","","711","","","75","8","","","1","8","training","adjacent","GF","7","6","Q.jpg","R.jpg","1","0","0","",""
"","feedback","","html-keyboard-response","62","130941","0.0-1.0-78.0-0.0","0","0","60795","","null","","","null","8","","","","","","","","","","","","","","","",""
"","time_out","","html-keyboard-response","63","132957","0.0-1.0-80.0-0.0","0","0","60795","","null","","","null","8","","","","","","","","","","","","","","","",""
"","ITI","","html-keyboard-response","64","133964","0.0-1.0-81.0","0","0","60795","","null","","","null","8","","","","","","","","","","","","","","","NaN",""
"","S1","","html-keyboard-response","65","134231","0.0-1.0-83.0","0","0","60795","","null","","","null","9","","","","","","","","","","","","","","","",""
"","ISI","","html-keyboard-response","66","134737","0.0-1.0-84.0","0","0","60795","","null","","","null","9","NaN","","","","","","","","","","","","","","",""
"","S2","","html-keyboard-response","67","135002","0.0-1.0-85.0","0","0","60795","","null","","","null","9","","NaN","","","","","","","","","","","","","",""
"","response","","html-keyboard-response","68","136054","0.0-1.0-86.0-0.0","0","0","60795","","1047","","","75","9","","","1","9","training","adjacent","DC","4","3","N.jpg","M.jpg","1","0","0","",""
"","feedback","","html-keyboard-response","69","137065","0.0-1.0-87.0-0.0","0","0","60795","","null","","","null","9","","","","","","","","","","","","","","","",""
"","time_out","","html-keyboard-response","70","139079","0.0-1.0-89.0-0.0","0","0","60795","","null","","","null","9","","","","","","","","","","","","","","","",""
"","ITI","","html-keyboard-response","71","140090","0.0-1.0-90.0","0","0","60795","","null","","","null","9","","","","","","","","","","","","","","","NaN",""
"","S1","","html-keyboard-response","72","140359","0.0-1.0-92.0","0","0","60795","","null","","","null","10","","","","","","","","","","","","","","","",""
"","ISI","","html-keyboard-response","73","140873","0.0-1.0-93.0","0","0","60795","","null","","","null","10","NaN","","","","","","","","","","","","","","",""
"","S2","","html-keyboard-response","74","141140","0.0-1.0-94.0","0","0","60795","","null","","","null","10","","NaN","","","","","","","","","","","","","",""
"","response","","html-keyboard-response","75","141863","0.0-1.0-95.0-0.0","0","0","60795","","719","","","68","10","","","1","10","training","adjacent","DE","4","5","N.jpg","L.jpg","0","1","0","",""
"","feedback","","html-keyboard-response","76","142868","0.0-1.0-96.0-0.0","0","0","60795","","null","","","null","10","","","","","","","","","","","","","","","",""
"","time_out","","html-keyboard-response","77","144882","0.0-1.0-98.0-0.0","0","0","60795","","null","","","null","10","","","","","","","","","","","","","","","",""
"","ITI","","html-keyboard-response","78","145889","0.0-1.0-99.0","0","0","60795","","null","","","null","10","","","","","","","","","","","","","","","NaN",""
"","S1","","html-keyboard-response","79","146155","0.0-1.0-101.0","0","0","60795","","null","","","null","11","","","","","","","","","","","","","","","",""
"","ISI","","html-keyboard-response","80","146661","0.0-1.0-102.0","0","0","60795","","null","","","null","11","NaN","","","","","","","","","","","","","","",""
"","S2","","html-keyboard-response","81","146925","0.0-1.0-103.0","0","0","60795","","null","","","null","11","","NaN","","","","","","","","","","","","","",""
"","response","","html-keyboard-response","82","147382","0.0-1.0-104.0-0.0","0","0","60795","","453","","","68","11","","","1","11","training","adjacent","EF","5","6","L.jpg","R.jpg","0","1","0","",""
"","feedback","","html-keyboard-response","83","148390","0.0-1.0-105.0-0.0","0","0","60795","","null","","","null","11","","","","","","","","","","","","","","","",""
"","time_out","","html-keyboard-response","84","150401","0.0-1.0-107.0-0.0","0","0","60795","","null","","","null","11","","","","","","","","","","","","","","","",""
"","ITI","","html-keyboard-response","85","151409","0.0-1.0-108.0","0","0","60795","","null","","","null","11","","","","","","","","","","","","","","","NaN",""
"","S1","","html-keyboard-response","86","151676","0.0-1.0-110.0","0","0","60795","","null","","","null","12","","","","","","","","","","","","","","","",""
"","ISI","","html-keyboard-response","87","152195","0.0-1.0-111.0","0","0","60795","","null","","","null","12","NaN","","","","","","","","","","","","","","",""
"","S2","","html-keyboard-response","88","152465","0.0-1.0-112.0","0","0","60795","","null","","","null","12","","NaN","","","","","","","","","","","","","",""
"","response","","html-keyboard-response","89","153316","0.0-1.0-113.0-0.0","0","0","60795","","847","","","75","12","","","1","12","training","adjacent","ED","5","4","L.jpg","N.jpg","1","0","0","",""
"","feedback","","html-keyboard-response","90","154334","0.0-1.0-114.0-0.0","0","0","60795","","null","","","null","12","","","","","","","","","","","","","","","",""
"","time_out","","html-keyboard-response","91","156350","0.0-1.0-116.0-0.0","0","0","60795","","null","","","null","12","","","","","","","","","","","","","","","",""
"","ITI","","html-keyboard-response","92","157356","0.0-1.0-117.0","0","0","60795","","null","","","null","12","","","","","","","","","","","","","","","NaN",""
"","S1","","html-keyboard-response","93","157624","0.0-1.0-119.0","0","0","60795","","null","","","null","13","","","","","","","","","","","","","","","",""
"","ISI","","html-keyboard-response","94","158128","0.0-1.0-120.0","0","0","60795","","null","","","null","13","NaN","","","","","","","","","","","","","","",""
"","S2","","html-keyboard-response","95","158397","0.0-1.0-121.0","0","0","60795","","null","","","null","13","","NaN","","","","","","","","","","","","","",""
"","response","","html-keyboard-response","96","159651","0.0-1.0-122.0-0.0","0","0","60795","","1252","","","68","13","","","1","13","training","adjacent","FE","6","5","R.jpg","L.jpg","0","0","1","",""
"","feedback","","html-keyboard-response","97","160667","0.0-1.0-123.0-0.0","0","0","60795","","null","","","null","13","","","","","","","","","","","","","","","",""
"","ITI","","html-keyboard-response","98","161672","0.0-1.0-126.0","0","0","60795","","null","","","null","13","","","","","","","","","","","","","","","NaN",""
"","S1","","html-keyboard-response","99","161938","0.0-1.0-128.0","0","0","60795","","null","","","null","14","","","","","","","","","","","","","","","",""
"","ISI","","html-keyboard-response","100","162456","0.0-1.0-129.0","0","0","60795","","null","","","null","14","NaN","","","","","","","","","","","","","","",""
"","S2","","html-keyboard-response","101","162723","0.0-1.0-130.0","0","0","60795","","null","","","null","14","","NaN","","","","","","","","","","","","","",""
"","response","","html-keyboard-response","102","163792","0.0-1.0-131.0-0.0","0","0","60795","","1067","","","75","14","","","1","14","training","adjacent","BC","2","3","O.jpg","M.jpg","1","1","1","",""
"","feedback","","html-keyboard-response","103","164801","0.0-1.0-132.0-0.0","0","0","60795","","null","","","null","14","","","","","","","","","","","","","","","",""
"","ITI","","html-keyboard-response","104","165819","0.0-1.0-135.0","0","0","60795","","null","","","null","14","","","","","","","","","","","","","","","NaN",""
"","S1","","html-keyboard-response","105","166087","0.0-1.0-137.0","0","0","60795","","null","","","null","15","","","","","","","","","","","","","","","",""
"","ISI","","html-keyboard-response","106","166604","0.0-1.0-138.0","0","0","60795","","null","","","null","15","NaN","","","","","","","","","","","","","","",""
"","S2","","html-keyboard-response","107","166872","0.0-1.0-139.0","0","0","60795","","null","","","null","15","","NaN","","","","","","","","","","","","","",""
"","response","","html-keyboard-response","108","167854","0.0-1.0-140.0-0.0","0","0","60795","","979","","","68","15","","","1","15","training","adjacent","BA","2","1","O.jpg","P.jpg","0","0","1","",""
"","feedback","","html-keyboard-response","109","168869","0.0-1.0-141.0-0.0","0","0","60795","","null","","","null","15","","","","","","","","","","","","","","","",""
"","ITI","","html-keyboard-response","110","169876","0.0-1.0-144.0","0","0","60795","","null","","","null","15","","","","","","","","","","","","","","","NaN",""
"","S1","","html-keyboard-response","111","170143","0.0-1.0-146.0","0","0","60795","","null","","","null","16","","","","","","","","","","","","","","","",""
"","ISI","","html-keyboard-response","112","170661","0.0-1.0-147.0","0","0","60795","","null","","","null","16","NaN","","","","","","","","","","","","","","",""
"","S2","","html-keyboard-response","113","170930","0.0-1.0-148.0","0","0","60795","","null","","","null","16","","NaN","","","","","","","","","","","","","",""
"","response","","html-keyboard-response","114","171646","0.0-1.0-149.0-0.0","0","0","60795","","712","","","75","16","","","1","16","training","adjacent","FG","6","7","R.jpg","Q.jpg","1","1","1","",""
"","feedback","","html-keyboard-response","115","172656","0.0-1.0-150.0-0.0","0","0","60795","","null","","","null","16","","","","","","","","","","","","","","","",""
"","ITI","","html-keyboard-response","116","173664","0.0-1.0-153.0","0","0","60795","","null","","","null","16","","","","","","","","","","","","","","","NaN",""
"","S1","","html-keyboard-response","117","173917","0.0-1.0-155.0","0","0","60795","","null","","","null","17","","","","","","","","","","","","","","","",""
"","ISI","","html-keyboard-response","118","174435","0.0-1.0-156.0","0","0","60795","","null","","","null","17","NaN","","","","","","","","","","","","","","",""
"","S2","","html-keyboard-response","119","174700","0.0-1.0-157.0","0","0","60795","","null","","","null","17","","NaN","","","","","","","","","","","","","",""
"","response","","html-keyboard-response","120","175096","0.0-1.0-158.0-0.0","0","0","60795","","392","","","75","17","","","1","17","training","adjacent","FG","6","7","R.jpg","Q.jpg","1","1","1","",""
"","feedback","","html-keyboard-response","121","176100","0.0-1.0-159.0-0.0","0","0","60795","","null","","","null","17","","","","","","","","","","","","","","","",""
"","ITI","","html-keyboard-response","122","177108","0.0-1.0-162.0","0","0","60795","","null","","","null","17","","","","","","","","","","","","","","","NaN",""
"","S1","","html-keyboard-response","123","177375","0.0-1.0-164.0","0","0","60795","","null","","","null","18","","","","","","","","","","","","","","","",""
"","ISI","","html-keyboard-response","124","177880","0.0-1.0-165.0","0","0","60795","","null","","","null","18","NaN","","","","","","","","","","","","","","",""
"","S2","","html-keyboard-response","125","178146","0.0-1.0-166.0","0","0","60795","","null","","","null","18","","NaN","","","","","","","","","","","","","",""
"","response","","html-keyboard-response","126","179329","0.0-1.0-167.0-0.0","0","0","60795","","1180","","","68","18","","","1","18","training","adjacent","DE","4","5","N.jpg","L.jpg","0","1","0","",""
"","feedback","","html-keyboard-response","127","180346","0.0-1.0-168.0-0.0","0","0","60795","","null","","","null","18","","","","","","","","","","","","","","","",""
"","time_out","","html-keyboard-response","128","182363","0.0-1.0-170.0-0.0","0","0","60795","","null","","","null","18","","","","","","","","","","","","","","","",""
"","ITI","","html-keyboard-response","129","183381","0.0-1.0-171.0","0","0","60795","","null","","","null","18","","","","","","","","","","","","","","","NaN",""
"","S1","","html-keyboard-response","130","183647","0.0-1.0-173.0","0","0","60795","","null","","","null","19","","","","","","","","","","","","","","","",""
"","ISI","","html-keyboard-response","131","184164","0.0-1.0-174.0","0","0","60795","","null","","","null","19","NaN","","","","","","","","","","","","","","",""
"","S2","","html-keyboard-response","132","184431","0.0-1.0-175.0","0","0","60795","","null","","","null","19","","NaN","","","","","","","","","","","","","",""
"","response","","html-keyboard-response","133","184900","0.0-1.0-176.0-0.0","0","0","60795","","462","","","68","19","","","1","19","training","adjacent","EF","5","6","L.jpg","R.jpg","0","1","0","",""
"","feedback","","html-keyboard-response","134","185927","0.0-1.0-177.0-0.0","0","0","60795","","null","","","null","19","","","","","","","","","","","","","","","",""
"","time_out","","html-keyboard-response","135","187941","0.0-1.0-179.0-0.0","0","0","60795","","null","","","null","19","","","","","","","","","","","","","","","",""
"","ITI","","html-keyboard-response","136","188944","0.0-1.0-180.0","0","0","60795","","null","","","null","19","","","","","","","","","","","","","","","NaN",""
"","S1","","html-keyboard-response","137","189212","0.0-1.0-182.0","0","0","60795","","null","","","null","20","","","","","","","","","","","","","","","",""
"","ISI","","html-keyboard-response","138","189740","0.0-1.0-183.0","0","0","60795","","null","","","null","20","NaN","","","","","","","","","","","","","","",""
"","S2","","html-keyboard-response","139","189997","0.0-1.0-184.0","0","0","60795","","null","","","null","20","","NaN","","","","","","","","","","","","","",""
"","response","","html-keyboard-response","140","190793","0.0-1.0-185.0-0.0","0","0","60795","","793","","","75","20","","","1","20","training","adjacent","CB","3","2","M.jpg","O.jpg","1","0","0","",""
"","feedback","","html-keyboard-response","141","191808","0.0-1.0-186.0-0.0","0","0","60795","","null","","","null","20","","","","","","","","","","","","","","","",""
"","time_out","","html-keyboard-response","142","193824","0.0-1.0-188.0-0.0","0","0","60795","","null","","","null","20","","","","","","","","","","","","","","","",""
"","ITI","","html-keyboard-response","143","194832","0.0-1.0-189.0","0","0","60795","","null","","","null","20","","","","","","","","","","","","","","","NaN",""
"","S1","","html-keyboard-response","144","195100","0.0-1.0-191.0","0","0","60795","","null","","","null","21","","","","","","","","","","","","","","","",""
"","ISI","","html-keyboard-response","145","195605","0.0-1.0-192.0","0","0","60795","","null","","","null","21","NaN","","","","","","","","","","","","","","",""
"","S2","","html-keyboard-response","146","195871","0.0-1.0-193.0","0","0","60795","","null","","","null","21","","NaN","","","","","","","","","","","","","",""
"","response","","html-keyboard-response","147","196734","0.0-1.0-194.0-0.0","0","0","60795","","860","","","68","21","","","1","21","training","adjacent","CB","3","2","M.jpg","O.jpg","0","0","1","",""
"","feedback","","html-keyboard-response","148","197742","0.0-1.0-195.0-0.0","0","0","60795","","null","","","null","21","","","","","","","","","","","","","","","",""
"","ITI","","html-keyboard-response","149","198747","0.0-1.0-198.0","0","0","60795","","null","","","null","21","","","","","","","","","","","","","","","NaN",""
"","S1","","html-keyboard-response","150","199015","0.0-1.0-200.0","0","0","60795","","null","","","null","22","","","","","","","","","","","","","","","",""
"","ISI","","html-keyboard-response","151","199532","0.0-1.0-201.0","0","0","60795","","null","","","null","22","NaN","","","","","","","","","","","","","","",""
"","S2","","html-keyboard-response","152","199799","0.0-1.0-202.0","0","0","60795","","null","","","null","22","","NaN","","","","","","","","","","","","","",""
"","response","","html-keyboard-response","153","200406","0.0-1.0-203.0-0.0","0","0","60795","","604","","","68","22","","","1","22","training","adjacent","AB","1","2","P.jpg","O.jpg","0","1","0","",""
"","feedback","","html-keyboard-response","154","201419","0.0-1.0-204.0-0.0","0","0","60795","","null","","","null","22","","","","","","","","","","","","","","","",""
"","time_out","","html-keyboard-response","155","203437","0.0-1.0-206.0-0.0","0","0","60795","","null","","","null","22","","","","","","","","","","","","","","","",""
"","ITI","","html-keyboard-response","156","204441","0.0-1.0-207.0","0","0","60795","","null","","","null","22","","","","","","","","","","","","","","","NaN",""
"","S1","","html-keyboard-response","157","204694","0.0-1.0-209.0","0","0","60795","","null","","","null","23","","","","","","","","","","","","","","","",""
"","ISI","","html-keyboard-response","158","205198","0.0-1.0-210.0","0","0","60795","","null","","","null","23","NaN","","","","","","","","","","","","","","",""
"","S2","","html-keyboard-response","159","205464","0.0-1.0-211.0","0","0","60795","","null","","","null","23","","NaN","","","","","","","","","","","","","",""
"","response","","html-keyboard-response","160","205883","0.0-1.0-212.0-0.0","0","0","60795","","415","","","75","23","","","1","23","training","adjacent","FG","6","7","R.jpg","Q.jpg","1","1","1","",""
"","feedback","","html-keyboard-response","161","206893","0.0-1.0-213.0-0.0","0","0","60795","","null","","","null","23","","","","","","","","","","","","","","","",""
"","ITI","","html-keyboard-response","162","207899","0.0-1.0-216.0","0","0","60795","","null","","","null","23","","","","","","","","","","","","","","","NaN",""
"","S1","","html-keyboard-response","163","208166","0.0-1.0-218.0","0","0","60795","","null","","","null","24","","","","","","","","","","","","","","","",""
"","ISI","","html-keyboard-response","164","208671","0.0-1.0-219.0","0","0","60795","","null","","","null","24","NaN","","","","","","","","","","","","","","",""
"","S2","","html-keyboard-response","165","208942","0.0-1.0-220.0","0","0","60795","","null","","","null","24","","NaN","","","","","","","","","","","","","",""
"","response","","html-keyboard-response","166","209624","0.0-1.0-221.0-0.0","0","0","60795","","680","","","68","24","","","1","24","training","adjacent","BC","2","3","O.jpg","M.jpg","0","1","0","",""
"","feedback","","html-keyboard-response","167","210636","0.0-1.0-222.0-0.0","0","0","60795","","null","","","null","24","","","","","","","","","","","","","","","",""
"","time_out","","html-keyboard-response","168","212652","0.0-1.0-224.0-0.0","0","0","60795","","null","","","null","24","","","","","","","","","","","","","","","",""
"","ITI","","html-keyboard-response","169","213659","0.0-1.0-225.0","0","0","60795","","null","","","null","24","","","","","","","","","","","","","","","NaN",""
"","S1","","html-keyboard-response","170","213925","0.0-1.0-227.0","0","0","60795","","null","","","null","25","","","","","","","","","","","","","","","",""
"","ISI","","html-keyboard-response","171","214429","0.0-1.0-228.0","0","0","60795","","null","","","null","25","NaN","","","","","","","","","","","","","","",""
"","S2","","html-keyboard-response","172","214696","0.0-1.0-229.0","0","0","60795","","null","","","null","25","","NaN","","","","","","","","","","","","","",""
"","response","","html-keyboard-response","173","215085","0.0-1.0-230.0-0.0","0","0","60795","","387","","","75","25","","","1","25","training","adjacent","AB","1","2","P.jpg","O.jpg","1","1","1","",""
"","feedback","","html-keyboard-response","174","216100","0.0-1.0-231.0-0.0","0","0","60795","","null","","","null","25","","","","","","","","","","","","","","","",""
"","ITI","","html-keyboard-response","175","217105","0.0-1.0-234.0","0","0","60795","","null","","","null","25","","","","","","","","","","","","","","","NaN",""
"","S1","","html-keyboard-response","176","217374","0.0-1.0-236.0","0","0","60795","","null","","","null","26","","","","","","","","","","","","","","","",""
"","ISI","","html-keyboard-response","177","217893","0.0-1.0-237.0","0","0","60795","","null","","","null","26","NaN","","","","","","","","","","","","","","",""
"","S2","","html-keyboard-response","178","218161","0.0-1.0-238.0","0","0","60795","","null","","","null","26","","NaN","","","","","","","","","","","","","",""
"","response","","html-keyboard-response","179","218481","0.0-1.0-239.0-0.0","0","0","60795","","318","","","68","26","","","1","26","training","adjacent","CB","3","2","M.jpg","O.jpg","0","0","1","",""
"","feedback","","html-keyboard-response","180","219497","0.0-1.0-240.0-0.0","0","0","60795","","null","","","null","26","","","","","","","","","","","","","","","",""
"","ITI","","html-keyboard-response","181","220503","0.0-1.0-243.0","0","0","60795","","null","","","null","26","","","","","","","","","","","","","","","NaN",""
"","S1","","html-keyboard-response","182","220769","0.0-1.0-245.0","0","0","60795","","null","","","null","27","","","","","","","","","","","","","","","",""
"","ISI","","html-keyboard-response","183","221287","0.0-1.0-246.0","0","0","60795","","null","","","null","27","NaN","","","","","","","","","","","","","","",""
"","S2","","html-keyboard-response","184","221556","0.0-1.0-247.0","0","0","60795","","null","","","null","27","","NaN","","","","","","","","","","","","","",""
"","response","","html-keyboard-response","185","222029","0.0-1.0-248.0-0.0","0","0","60795","","469","","","75","27","","","1","27","training","adjacent","BC","2","3","O.jpg","M.jpg","1","1","1","",""
"","feedback","","html-keyboard-response","186","223039","0.0-1.0-249.0-0.0","0","0","60795","","null","","","null","27","","","","","","","","","","","","","","","",""
"","ITI","","html-keyboard-response","187","224046","0.0-1.0-252.0","0","0","60795","","null","","","null","27","","","","","","","","","","","","","","","NaN",""
"","S1","","html-keyboard-response","188","224314","0.0-1.0-254.0","0","0","60795","","null","","","null","28","","","","","","","","","","","","","","","",""
"","ISI","","html-keyboard-response","189","224830","0.0-1.0-255.0","0","0","60795","","null","","","null","28","NaN","","","","","","","","","","","","","","",""
"","S2","","html-keyboard-response","190","225097","0.0-1.0-256.0","0","0","60795","","null","","","null","28","","NaN","","","","","","","","","","","","","",""
"","response","","html-keyboard-response","191","225283","0.0-1.0-257.0-0.0","0","0","60795","","183","","","68","28","","","1","28","training","adjacent","CB","3","2","M.jpg","O.jpg","0","0","1","",""
"","feedback","","html-keyboard-response","192","226291","0.0-1.0-258.0-0.0","0","0","60795","","null","","","null","28","","","","","","","","","","","","","","","",""
"","ITI","","html-keyboard-response","193","227297","0.0-1.0-261.0","0","0","60795","","null","","","null","28","","","","","","","","","","","","","","","NaN",""
"","S1","","html-keyboard-response","194","227564","0.0-1.0-263.0","0","0","60795","","null","","","null","29","","","","","","","","","","","","","","","",""
"","ISI","","html-keyboard-response","195","228068","0.0-1.0-264.0","0","0","60795","","null","","","null","29","NaN","","","","","","","","","","","","","","",""
"","S2","","html-keyboard-response","196","228335","0.0-1.0-265.0","0","0","60795","","null","","","null","29","","NaN","","","","","","","","","","","","","",""
"","response","","html-keyboard-response","197","228500","0.0-1.0-266.0-0.0","0","0","60795","","162","","","68","29","","","1","29","training","adjacent","CD","3","4","M.jpg","N.jpg","0","1","0","",""
"","feedback","","html-keyboard-response","198","229511","0.0-1.0-267.0-0.0","0","0","60795","","null","","","null","29","","","","","","","","","","","","","","","",""
"","time_out","","html-keyboard-response","199","231522","0.0-1.0-269.0-0.0","0","0","60795","","null","","","null","29","","","","","","","","","","","","","","","",""
"","ITI","","html-keyboard-response","200","232531","0.0-1.0-270.0","0","0","60795","","null","","","null","29","","","","","","","","","","","","","","","NaN",""
"","S1","","html-keyboard-response","201","232797","0.0-1.0-272.0","0","0","60795","","null","","","null","30","","","","","","","","","","","","","","","",""
"","ISI","","html-keyboard-response","202","233317","0.0-1.0-273.0","0","0","60795","","null","","","null","30","NaN","","","","","","","","","","","","","","",""
"","S2","","html-keyboard-response","203","233583","0.0-1.0-274.0","0","0","60795","","null","","","null","30","","NaN","","","","","","","","","","","","","",""
"","response","","html-keyboard-response","204","234057","0.0-1.0-275.0-0.0","0","0","60795","","469","","","75","30","","","1","30","training","adjacent","DE","4","5","N.jpg","L.jpg","1","1","1","",""
"","feedback","","html-keyboard-response","205","235075","0.0-1.0-276.0-0.0","0","0","60795","","null","","","null","30","","","","","","","","","","","","","","","",""
"","ITI","","html-keyboard-response","206","236080","0.0-1.0-279.0","0","0","60795","","null","","","null","30","","","","","","","","","","","","","","","NaN",""
"","S1","","html-keyboard-response","207","236348","0.0-1.0-281.0","0","0","60795","","null","","","null","31","","","","","","","","","","","","","","","",""
"","ISI","","html-keyboard-response","208","236867","0.0-1.0-282.0","0","0","60795","","null","","","null","31","NaN","","","","","","","","","","","","","","",""
"","S2","","html-keyboard-response","209","237133","0.0-1.0-283.0","0","0","60795","","null","","","null","31","","NaN","","","","","","","","","","","","","",""
"","response","","html-keyboard-response","210","237639","0.0-1.0-284.0-0.0","0","0","60795","","504","","","68","31","","","1","31","training","adjacent","FE","6","5","R.jpg","L.jpg","0","0","1","",""
"","feedback","","html-keyboard-response","211","238657","0.0-1.0-285.0-0.0","0","0","60795","","null","","","null","31","","","","","","","","","","","","","","","",""
"","ITI","","html-keyboard-response","212","239661","0.0-1.0-288.0","0","0","60795","","null","","","null","31","","","","","","","","","","","","","","","NaN",""
"","S1","","html-keyboard-response","213","239931","0.0-1.0-290.0","0","0","60795","","null","","","null","32","","","","","","","","","","","","","","","",""
"","ISI","","html-keyboard-response","214","240448","0.0-1.0-291.0","0","0","60795","","null","","","null","32","NaN","","","","","","","","","","","","","","",""
"","S2","","html-keyboard-response","215","240714","0.0-1.0-292.0","0","0","60795","","null","","","null","32","","NaN","","","","","","","","","","","","","",""
"","response","","html-keyboard-response","216","241125","0.0-1.0-293.0-0.0","0","0","60795","","410","","","75","32","","","1","32","training","adjacent","DE","4","5","N.jpg","L.jpg","1","1","1","",""
"","feedback","","html-keyboard-response","217","242142","0.0-1.0-294.0-0.0","0","0","60795","","null","","","null","32","","","","","","","","","","","","","","","",""
"","ITI","","html-keyboard-response","218","243151","0.0-1.0-297.0","0","0","60795","","null","","","null","32","","","","","","","","","","","","","","","NaN",""
"","S1","","html-keyboard-response","219","243417","0.0-1.0-299.0","0","0","60795","","null","","","null","33","","","","","","","","","","","","","","","",""
"","ISI","","html-keyboard-response","220","243921","0.0-1.0-300.0","0","0","60795","","null","","","null","33","NaN","","","","","","","","","","","","","","",""
"","S2","","html-keyboard-response","221","244192","0.0-1.0-301.0","0","0","60795","","null","","","null","33","","NaN","","","","","","","","","","","","","",""
"","response","","html-keyboard-response","222","244627","0.0-1.0-302.0-0.0","0","0","60795","","430","","","68","33","","","1","33","training","adjacent","CD","3","4","M.jpg","N.jpg","0","1","0","",""
"","feedback","","html-keyboard-response","223","245631","0.0-1.0-303.0-0.0","0","0","60795","","null","","","null","33","","","","","","","","","","","","","","","",""
"","time_out","","html-keyboard-response","224","247645","0.0-1.0-305.0-0.0","0","0","60795","","null","","","null","33","","","","","","","","","","","","","","","",""
"","ITI","","html-keyboard-response","225","248653","0.0-1.0-306.0","0","0","60795","","null","","","null","33","","","","","","","","","","","","","","","NaN",""
"","S1","","html-keyboard-response","226","248918","0.0-1.0-308.0","0","0","60795","","null","","","null","34","","","","","","","","","","","","","","","",""
"","ISI","","html-keyboard-response","227","249424","0.0-1.0-309.0","0","0","60795","","null","","","null","34","NaN","","","","","","","","","","","","","","",""
"","S2","","html-keyboard-response","228","249691","0.0-1.0-310.0","0","0","60795","","null","","","null","34","","NaN","","","","","","","","","","","","","",""
"","response","","html-keyboard-response","229","250134","0.0-1.0-311.0-0.0","0","0","60795","","442","","","75","34","","","1","34","training","adjacent","FE","6","5","R.jpg","L.jpg","1","0","0","",""
"","feedback","","html-keyboard-response","230","251140","0.0-1.0-312.0-0.0","0","0","60795","","null","","","null","34","","","","","","","","","","","","","","","",""
"","time_out","","html-keyboard-response","231","253151","0.0-1.0-314.0-0.0","0","0","60795","","null","","","null","34","","","","","","","","","","","","","","","",""
"","ITI","","html-keyboard-response","232","254157","0.0-1.0-315.0","0","0","60795","","null","","","null","34","","","","","","","","","","","","","","","NaN",""
"","S1","","html-keyboard-response","233","254422","0.0-1.0-317.0","0","0","60795","","null","","","null","35","","","","","","","","","","","","","","","",""
"","ISI","","html-keyboard-response","234","254925","0.0-1.0-318.0","0","0","60795","","null","","","null","35","NaN","","","","","","","","","","","","","","",""
"","S2","","html-keyboard-response","235","255193","0.0-1.0-319.0","0","0","60795","","null","","","null","35","","NaN","","","","","","","","","","","","","",""
"","response","","html-keyboard-response","236","255912","0.0-1.0-320.0-0.0","0","0","60795","","716","","","75","35","","","1","35","training","adjacent","EF","5","6","L.jpg","R.jpg","1","1","1","",""
"","feedback","","html-keyboard-response","237","256924","0.0-1.0-321.0-0.0","0","0","60795","","null","","","null","35","","","","","","","","","","","","","","","",""
"","ITI","","html-keyboard-response","238","257932","0.0-1.0-324.0","0","0","60795","","null","","","null","35","","","","","","","","","","","","","","","NaN",""
"","S1","","html-keyboard-response","239","258198","0.0-1.0-326.0","0","0","60795","","null","","","null","36","","","","","","","","","","","","","","","",""
"","ISI","","html-keyboard-response","240","258715","0.0-1.0-327.0","0","0","60795","","null","","","null","36","NaN","","","","","","","","","","","","","","",""
"","S2","","html-keyboard-response","241","258983","0.0-1.0-328.0","0","0","60795","","null","","","null","36","","NaN","","","","","","","","","","","","","",""
"","response","","html-keyboard-response","242","259379","0.0-1.0-329.0-0.0","0","0","60795","","393","","","68","36","","","1","36","training","adjacent","ED","5","4","L.jpg","N.jpg","0","0","1","",""
"","feedback","","html-keyboard-response","243","260395","0.0-1.0-330.0-0.0","0","0","60795","","null","","","null","36","","","","","","","","","","","","","","","",""
"","ITI","","html-keyboard-response","244","261402","0.0-1.0-333.0","0","0","60795","","null","","","null","36","","","","","","","","","","","","","","","NaN",""
"","S1","","html-keyboard-response","245","261668","0.0-1.0-335.0","0","0","60795","","null","","","null","37","","","","","","","","","","","","","","","",""
"","ISI","","html-keyboard-response","246","262173","0.0-1.0-336.0","0","0","60795","","null","","","null","37","NaN","","","","","","","","","","","","","","",""
"","S2","","html-keyboard-response","247","262440","0.0-1.0-337.0","0","0","60795","","null","","","null","37","","NaN","","","","","","","","","","","","","",""
"","response","","html-keyboard-response","248","263015","0.0-1.0-338.0-0.0","0","0","60795","","572","","","75","37","","","1","37","training","adjacent","BA","2","1","O.jpg","P.jpg","1","0","0","",""
"","feedback","","html-keyboard-response","249","264026","0.0-1.0-339.0-0.0","0","0","60795","","null","","","null","37","","","","","","","","","","","","","","","",""
"","time_out","","html-keyboard-response","250","266042","0.0-1.0-341.0-0.0","0","0","60795","","null","","","null","37","","","","","","","","","","","","","","","",""
"","ITI","","html-keyboard-response","251","267047","0.0-1.0-342.0","0","0","60795","","null","","","null","37","","","","","","","","","","","","","","","NaN",""
"","S1","","html-keyboard-response","252","267314","0.0-1.0-344.0","0","0","60795","","null","","","null","38","","","","","","","","","","","","","","","",""
"","ISI","","html-keyboard-response","253","267818","0.0-1.0-345.0","0","0","60795","","null","","","null","38","NaN","","","","","","","","","","","","","","",""
"","S2","","html-keyboard-response","254","268084","0.0-1.0-346.0","0","0","60795","","null","","","null","38","","NaN","","","","","","","","","","","","","",""
"","response","","html-keyboard-response","255","268528","0.0-1.0-347.0-0.0","0","0","60795","","441","","","75","38","","","1","38","training","adjacent","DC","4","3","N.jpg","M.jpg","1","0","0","",""
"","feedback","","html-keyboard-response","256","269533","0.0-1.0-348.0-0.0","0","0","60795","","null","","","null","38","","","","","","","","","","","","","","","",""
"","time_out","","html-keyboard-response","257","271547","0.0-1.0-350.0-0.0","0","0","60795","","null","","","null","38","","","","","","","","","","","","","","","",""
"","ITI","","html-keyboard-response","258","272554","0.0-1.0-351.0","0","0","60795","","null","","","null","38","","","","","","","","","","","","","","","NaN",""
"","S1","","html-keyboard-response","259","272822","0.0-1.0-353.0","0","0","60795","","null","","","null","39","","","","","","","","","","","","","","","",""
"","ISI","","html-keyboard-response","260","273327","0.0-1.0-354.0","0","0","60795","","null","","","null","39","NaN","","","","","","","","","","","","","","",""
"","S2","","html-keyboard-response","261","273593","0.0-1.0-355.0","0","0","60795","","null","","","null","39","","NaN","","","","","","","","","","","","","",""
"","response","","html-keyboard-response","262","274094","0.0-1.0-356.0-0.0","0","0","60795","","496","","","68","39","","","1","39","training","adjacent","GF","7","6","Q.jpg","R.jpg","0","0","1","",""
"","feedback","","html-keyboard-response","263","275102","0.0-1.0-357.0-0.0","0","0","60795","","null","","","null","39","","","","","","","","","","","","","","","",""
"","ITI","","html-keyboard-response","264","276108","0.0-1.0-360.0","0","0","60795","","null","","","null","39","","","","","","","","","","","","","","","NaN",""
"","S1","","html-keyboard-response","265","276374","0.0-1.0-362.0","0","0","60795","","null","","","null","40","","","","","","","","","","","","","","","",""
"","ISI","","html-keyboard-response","266","276879","0.0-1.0-363.0","0","0","60795","","null","","","null","40","NaN","","","","","","","","","","","","","","",""
"","S2","","html-keyboard-response","267","277148","0.0-1.0-364.0","0","0","60795","","null","","","null","40","","NaN","","","","","","","","","","","","","",""
"","response","","html-keyboard-response","268","277667","0.0-1.0-365.0-0.0","0","0","60795","","517","","","75","40","","","1","40","training","adjacent","BC","2","3","O.jpg","M.jpg","1","1","1","",""
"","feedback","","html-keyboard-response","269","278677","0.0-1.0-366.0-0.0","0","0","60795","","null","","","null","40","","","","","","","","","","","","","","","",""
"","ITI","","html-keyboard-response","270","279681","0.0-1.0-369.0","0","0","60795","","null","","","null","40","","","","","","","","","","","","","","","NaN",""
"","S1","","html-keyboard-response","271","279949","0.0-1.0-371.0","0","0","60795","","null","","","null","41","","","","","","","","","","","","","","","",""
"","ISI","","html-keyboard-response","272","280453","0.0-1.0-372.0","0","0","60795","","null","","","null","41","NaN","","","","","","","","","","","","","","",""
"","S2","","html-keyboard-response","273","280719","0.0-1.0-373.0","0","0","60795","","null","","","null","41","","NaN","","","","","","","","","","","","","",""
"","response","","html-keyboard-response","274","281225","0.0-1.0-374.0-0.0","0","0","60795","","502","","","75","41","","","1","41","training","adjacent","DC","4","3","N.jpg","M.jpg","1","0","0","",""
"","feedback","","html-keyboard-response","275","282228","0.0-1.0-375.0-0.0","0","0","60795","","null","","","null","41","","","","","","","","","","","","","","","",""
"","time_out","","html-keyboard-response","276","284238","0.0-1.0-377.0-0.0","0","0","60795","","null","","","null","41","","","","","","","","","","","","","","","",""
"","ITI","","html-keyboard-response","277","285245","0.0-1.0-378.0","0","0","60795","","null","","","null","41","","","","","","","","","","","","","","","NaN",""
"","S1","","html-keyboard-response","278","285512","0.0-1.0-380.0","0","0","60795","","null","","","null","42","","","","","","","","","","","","","","","",""
"","ISI","","html-keyboard-response","279","286016","0.0-1.0-381.0","0","0","60795","","null","","","null","42","NaN","","","","","","","","","","","","","","",""
"","S2","","html-keyboard-response","280","286284","0.0-1.0-382.0","0","0","60795","","null","","","null","42","","NaN","","","","","","","","","","","","","",""
"","response","","html-keyboard-response","281","286723","0.0-1.0-383.0-0.0","0","0","60795","","435","","","68","42","","","1","42","training","adjacent","ED","5","4","L.jpg","N.jpg","0","0","1","",""
"","feedback","","html-keyboard-response","282","287728","0.0-1.0-384.0-0.0","0","0","60795","","null","","","null","42","","","","","","","","","","","","","","","",""
"","ITI","","html-keyboard-response","283","288737","0.0-1.0-387.0","0","0","60795","","null","","","null","42","","","","","","","","","","","","","","","NaN",""
"","S1","","html-keyboard-response","284","289003","0.0-1.0-389.0","0","0","60795","","null","","","null","43","","","","","","","","","","","","","","","",""
"","ISI","","html-keyboard-response","285","289510","0.0-1.0-390.0","0","0","60795","","null","","","null","43","NaN","","","","","","","","","","","","","","",""
"","S2","","html-keyboard-response","286","289773","0.0-1.0-391.0","0","0","60795","","null","","","null","43","","NaN","","","","","","","","","","","","","",""
"","response","","html-keyboard-response","287","290315","0.0-1.0-392.0-0.0","0","0","60795","","540","","","68","43","","","1","43","training","adjacent","AB","1","2","P.jpg","O.jpg","0","1","0","",""
"","feedback","","html-keyboard-response","288","291330","0.0-1.0-393.0-0.0","0","0","60795","","null","","","null","43","","","","","","","","","","","","","","","",""
"","time_out","","html-keyboard-response","289","293339","0.0-1.0-395.0-0.0","0","0","60795","","null","","","null","43","","","","","","","","","","","","","","","",""
"","ITI","","html-keyboard-response","290","294344","0.0-1.0-396.0","0","0","60795","","null","","","null","43","","","","","","","","","","","","","","","NaN",""
"","S1","","html-keyboard-response","291","294612","0.0-1.0-398.0","0","0","60795","","null","","","null","44","","","","","","","","","","","","","","","",""
"","ISI","","html-keyboard-response","292","295119","0.0-1.0-399.0","0","0","60795","","null","","","null","44","NaN","","","","","","","","","","","","","","",""
"","S2","","html-keyboard-response","293","295384","0.0-1.0-400.0","0","0","60795","","null","","","null","44","","NaN","","","","","","","","","","","","","",""
"","response","","html-keyboard-response","294","295790","0.0-1.0-401.0-0.0","0","0","60795","","402","","","68","44","","","1","44","training","adjacent","GF","7","6","Q.jpg","R.jpg","0","0","1","",""
"","feedback","","html-keyboard-response","295","296799","0.0-1.0-402.0-0.0","0","0","60795","","null","","","null","44","","","","","","","","","","","","","","","",""
"","ITI","","html-keyboard-response","296","297807","0.0-1.0-405.0","0","0","60795","","null","","","null","44","","","","","","","","","","","","","","","NaN",""
"","S1","","html-keyboard-response","297","298070","0.0-1.0-407.0","0","0","60795","","null","","","null","45","","","","","","","","","","","","","","","",""
"","ISI","","html-keyboard-response","298","298590","0.0-1.0-408.0","0","0","60795","","null","","","null","45","NaN","","","","","","","","","","","","","","",""
"","S2","","html-keyboard-response","299","298856","0.0-1.0-409.0","0","0","60795","","null","","","null","45","","NaN","","","","","","","","","","","","","",""
"","response","","html-keyboard-response","300","299476","0.0-1.0-410.0-0.0","0","0","60795","","617","","","68","45","","","1","45","training","adjacent","GF","7","6","Q.jpg","R.jpg","0","0","1","",""
"","feedback","","html-keyboard-response","301","300491","0.0-1.0-411.0-0.0","0","0","60795","","null","","","null","45","","","","","","","","","","","","","","","",""
"","ITI","","html-keyboard-response","302","301498","0.0-1.0-414.0","0","0","60795","","null","","","null","45","","","","","","","","","","","","","","","NaN",""
"","S1","","html-keyboard-response","303","301763","0.0-1.0-416.0","0","0","60795","","null","","","null","46","","","","","","","","","","","","","","","",""
"","ISI","","html-keyboard-response","304","302280","0.0-1.0-417.0","0","0","60795","","null","","","null","46","NaN","","","","","","","","","","","","","","",""
"","S2","","html-keyboard-response","305","302546","0.0-1.0-418.0","0","0","60795","","null","","","null","46","","NaN","","","","","","","","","","","","","",""
"","response","","html-keyboard-response","306","303254","0.0-1.0-419.0-0.0","0","0","60795","","704","","","68","46","","","1","46","training","adjacent","CD","3","4","M.jpg","N.jpg","0","1","0","",""
"","feedback","","html-keyboard-response","307","304260","0.0-1.0-420.0-0.0","0","0","60795","","null","","","null","46","","","","","","","","","","","","","","","",""
"","time_out","","html-keyboard-response","308","306275","0.0-1.0-422.0-0.0","0","0","60795","","null","","","null","46","","","","","","","","","","","","","","","",""
"","ITI","","html-keyboard-response","309","307283","0.0-1.0-423.0","0","0","60795","","null","","","null","46","","","","","","","","","","","","","","","NaN",""
"","S1","","html-keyboard-response","310","307551","0.0-1.0-425.0","0","0","60795","","null","","","null","47","","","","","","","","","","","","","","","",""
"","ISI","","html-keyboard-response","311","308067","0.0-1.0-426.0","0","0","60795","","null","","","null","47","NaN","","","","","","","","","","","","","","",""
"","S2","","html-keyboard-response","312","308333","0.0-1.0-427.0","0","0","60795","","null","","","null","47","","NaN","","","","","","","","","","","","","",""
"","response","","html-keyboard-response","313","308937","0.0-1.0-428.0-0.0","0","0","60795","","601","","","68","47","","","1","47","training","adjacent","BA","2","1","O.jpg","P.jpg","0","0","1","",""
"","feedback","","html-keyboard-response","314","309953","0.0-1.0-429.0-0.0","0","0","60795","","null","","","null","47","","","","","","","","","","","","","","","",""
"","ITI","","html-keyboard-response","315","310957","0.0-1.0-432.0","0","0","60795","","null","","","null","47","","","","","","","","","","","","","","","NaN",""
"","block_over","","html-keyboard-response","316","318089","0.0-1.0-433.0-0.0","0","0","60795","","7126","","","32","47","","","","","","","","","","","","","","","",""
"","S1","","html-keyboard-response","317","318350","0.0-1.0-434.0","0","0","60795","","null","","","null","48","","","","","","","","","","","","","","","",""
"","ISI","","html-keyboard-response","318","318869","0.0-1.0-435.0","0","0","60795","","null","","","null","48","NaN","","","","","","","","","","","","","","",""
"","S2","","html-keyboard-response","319","319148","0.0-1.0-436.0","0","0","60795","","null","","","null","48","","NaN","","","","","","","","","","","","","",""
"","response","","html-keyboard-response","320","319893","0.0-1.0-437.0-0.0","0","0","60795","","740","","","75","48","","","2","48","training","adjacent","DC","4","3","N.jpg","M.jpg","1","0","0","",""
"","feedback","","html-keyboard-response","321","320911","0.0-1.0-438.0-0.0","0","0","60795","","null","","","null","48","","","","","","","","","","","","","","","",""
"","time_out","","html-keyboard-response","322","322927","0.0-1.0-440.0-0.0","0","0","60795","","null","","","null","48","","","","","","","","","","","","","","","",""
"","ITI","","html-keyboard-response","323","323930","0.0-1.0-441.0","0","0","60795","","null","","","null","48","","","","","","","","","","","","","","","NaN",""
"","S1","","html-keyboard-response","324","324198","0.0-1.0-443.0","0","0","60795","","null","","","null","49","","","","","","","","","","","","","","","",""
"","ISI","","html-keyboard-response","325","324716","0.0-1.0-444.0","0","0","60795","","null","","","null","49","NaN","","","","","","","","","","","","","","",""
"","S2","","html-keyboard-response","326","324984","0.0-1.0-445.0","0","0","60795","","null","","","null","49","","NaN","","","","","","","","","","","","","",""
"","response","","html-keyboard-response","327","325418","0.0-1.0-446.0-0.0","0","0","60795","","431","","","68","49","","","2","49","training","adjacent","CB","3","2","M.jpg","O.jpg","0","0","1","",""
"","feedback","","html-keyboard-response","328","326428","0.0-1.0-447.0-0.0","0","0","60795","","null","","","null","49","","","","","","","","","","","","","","","",""
"","ITI","","html-keyboard-response","329","327435","0.0-1.0-450.0","0","0","60795","","null","","","null","49","","","","","","","","","","","","","","","NaN",""
"","S1","","html-keyboard-response","330","327703","0.0-1.0-452.0","0","0","60795","","null","","","null","50","","","","","","","","","","","","","","","",""
"","ISI","","html-keyboard-response","331","328220","0.0-1.0-453.0","0","0","60795","","null","","","null","50","NaN","","","","","","","","","","","","","","",""
"","S2","","html-keyboard-response","332","328487","0.0-1.0-454.0","0","0","60795","","null","","","null","50","","NaN","","","","","","","","","","","","","",""
"","response","","html-keyboard-response","333","328925","0.0-1.0-455.0-0.0","0","0","60795","","434","","","75","50","","","2","50","training","adjacent","AB","1","2","P.jpg","O.jpg","1","1","1","",""
"","feedback","","html-keyboard-response","334","329935","0.0-1.0-456.0-0.0","0","0","60795","","null","","","null","50","","","","","","","","","","","","","","","",""
"","ITI","","html-keyboard-response","335","330941","0.0-1.0-459.0","0","0","60795","","null","","","null","50","","","","","","","","","","","","","","","NaN",""
"","S1","","html-keyboard-response","336","331209","0.0-1.0-461.0","0","0","60795","","null","","","null","51","","","","","","","","","","","","","","","",""
"","ISI","","html-keyboard-response","337","331724","0.0-1.0-462.0","0","0","60795","","null","","","null","51","NaN","","","","","","","","","","","","","","",""
"","S2","","html-keyboard-response","338","331994","0.0-1.0-463.0","0","0","60795","","null","","","null","51","","NaN","","","","","","","","","","","","","",""
"","response","","html-keyboard-response","339","333082","0.0-1.0-464.0-0.0","0","0","60795","","1084","","","75","51","","","2","51","training","adjacent","CD","3","4","M.jpg","N.jpg","1","1","1","",""
"","feedback","","html-keyboard-response","340","334096","0.0-1.0-465.0-0.0","0","0","60795","","null","","","null","51","","","","","","","","","","","","","","","",""
"","ITI","","html-keyboard-response","341","335104","0.0-1.0-468.0","0","0","60795","","null","","","null","51","","","","","","","","","","","","","","","NaN",""
"","S1","","html-keyboard-response","342","335371","0.0-1.0-470.0","0","0","60795","","null","","","null","52","","","","","","","","","","","","","","","",""
"","ISI","","html-keyboard-response","343","335886","0.0-1.0-471.0","0","0","60795","","null","","","null","52","NaN","","","","","","","","","","","","","","",""
"","S2","","html-keyboard-response","344","336155","0.0-1.0-472.0","0","0","60795","","null","","","null","52","","NaN","","","","","","","","","","","","","",""
"","response","","html-keyboard-response","345","336621","0.0-1.0-473.0-0.0","0","0","60795","","463","","","68","52","","","2","52","training","adjacent","EF","5","6","L.jpg","R.jpg","0","1","0","",""
"","feedback","","html-keyboard-response","346","337632","0.0-1.0-474.0-0.0","0","0","60795","","null","","","null","52","","","","","","","","","","","","","","","",""
"","time_out","","html-keyboard-response","347","339644","0.0-1.0-476.0-0.0","0","0","60795","","null","","","null","52","","","","","","","","","","","","","","","",""
"","ITI","","html-keyboard-response","348","340654","0.0-1.0-477.0","0","0","60795","","null","","","null","52","","","","","","","","","","","","","","","NaN",""
"","S1","","html-keyboard-response","349","340920","0.0-1.0-479.0","0","0","60795","","null","","","null","53","","","","","","","","","","","","","","","",""
"","ISI","","html-keyboard-response","350","341423","0.0-1.0-480.0","0","0","60795","","null","","","null","53","NaN","","","","","","","","","","","","","","",""
"","S2","","html-keyboard-response","351","341691","0.0-1.0-481.0","0","0","60795","","null","","","null","53","","NaN","","","","","","","","","","","","","",""
"","response","","html-keyboard-response","352","342053","0.0-1.0-482.0-0.0","0","0","60795","","358","","","75","53","","","2","53","training","adjacent","FG","6","7","R.jpg","Q.jpg","1","1","1","",""
"","feedback","","html-keyboard-response","353","343057","0.0-1.0-483.0-0.0","0","0","60795","","null","","","null","53","","","","","","","","","","","","","","","",""
"","ITI","","html-keyboard-response","354","344066","0.0-1.0-486.0","0","0","60795","","null","","","null","53","","","","","","","","","","","","","","","NaN",""
"","S1","","html-keyboard-response","355","344331","0.0-1.0-488.0","0","0","60795","","null","","","null","54","","","","","","","","","","","","","","","",""
"","ISI","","html-keyboard-response","356","344835","0.0-1.0-489.0","0","0","60795","","null","","","null","54","NaN","","","","","","","","","","","","","","",""
"","S2","","html-keyboard-response","357","345101","0.0-1.0-490.0","0","0","60795","","null","","","null","54","","NaN","","","","","","","","","","","","","",""
"","response","","html-keyboard-response","358","345370","0.0-1.0-491.0-0.0","0","0","60795","","265","","","68","54","","","2","54","training","adjacent","GF","7","6","Q.jpg","R.jpg","0","0","1","",""
"","feedback","","html-keyboard-response","359","346389","0.0-1.0-492.0-0.0","0","0","60795","","null","","","null","54","","","","","","","","","","","","","","","",""
"","ITI","","html-keyboard-response","360","347398","0.0-1.0-495.0","0","0","60795","","null","","","null","54","","","","","","","","","","","","","","","NaN",""
"","S1","","html-keyboard-response","361","347665","0.0-1.0-497.0","0","0","60795","","null","","","null","55","","","","","","","","","","","","","","","",""
"","ISI","","html-keyboard-response","362","348169","0.0-1.0-498.0","0","0","60795","","null","","","null","55","NaN","","","","","","","","","","","","","","",""
"","S2","","html-keyboard-response","363","348436","0.0-1.0-499.0","0","0","60795","","null","","","null","55","","NaN","","","","","","","","","","","","","",""
"","response","","html-keyboard-response","364","349043","0.0-1.0-500.0-0.0","0","0","60795","","602","","","75","55","","","2","55","training","adjacent","AB","1","2","P.jpg","O.jpg","1","1","1","",""
"","feedback","","html-keyboard-response","365","350056","0.0-1.0-501.0-0.0","0","0","60795","","null","","","null","55","","","","","","","","","","","","","","","",""
"","ITI","","html-keyboard-response","366","351063","0.0-1.0-504.0","0","0","60795","","null","","","null","55","","","","","","","","","","","","","","","NaN",""
"","S1","","html-keyboard-response","367","351330","0.0-1.0-506.0","0","0","60795","","null","","","null","56","","","","","","","","","","","","","","","",""
"","ISI","","html-keyboard-response","368","351849","0.0-1.0-507.0","0","0","60795","","null","","","null","56","NaN","","","","","","","","","","","","","","",""
"","S2","","html-keyboard-response","369","352118","0.0-1.0-508.0","0","0","60795","","null","","","null","56","","NaN","","","","","","","","","","","","","",""
"","response","","html-keyboard-response","370","352671","0.0-1.0-509.0-0.0","0","0","60795","","550","","","68","56","","","2","56","training","adjacent","BA","2","1","O.jpg","P.jpg","0","0","1","",""
"","feedback","","html-keyboard-response","371","353689","0.0-1.0-510.0-0.0","0","0","60795","","null","","","null","56","","","","","","","","","","","","","","","",""
"","ITI","","html-keyboard-response","372","354694","0.0-1.0-513.0","0","0","60795","","null","","","null","56","","","","","","","","","","","","","","","NaN",""
"","S1","","html-keyboard-response","373","354962","0.0-1.0-515.0","0","0","60795","","null","","","null","57","","","","","","","","","","","","","","","",""
"","ISI","","html-keyboard-response","374","355464","0.0-1.0-516.0","0","0","60795","","null","","","null","57","NaN","","","","","","","","","","","","","","",""
"","S2","","html-keyboard-response","375","355733","0.0-1.0-517.0","0","0","60795","","null","","","null","57","","NaN","","","","","","","","","","","","","",""
"","response","","html-keyboard-response","376","356314","0.0-1.0-518.0-0.0","0","0","60795","","576","","","68","57","","","2","57","training","adjacent","BA","2","1","O.jpg","P.jpg","0","0","1","",""
"","feedback","","html-keyboard-response","377","357321","0.0-1.0-519.0-0.0","0","0","60795","","null","","","null","57","","","","","","","","","","","","","","","",""
"","ITI","","html-keyboard-response","378","358325","0.0-1.0-522.0","0","0","60795","","null","","","null","57","","","","","","","","","","","","","","","NaN",""
"","S1","","html-keyboard-response","379","358592","0.0-1.0-524.0","0","0","60795","","null","","","null","58","","","","","","","","","","","","","","","",""
"","ISI","","html-keyboard-response","380","359112","0.0-1.0-525.0","0","0","60795","","null","","","null","58","NaN","","","","","","","","","","","","","","",""
"","S2","","html-keyboard-response","381","359376","0.0-1.0-526.0","0","0","60795","","null","","","null","58","","NaN","","","","","","","","","","","","","",""
"","response","","html-keyboard-response","382","359819","0.0-1.0-527.0-0.0","0","0","60795","","439","","","75","58","","","2","58","training","adjacent","CD","3","4","M.jpg","N.jpg","1","1","1","",""
"","feedback","","html-keyboard-response","383","360823","0.0-1.0-528.0-0.0","0","0","60795","","null","","","null","58","","","","","","","","","","","","","","","",""
"","ITI","","html-keyboard-response","384","361827","0.0-1.0-531.0","0","0","60795","","null","","","null","58","","","","","","","","","","","","","","","NaN",""
"","S1","","html-keyboard-response","385","362093","0.0-1.0-533.0","0","0","60795","","null","","","null","59","","","","","","","","","","","","","","","",""
"","ISI","","html-keyboard-response","386","362612","0.0-1.0-534.0","0","0","60795","","null","","","null","59","NaN","","","","","","","","","","","","","","",""
"","S2","","html-keyboard-response","387","362880","0.0-1.0-535.0","0","0","60795","","null","","","null","59","","NaN","","","","","","","","","","","","","",""
"","response","","html-keyboard-response","388","363458","0.0-1.0-536.0-0.0","0","0","60795","","576","","","75","59","","","2","59","training","adjacent","BC","2","3","O.jpg","M.jpg","1","1","1","",""
"","feedback","","html-keyboard-response","389","364465","0.0-1.0-537.0-0.0","0","0","60795","","null","","","null","59","","","","","","","","","","","","","","","",""
"","ITI","","html-keyboard-response","390","365470","0.0-1.0-540.0","0","0","60795","","null","","","null","59","","","","","","","","","","","","","","","NaN",""
"","S1","","html-keyboard-response","391","365737","0.0-1.0-542.0","0","0","60795","","null","","","null","60","","","","","","","","","","","","","","","",""
"","ISI","","html-keyboard-response","392","366258","0.0-1.0-543.0","0","0","60795","","null","","","null","60","NaN","","","","","","","","","","","","","","",""
"","S2","","html-keyboard-response","393","366524","0.0-1.0-544.0","0","0","60795","","null","","","null","60","","NaN","","","","","","","","","","","","","",""
"","response","","html-keyboard-response","394","367053","0.0-1.0-545.0-0.0","0","0","60795","","527","","","68","60","","","2","60","training","adjacent","BA","2","1","O.jpg","P.jpg","0","0","1","",""
"","feedback","","html-keyboard-response","395","368066","0.0-1.0-546.0-0.0","0","0","60795","","null","","","null","60","","","","","","","","","","","","","","","",""
"","ITI","","html-keyboard-response","396","369073","0.0-1.0-549.0","0","0","60795","","null","","","null","60","","","","","","","","","","","","","","","NaN",""
"","S1","","html-keyboard-response","397","369339","0.0-1.0-551.0","0","0","60795","","null","","","null","61","","","","","","","","","","","","","","","",""
"","ISI","","html-keyboard-response","398","369858","0.0-1.0-552.0","0","0","60795","","null","","","null","61","NaN","","","","","","","","","","","","","","",""
"","S2","","html-keyboard-response","399","370124","0.0-1.0-553.0","0","0","60795","","null","","","null","61","","NaN","","","","","","","","","","","","","",""
"","response","","html-keyboard-response","400","371060","0.0-1.0-554.0-0.0","0","0","60795","","933","","","68","61","","","2","61","training","adjacent","CD","3","4","M.jpg","N.jpg","0","1","0","",""
"","feedback","","html-keyboard-response","401","372075","0.0-1.0-555.0-0.0","0","0","60795","","null","","","null","61","","","","","","","","","","","","","","","",""
"","time_out","","html-keyboard-response","402","374087","0.0-1.0-557.0-0.0","0","0","60795","","null","","","null","61","","","","","","","","","","","","","","","",""
"","ITI","","html-keyboard-response","403","375093","0.0-1.0-558.0","0","0","60795","","null","","","null","61","","","","","","","","","","","","","","","NaN",""
"","S1","","html-keyboard-response","404","375351","0.0-1.0-560.0","0","0","60795","","null","","","null","62","","","","","","","","","","","","","","","",""
"","ISI","","html-keyboard-response","405","375867","0.0-1.0-561.0","0","0","60795","","null","","","null","62","NaN","","","","","","","","","","","","","","",""
"","S2","","html-keyboard-response","406","376133","0.0-1.0-562.0","0","0","60795","","null","","","null","62","","NaN","","","","","","","","","","","","","",""
"","response","","html-keyboard-response","407","377017","0.0-1.0-563.0-0.0","0","0","60795","","879","","","68","62","","","2","62","training","adjacent","FE","6","5","R.jpg","L.jpg","0","0","1","",""
"","feedback","","html-keyboard-response","408","378023","0.0-1.0-564.0-0.0","0","0","60795","","null","","","null","62","","","","","","","","","","","","","","","",""
"","ITI","","html-keyboard-response","409","379031","0.0-1.0-567.0","0","0","60795","","null","","","null","62","","","","","","","","","","","","","","","NaN",""
"","S1","","html-keyboard-response","410","379299","0.0-1.0-569.0","0","0","60795","","null","","","null","63","","","","","","","","","","","","","","","",""
"","ISI","","html-keyboard-response","411","379817","0.0-1.0-570.0","0","0","60795","","null","","","null","63","NaN","","","","","","","","","","","","","","",""
"","S2","","html-keyboard-response","412","380084","0.0-1.0-571.0","0","0","60795","","null","","","null","63","","NaN","","","","","","","","","","","","","",""
"","response","","html-keyboard-response","413","380557","0.0-1.0-572.0-0.0","0","0","60795","","469","","","68","63","","","2","63","training","adjacent","CB","3","2","M.jpg","O.jpg","0","0","1","",""
"","feedback","","html-keyboard-response","414","381565","0.0-1.0-573.0-0.0","0","0","60795","","null","","","null","63","","","","","","","","","","","","","","","",""
"","ITI","","html-keyboard-response","415","382572","0.0-1.0-576.0","0","0","60795","","null","","","null","63","","","","","","","","","","","","","","","NaN",""
"","S1","","html-keyboard-response","416","382841","0.0-1.0-578.0","0","0","60795","","null","","","null","64","","","","","","","","","","","","","","","",""
"","ISI","","html-keyboard-response","417","383358","0.0-1.0-579.0","0","0","60795","","null","","","null","64","NaN","","","","","","","","","","","","","","",""
"","S2","","html-keyboard-response","418","383626","0.0-1.0-580.0","0","0","60795","","null","","","null","64","","NaN","","","","","","","","","","","","","",""
"","response","","html-keyboard-response","419","384423","0.0-1.0-581.0-0.0","0","0","60795","","793","","","75","64","","","2","64","training","adjacent","CD","3","4","M.jpg","N.jpg","1","1","1","",""
"","feedback","","html-keyboard-response","420","385431","0.0-1.0-582.0-0.0","0","0","60795","","null","","","null","64","","","","","","","","","","","","","","","",""
"","ITI","","html-keyboard-response","421","386439","0.0-1.0-585.0","0","0","60795","","null","","","null","64","","","","","","","","","","","","","","","NaN",""
"","S1","","html-keyboard-response","422","386708","0.0-1.0-587.0","0","0","60795","","null","","","null","65","","","","","","","","","","","","","","","",""
"","ISI","","html-keyboard-response","423","387225","0.0-1.0-588.0","0","0","60795","","null","","","null","65","NaN","","","","","","","","","","","","","","",""
"","S2","","html-keyboard-response","424","387494","0.0-1.0-589.0","0","0","60795","","null","","","null","65","","NaN","","","","","","","","","","","","","",""
"","response","","html-keyboard-response","425","387915","0.0-1.0-590.0-0.0","0","0","60795","","419","","","68","65","","","2","65","training","adjacent","EF","5","6","L.jpg","R.jpg","0","1","0","",""
"","feedback","","html-keyboard-response","426","388925","0.0-1.0-591.0-0.0","0","0","60795","","null","","","null","65","","","","","","","","","","","","","","","",""
"","time_out","","html-keyboard-response","427","390937","0.0-1.0-593.0-0.0","0","0","60795","","null","","","null","65","","","","","","","","","","","","","","","",""
"","ITI","","html-keyboard-response","428","391945","0.0-1.0-594.0","0","0","60795","","null","","","null","65","","","","","","","","","","","","","","","NaN",""
"","S1","","html-keyboard-response","429","392212","0.0-1.0-596.0","0","0","60795","","null","","","null","66","","","","","","","","","","","","","","","",""
"","ISI","","html-keyboard-response","430","392731","0.0-1.0-597.0","0","0","60795","","null","","","null","66","NaN","","","","","","","","","","","","","","",""
"","S2","","html-keyboard-response","431","392997","0.0-1.0-598.0","0","0","60795","","null","","","null","66","","NaN","","","","","","","","","","","","","",""
"","response","","html-keyboard-response","432","393380","0.0-1.0-599.0-0.0","0","0","60795","","380","","","68","66","","","2","66","training","adjacent","EF","5","6","L.jpg","R.jpg","0","1","0","",""
"","feedback","","html-keyboard-response","433","394395","0.0-1.0-600.0-0.0","0","0","60795","","null","","","null","66","","","","","","","","","","","","","","","",""
"","time_out","","html-keyboard-response","434","396412","0.0-1.0-602.0-0.0","0","0","60795","","null","","","null","66","","","","","","","","","","","","","","","",""
"","ITI","","html-keyboard-response","435","397419","0.0-1.0-603.0","0","0","60795","","null","","","null","66","","","","","","","","","","","","","","","NaN",""
"","S1","","html-keyboard-response","436","397685","0.0-1.0-605.0","0","0","60795","","null","","","null","67","","","","","","","","","","","","","","","",""
"","ISI","","html-keyboard-response","437","398189","0.0-1.0-606.0","0","0","60795","","null","","","null","67","NaN","","","","","","","","","","","","","","",""
"","S2","","html-keyboard-response","438","398456","0.0-1.0-607.0","0","0","60795","","null","","","null","67","","NaN","","","","","","","","","","","","","",""
"","response","","html-keyboard-response","439","398822","0.0-1.0-608.0-0.0","0","0","60795","","361","","","75","67","","","2","67","training","adjacent","FG","6","7","R.jpg","Q.jpg","1","1","1","",""
"","feedback","","html-keyboard-response","440","399840","0.0-1.0-609.0-0.0","0","0","60795","","null","","","null","67","","","","","","","","","","","","","","","",""
"","ITI","","html-keyboard-response","441","400845","0.0-1.0-612.0","0","0","60795","","null","","","null","67","","","","","","","","","","","","","","","NaN",""
"","S1","","html-keyboard-response","442","401099","0.0-1.0-614.0","0","0","60795","","null","","","null","68","","","","","","","","","","","","","","","",""
"","ISI","","html-keyboard-response","443","401614","0.0-1.0-615.0","0","0","60795","","null","","","null","68","NaN","","","","","","","","","","","","","","",""
"","S2","","html-keyboard-response","444","401880","0.0-1.0-616.0","0","0","60795","","null","","","null","68","","NaN","","","","","","","","","","","","","",""
"","response","","html-keyboard-response","445","402322","0.0-1.0-617.0-0.0","0","0","60795","","437","","","68","68","","","2","68","training","adjacent","BA","2","1","O.jpg","P.jpg","0","0","1","",""
"","feedback","","html-keyboard-response","446","403327","0.0-1.0-618.0-0.0","0","0","60795","","null","","","null","68","","","","","","","","","","","","","","","",""
"","ITI","","html-keyboard-response","447","404331","0.0-1.0-621.0","0","0","60795","","null","","","null","68","","","","","","","","","","","","","","","NaN",""
"","S1","","html-keyboard-response","448","404599","0.0-1.0-623.0","0","0","60795","","null","","","null","69","","","","","","","","","","","","","","","",""
"","ISI","","html-keyboard-response","449","405105","0.0-1.0-624.0","0","0","60795","","null","","","null","69","NaN","","","","","","","","","","","","","","",""
"","S2","","html-keyboard-response","450","405372","0.0-1.0-625.0","0","0","60795","","null","","","null","69","","NaN","","","","","","","","","","","","","",""
"","response","","html-keyboard-response","451","406067","0.0-1.0-626.0-0.0","0","0","60795","","692","","","68","69","","","2","69","training","adjacent","CB","3","2","M.jpg","O.jpg","0","0","1","",""
"","feedback","","html-keyboard-response","452","407085","0.0-1.0-627.0-0.0","0","0","60795","","null","","","null","69","","","","","","","","","","","","","","","",""
"","ITI","","html-keyboard-response","453","408093","0.0-1.0-630.0","0","0","60795","","null","","","null","69","","","","","","","","","","","","","","","NaN",""
"","S1","","html-keyboard-response","454","408358","0.0-1.0-632.0","0","0","60795","","null","","","null","70","","","","","","","","","","","","","","","",""
"","ISI","","html-keyboard-response","455","408876","0.0-1.0-633.0","0","0","60795","","null","","","null","70","NaN","","","","","","","","","","","","","","",""
"","S2","","html-keyboard-response","456","409145","0.0-1.0-634.0","0","0","60795","","null","","","null","70","","NaN","","","","","","","","","","","","","",""
"","response","","html-keyboard-response","457","409904","0.0-1.0-635.0-0.0","0","0","60795","","757","","","68","70","","","2","70","training","adjacent","BC","2","3","O.jpg","M.jpg","0","1","0","",""
"","feedback","","html-keyboard-response","458","410923","0.0-1.0-636.0-0.0","0","0","60795","","null","","","null","70","","","","","","","","","","","","","","","",""
"","time_out","","html-keyboard-response","459","412943","0.0-1.0-638.0-0.0","0","0","60795","","null","","","null","70","","","","","","","","","","","","","","","",""
"","ITI","","html-keyboard-response","460","413950","0.0-1.0-639.0","0","0","60795","","null","","","null","70","","","","","","","","","","","","","","","NaN",""
"","S1","","html-keyboard-response","461","414217","0.0-1.0-641.0","0","0","60795","","null","","","null","71","","","","","","","","","","","","","","","",""
"","ISI","","html-keyboard-response","462","414736","0.0-1.0-642.0","0","0","60795","","null","","","null","71","NaN","","","","","","","","","","","","","","",""
"","S2","","html-keyboard-response","463","415003","0.0-1.0-643.0","0","0","60795","","null","","","null","71","","NaN","","","","","","","","","","","","","",""
"","response","","html-keyboard-response","464","415468","0.0-1.0-644.0-0.0","0","0","60795","","461","","","75","71","","","2","71","training","adjacent","AB","1","2","P.jpg","O.jpg","1","1","1","",""
"","feedback","","html-keyboard-response","465","416485","0.0-1.0-645.0-0.0","0","0","60795","","null","","","null","71","","","","","","","","","","","","","","","",""
"","ITI","","html-keyboard-response","466","417491","0.0-1.0-648.0","0","0","60795","","null","","","null","71","","","","","","","","","","","","","","","NaN",""
"","S1","","html-keyboard-response","467","417759","0.0-1.0-650.0","0","0","60795","","null","","","null","72","","","","","","","","","","","","","","","",""
"","ISI","","html-keyboard-response","468","418280","0.0-1.0-651.0","0","0","60795","","null","","","null","72","NaN","","","","","","","","","","","","","","",""
"","S2","","html-keyboard-response","469","418545","0.0-1.0-652.0","0","0","60795","","null","","","null","72","","NaN","","","","","","","","","","","","","",""
"","response","","html-keyboard-response","470","419186","0.0-1.0-653.0-0.0","0","0","60795","","634","","","68","72","","","2","72","training","adjacent","BC","2","3","O.jpg","M.jpg","0","1","0","",""
"","feedback","","html-keyboard-response","471","420201","0.0-1.0-654.0-0.0","0","0","60795","","null","","","null","72","","","","","","","","","","","","","","","",""
"","time_out","","html-keyboard-response","472","422210","0.0-1.0-656.0-0.0","0","0","60795","","null","","","null","72","","","","","","","","","","","","","","","",""
"","ITI","","html-keyboard-response","473","423218","0.0-1.0-657.0","0","0","60795","","null","","","null","72","","","","","","","","","","","","","","","NaN",""
"","S1","","html-keyboard-response","474","423481","0.0-1.0-659.0","0","0","60795","","null","","","null","73","","","","","","","","","","","","","","","",""
"","ISI","","html-keyboard-response","475","424000","0.0-1.0-660.0","0","0","60795","","null","","","null","73","NaN","","","","","","","","","","","","","","",""
"","S2","","html-keyboard-response","476","424268","0.0-1.0-661.0","0","0","60795","","null","","","null","73","","NaN","","","","","","","","","","","","","",""
"","response","","html-keyboard-response","477","424737","0.0-1.0-662.0-0.0","0","0","60795","","465","","","75","73","","","2","73","training","adjacent","FG","6","7","R.jpg","Q.jpg","1","1","1","",""
"","feedback","","html-keyboard-response","478","425742","0.0-1.0-663.0-0.0","0","0","60795","","null","","","null","73","","","","","","","","","","","","","","","",""
"","ITI","","html-keyboard-response","479","426748","0.0-1.0-666.0","0","0","60795","","null","","","null","73","","","","","","","","","","","","","","","NaN",""
"","S1","","html-keyboard-response","480","427014","0.0-1.0-668.0","0","0","60795","","null","","","null","74","","","","","","","","","","","","","","","",""
"","ISI","","html-keyboard-response","481","427532","0.0-1.0-669.0","0","0","60795","","null","","","null","74","NaN","","","","","","","","","","","","","","",""
"","S2","","html-keyboard-response","482","427799","0.0-1.0-670.0","0","0","60795","","null","","","null","74","","NaN","","","","","","","","","","","","","",""
"","response","","html-keyboard-response","483","428365","0.0-1.0-671.0-0.0","0","0","60795","","562","","","75","74","","","2","74","training","adjacent","FE","6","5","R.jpg","L.jpg","1","0","0","",""
"","feedback","","html-keyboard-response","484","429370","0.0-1.0-672.0-0.0","0","0","60795","","null","","","null","74","","","","","","","","","","","","","","","",""
"","time_out","","html-keyboard-response","485","431386","0.0-1.0-674.0-0.0","0","0","60795","","null","","","null","74","","","","","","","","","","","","","","","",""
"","ITI","","html-keyboard-response","486","432390","0.0-1.0-675.0","0","0","60795","","null","","","null","74","","","","","","","","","","","","","","","NaN",""
"","S1","","html-keyboard-response","487","432659","0.0-1.0-677.0","0","0","60795","","null","","","null","75","","","","","","","","","","","","","","","",""
"","ISI","","html-keyboard-response","488","433176","0.0-1.0-678.0","0","0","60795","","null","","","null","75","NaN","","","","","","","","","","","","","","",""
"","S2","","html-keyboard-response","489","433444","0.0-1.0-679.0","0","0","60795","","null","","","null","75","","NaN","","","","","","","","","","","","","",""
"","response","","html-keyboard-response","490","434171","0.0-1.0-680.0-0.0","0","0","60795","","724","","","75","75","","","2","75","training","adjacent","DC","4","3","N.jpg","M.jpg","1","0","0","",""
"","feedback","","html-keyboard-response","491","435175","0.0-1.0-681.0-0.0","0","0","60795","","null","","","null","75","","","","","","","","","","","","","","","",""
"","time_out","","html-keyboard-response","492","437188","0.0-1.0-683.0-0.0","0","0","60795","","null","","","null","75","","","","","","","","","","","","","","","",""
"","ITI","","html-keyboard-response","493","438195","0.0-1.0-684.0","0","0","60795","","null","","","null","75","","","","","","","","","","","","","","","NaN",""
"","S1","","html-keyboard-response","494","438461","0.0-1.0-686.0","0","0","60795","","null","","","null","76","","","","","","","","","","","","","","","",""
"","ISI","","html-keyboard-response","495","438979","0.0-1.0-687.0","0","0","60795","","null","","","null","76","NaN","","","","","","","","","","","","","","",""
"","S2","","html-keyboard-response","496","439246","0.0-1.0-688.0","0","0","60795","","null","","","null","76","","NaN","","","","","","","","","","","","","",""
"","response","","html-keyboard-response","497","440113","0.0-1.0-689.0-0.0","0","0","60795","","864","","","75","76","","","2","76","training","adjacent","BC","2","3","O.jpg","M.jpg","1","1","1","",""
"","feedback","","html-keyboard-response","498","441133","0.0-1.0-690.0-0.0","0","0","60795","","null","","","null","76","","","","","","","","","","","","","","","",""
"","ITI","","html-keyboard-response","499","442144","0.0-1.0-693.0","0","0","60795","","null","","","null","76","","","","","","","","","","","","","","","NaN",""
"","S1","","html-keyboard-response","500","442408","0.0-1.0-695.0","0","0","60795","","null","","","null","77","","","","","","","","","","","","","","","",""
"","ISI","","html-keyboard-response","501","442927","0.0-1.0-696.0","0","0","60795","","null","","","null","77","NaN","","","","","","","","","","","","","","",""
"","S2","","html-keyboard-response","502","443193","0.0-1.0-697.0","0","0","60795","","null","","","null","77","","NaN","","","","","","","","","","","","","",""
"","response","","html-keyboard-response","503","443616","0.0-1.0-698.0-0.0","0","0","60795","","420","","","75","77","","","2","77","training","adjacent","FG","6","7","R.jpg","Q.jpg","1","1","1","",""
"","feedback","","html-keyboard-response","504","444629","0.0-1.0-699.0-0.0","0","0","60795","","null","","","null","77","","","","","","","","","","","","","","","",""
"","ITI","","html-keyboard-response","505","445638","0.0-1.0-702.0","0","0","60795","","null","","","null","77","","","","","","","","","","","","","","","NaN",""
"","S1","","html-keyboard-response","506","445902","0.0-1.0-704.0","0","0","60795","","null","","","null","78","","","","","","","","","","","","","","","",""
"","ISI","","html-keyboard-response","507","446408","0.0-1.0-705.0","0","0","60795","","null","","","null","78","NaN","","","","","","","","","","","","","","",""
"","S2","","html-keyboard-response","508","446673","0.0-1.0-706.0","0","0","60795","","null","","","null","78","","NaN","","","","","","","","","","","","","",""
"","response","","html-keyboard-response","509","447153","0.0-1.0-707.0-0.0","0","0","60795","","475","","","75","78","","","2","78","training","adjacent","DE","4","5","N.jpg","L.jpg","1","1","1","",""
"","feedback","","html-keyboard-response","510","448165","0.0-1.0-708.0-0.0","0","0","60795","","null","","","null","78","","","","","","","","","","","","","","","",""
"","ITI","","html-keyboard-response","511","449171","0.0-1.0-711.0","0","0","60795","","null","","","null","78","","","","","","","","","","","","","","","NaN",""
"","S1","","html-keyboard-response","512","449436","0.0-1.0-713.0","0","0","60795","","null","","","null","79","","","","","","","","","","","","","","","",""
"","ISI","","html-keyboard-response","513","449943","0.0-1.0-714.0","0","0","60795","","null","","","null","79","NaN","","","","","","","","","","","","","","",""
"","S2","","html-keyboard-response","514","450209","0.0-1.0-715.0","0","0","60795","","null","","","null","79","","NaN","","","","","","","","","","","","","",""
"","response","","html-keyboard-response","515","450731","0.0-1.0-716.0-0.0","0","0","60795","","521","","","68","79","","","2","79","training","adjacent","FE","6","5","R.jpg","L.jpg","0","0","1","",""
"","feedback","","html-keyboard-response","516","451746","0.0-1.0-717.0-0.0","0","0","60795","","null","","","null","79","","","","","","","","","","","","","","","",""
"","ITI","","html-keyboard-response","517","452756","0.0-1.0-720.0","0","0","60795","","null","","","null","79","","","","","","","","","","","","","","","NaN",""
"","S1","","html-keyboard-response","518","453023","0.0-1.0-722.0","0","0","60795","","null","","","null","80","","","","","","","","","","","","","","","",""
"","ISI","","html-keyboard-response","519","453542","0.0-1.0-723.0","0","0","60795","","null","","","null","80","NaN","","","","","","","","","","","","","","",""
"","S2","","html-keyboard-response","520","453807","0.0-1.0-724.0","0","0","60795","","null","","","null","80","","NaN","","","","","","","","","","","","","",""
"","response","","html-keyboard-response","521","454364","0.0-1.0-725.0-0.0","0","0","60795","","554","","","75","80","","","2","80","training","adjacent","ED","5","4","L.jpg","N.jpg","1","0","0","",""
"","feedback","","html-keyboard-response","522","455380","0.0-1.0-726.0-0.0","0","0","60795","","null","","","null","80","","","","","","","","","","","","","","","",""
"","time_out","","html-keyboard-response","523","457398","0.0-1.0-728.0-0.0","0","0","60795","","null","","","null","80","","","","","","","","","","","","","","","",""
"","ITI","","html-keyboard-response","524","458407","0.0-1.0-729.0","0","0","60795","","null","","","null","80","","","","","","","","","","","","","","","NaN",""
"","S1","","html-keyboard-response","525","458673","0.0-1.0-731.0","0","0","60795","","null","","","null","81","","","","","","","","","","","","","","","",""
"","ISI","","html-keyboard-response","526","459190","0.0-1.0-732.0","0","0","60795","","null","","","null","81","NaN","","","","","","","","","","","","","","",""
"","S2","","html-keyboard-response","527","459460","0.0-1.0-733.0","0","0","60795","","null","","","null","81","","NaN","","","","","","","","","","","","","",""
"","response","","html-keyboard-response","528","460236","0.0-1.0-734.0-0.0","0","0","60795","","772","","","75","81","","","2","81","training","adjacent","DE","4","5","N.jpg","L.jpg","1","1","1","",""
"","feedback","","html-keyboard-response","529","461252","0.0-1.0-735.0-0.0","0","0","60795","","null","","","null","81","","","","","","","","","","","","","","","",""
"","ITI","","html-keyboard-response","530","462261","0.0-1.0-738.0","0","0","60795","","null","","","null","81","","","","","","","","","","","","","","","NaN",""
"","S1","","html-keyboard-response","531","462529","0.0-1.0-740.0","0","0","60795","","null","","","null","82","","","","","","","","","","","","","","","",""
"","ISI","","html-keyboard-response","532","463034","0.0-1.0-741.0","0","0","60795","","null","","","null","82","NaN","","","","","","","","","","","","","","",""
"","S2","","html-keyboard-response","533","463300","0.0-1.0-742.0","0","0","60795","","null","","","null","82","","NaN","","","","","","","","","","","","","",""
"","response","","html-keyboard-response","534","463896","0.0-1.0-743.0-0.0","0","0","60795","","593","","","75","82","","","2","82","training","adjacent","FE","6","5","R.jpg","L.jpg","1","0","0","",""
"","feedback","","html-keyboard-response","535","464906","0.0-1.0-744.0-0.0","0","0","60795","","null","","","null","82","","","","","","","","","","","","","","","",""
"","time_out","","html-keyboard-response","536","466921","0.0-1.0-746.0-0.0","0","0","60795","","null","","","null","82","","","","","","","","","","","","","","","",""
"","ITI","","html-keyboard-response","537","467925","0.0-1.0-747.0","0","0","60795","","null","","","null","82","","","","","","","","","","","","","","","NaN",""
"","S1","","html-keyboard-response","538","468194","0.0-1.0-749.0","0","0","60795","","null","","","null","83","","","","","","","","","","","","","","","",""
"","ISI","","html-keyboard-response","539","468698","0.0-1.0-750.0","0","0","60795","","null","","","null","83","NaN","","","","","","","","","","","","","","",""
"","S2","","html-keyboard-response","540","468966","0.0-1.0-751.0","0","0","60795","","null","","","null","83","","NaN","","","","","","","","","","","","","",""
"","response","","html-keyboard-response","541","469649","0.0-1.0-752.0-0.0","0","0","60795","","679","","","75","83","","","2","83","training","adjacent","DC","4","3","N.jpg","M.jpg","1","0","0","",""
"","feedback","","html-keyboard-response","542","470663","0.0-1.0-753.0-0.0","0","0","60795","","null","","","null","83","","","","","","","","","","","","","","","",""
"","time_out","","html-keyboard-response","543","472676","0.0-1.0-755.0-0.0","0","0","60795","","null","","","null","83","","","","","","","","","","","","","","","",""
"","ITI","","html-keyboard-response","544","473682","0.0-1.0-756.0","0","0","60795","","null","","","null","83","","","","","","","","","","","","","","","NaN",""
"","S1","","html-keyboard-response","545","473950","0.0-1.0-758.0","0","0","60795","","null","","","null","84","","","","","","","","","","","","","","","",""
"","ISI","","html-keyboard-response","546","474500","0.0-1.0-759.0","0","0","60795","","null","","","null","84","NaN","","","","","","","","","","","","","","",""
"","S2","","html-keyboard-response","547","474767","0.0-1.0-760.0","0","0","60795","","null","","","null","84","","NaN","","","","","","","","","","","","","",""
"","response","","html-keyboard-response","548","475335","0.0-1.0-761.0-0.0","0","0","60795","","566","","","68","84","","","2","84","training","adjacent","EF","5","6","L.jpg","R.jpg","0","1","0","",""
"","feedback","","html-keyboard-response","549","476339","0.0-1.0-762.0-0.0","0","0","60795","","null","","","null","84","","","","","","","","","","","","","","","",""
"","time_out","","html-keyboard-response","550","478353","0.0-1.0-764.0-0.0","0","0","60795","","null","","","null","84","","","","","","","","","","","","","","","",""
"","ITI","","html-keyboard-response","551","479366","0.0-1.0-765.0","0","0","60795","","null","","","null","84","","","","","","","","","","","","","","","NaN",""
"","S1","","html-keyboard-response","552","479630","0.0-1.0-767.0","0","0","60795","","null","","","null","85","","","","","","","","","","","","","","","",""
"","ISI","","html-keyboard-response","553","480148","0.0-1.0-768.0","0","0","60795","","null","","","null","85","NaN","","","","","","","","","","","","","","",""
"","S2","","html-keyboard-response","554","480416","0.0-1.0-769.0","0","0","60795","","null","","","null","85","","NaN","","","","","","","","","","","","","",""
"","response","","html-keyboard-response","555","480931","0.0-1.0-770.0-0.0","0","0","60795","","511","","","75","85","","","2","85","training","adjacent","AB","1","2","P.jpg","O.jpg","1","1","1","",""
"","feedback","","html-keyboard-response","556","481942","0.0-1.0-771.0-0.0","0","0","60795","","null","","","null","85","","","","","","","","","","","","","","","",""
"","ITI","","html-keyboard-response","557","482961","0.0-1.0-774.0","0","0","60795","","null","","","null","85","","","","","","","","","","","","","","","NaN",""
"","S1","","html-keyboard-response","558","483228","0.0-1.0-776.0","0","0","60795","","null","","","null","86","","","","","","","","","","","","","","","",""
"","ISI","","html-keyboard-response","559","483730","0.0-1.0-777.0","0","0","60795","","null","","","null","86","NaN","","","","","","","","","","","","","","",""
"","S2","","html-keyboard-response","560","483997","0.0-1.0-778.0","0","0","60795","","null","","","null","86","","NaN","","","","","","","","","","","","","",""
"","response","","html-keyboard-response","561","484456","0.0-1.0-779.0-0.0","0","0","60795","","456","","","68","86","","","2","86","training","adjacent","GF","7","6","Q.jpg","R.jpg","0","0","1","",""
"","feedback","","html-keyboard-response","562","485462","0.0-1.0-780.0-0.0","0","0","60795","","null","","","null","86","","","","","","","","","","","","","","","",""
"","ITI","","html-keyboard-response","563","486470","0.0-1.0-783.0","0","0","60795","","null","","","null","86","","","","","","","","","","","","","","","NaN",""
"","S1","","html-keyboard-response","564","486736","0.0-1.0-785.0","0","0","60795","","null","","","null","87","","","","","","","","","","","","","","","",""
"","ISI","","html-keyboard-response","565","487256","0.0-1.0-786.0","0","0","60795","","null","","","null","87","NaN","","","","","","","","","","","","","","",""
"","S2","","html-keyboard-response","566","487522","0.0-1.0-787.0","0","0","60795","","null","","","null","87","","NaN","","","","","","","","","","","","","",""
"","response","","html-keyboard-response","567","488097","0.0-1.0-788.0-0.0","0","0","60795","","573","","","68","87","","","2","87","training","adjacent","ED","5","4","L.jpg","N.jpg","0","0","1","",""
"","feedback","","html-keyboard-response","568","489109","0.0-1.0-789.0-0.0","0","0","60795","","null","","","null","87","","","","","","","","","","","","","","","",""
"","ITI","","html-keyboard-response","569","490117","0.0-1.0-792.0","0","0","60795","","null","","","null","87","","","","","","","","","","","","","","","NaN",""
"","S1","","html-keyboard-response","570","490370","0.0-1.0-794.0","0","0","60795","","null","","","null","88","","","","","","","","","","","","","","","",""
"","ISI","","html-keyboard-response","571","490889","0.0-1.0-795.0","0","0","60795","","null","","","null","88","NaN","","","","","","","","","","","","","","",""
"","S2","","html-keyboard-response","572","491156","0.0-1.0-796.0","0","0","60795","","null","","","null","88","","NaN","","","","","","","","","","","","","",""
"","response","","html-keyboard-response","573","491476","0.0-1.0-797.0-0.0","0","0","60795","","316","","","75","88","","","2","88","training","adjacent","GF","7","6","Q.jpg","R.jpg","1","0","0","",""
"","feedback","","html-keyboard-response","574","492495","0.0-1.0-798.0-0.0","0","0","60795","","null","","","null","88","","","","","","","","","","","","","","","",""
"","time_out","","html-keyboard-response","575","494506","0.0-1.0-800.0-0.0","0","0","60795","","null","","","null","88","","","","","","","","","","","","","","","",""
"","ITI","","html-keyboard-response","576","495514","0.0-1.0-801.0","0","0","60795","","null","","","null","88","","","","","","","","","","","","","","","NaN",""
"","S1","","html-keyboard-response","577","495781","0.0-1.0-803.0","0","0","60795","","null","","","null","89","","","","","","","","","","","","","","","",""
"","ISI","","html-keyboard-response","578","496298","0.0-1.0-804.0","0","0","60795","","null","","","null","89","NaN","","","","","","","","","","","","","","",""
"","S2","","html-keyboard-response","579","496566","0.0-1.0-805.0","0","0","60795","","null","","","null","89","","NaN","","","","","","","","","","","","","",""
"","response","","html-keyboard-response","580","497105","0.0-1.0-806.0-0.0","0","0","60795","","535","","","68","89","","","2","89","training","adjacent","ED","5","4","L.jpg","N.jpg","0","0","1","",""
"","feedback","","html-keyboard-response","581","498119","0.0-1.0-807.0-0.0","0","0","60795","","null","","","null","89","","","","","","","","","","","","","","","",""
"","ITI","","html-keyboard-response","582","499126","0.0-1.0-810.0","0","0","60795","","null","","","null","89","","","","","","","","","","","","","","","NaN",""
