"success","ttype","start_time","trial_type","trial_index","time_elapsed","internal_node_id","warning","missed_checkup","PID","view_history","rt","responses","repeat_instructions","key_press","index","keypress_isi","keypress_S2","block","trial_num","phase","group_type","pair_type","S1_stim","S2_stim","S1_img","S2_img","S1_chosen","S1_higher","accuracy","keypress_iti","total_bonus_tally"
"true","full_screen","d03072023hr1741","fullscreen","0","3311","0.0-0.0","0","0","87047","","","","","","","","","","","","","","","","","","","","","",""
"","instructions","","instructions","1","25527","0.0-1.0-0.0-0.0","0","0","87047","[{""page_index"":0,""viewing_time"":3122},{""page_index"":1,""viewing_time"":13984},{""page_index"":2,""viewing_time"":2869},{""page_index"":3,""viewing_time"":2231}]","22208","","","","","","","","","","","","","","","","","","","",""
"","comprehension_check","","survey-multi-choice","2","49238","0.0-1.0-0.0-1.0","0","0","87047","","23687","{""Q0"":""True"",""Q1"":""K"",""Q2"":""Only while the second image is shown"",""Q3"":""Green mark"",""Q4"":""either D or K""}","1","","","","","","","","","","","","","","","","","",""
"","missed_instruction_checkup","","html-keyboard-response","3","52767","0.0-1.0-0.0-2.0-0.0","0","1","87047","","3517","","","32","","","","","","","","","","","","","","","","",""
"","instructions","","instructions","4","77344","0.0-1.0-0.1-0.1","0","0","87047","[{""page_index"":0,""viewing_time"":2016},{""page_index"":1,""viewing_time"":12583},{""page_index"":2,""viewing_time"":8469},{""page_index"":3,""viewing_time"":1494}]","24563","","","","","","","","","","","","","","","","","","","",""
"","comprehension_check","","survey-multi-choice","5","141943","0.0-1.0-0.1-1.1","0","0","87047","","64582","{""Q0"":""True"",""Q1"":""K"",""Q2"":""Only when the screen 'MAKE A CHOICE' is shown"",""Q3"":""Green mark"",""Q4"":""either D or K""}","1","","","","","","","","","","","","","","","","","",""
"","missed_instruction_checkup","","html-keyboard-response","6","144706","0.0-1.0-0.1-2.1-0.1","0","1","87047","","2753","","","32","","","","","","","","","","","","","","","","",""
"","instructions","","instructions","7","157370","0.0-1.0-0.2-0.2","0","0","87047","[{""page_index"":0,""viewing_time"":2329},{""page_index"":1,""viewing_time"":3908},{""page_index"":2,""viewing_time"":4121},{""page_index"":3,""viewing_time"":2299}]","12659","","","","","","","","","","","","","","","","","","","",""
"","comprehension_check","","survey-multi-choice","8","171841","0.0-1.0-0.2-1.2","0","0","87047","","14452","{""Q0"":""False"",""Q1"":""K"",""Q2"":""Only when the screen 'MAKE A CHOICE' is shown"",""Q3"":""Green mark"",""Q4"":""either D or K""}","1","","","","","","","","","","","","","","","","","",""
"","missed_instruction_checkup","","html-keyboard-response","9","173815","0.0-1.0-0.2-2.2-0.2","0","1","87047","","1967","","","32","","","","","","","","","","","","","","","","",""
"","instructions","","instructions","10","178826","0.0-1.0-0.3-0.3","0","0","87047","[{""page_index"":0,""viewing_time"":1735},{""page_index"":1,""viewing_time"":1637},{""page_index"":2,""viewing_time"":1390},{""page_index"":3,""viewing_time"":243}]","5006","","","","","","","","","","","","","","","","","","","",""
"","comprehension_check","","survey-multi-choice","11","191289","0.0-1.0-0.3-1.3","0","0","87047","","12446","{""Q0"":""True"",""Q1"":"""",""Q2"":""Only when the screen 'MAKE A CHOICE' is shown"",""Q3"":""Green mark"",""Q4"":""Use a mouse""}","1","","","","","","","","","","","","","","","","","",""
"","missed_instruction_checkup","","html-keyboard-response","12","192911","0.0-1.0-0.3-2.3-0.3","0","1","87047","","1613","","","32","","","","","","","","","","","","","","","","",""
"","instructions","","instructions","13","212361","0.0-1.0-0.4-0.4","0","0","87047","[{""page_index"":0,""viewing_time"":9477},{""page_index"":1,""viewing_time"":5078},{""page_index"":2,""viewing_time"":1674},{""page_index"":3,""viewing_time"":3207}]","19438","","","","","","","","","","","","","","","","","","","",""
"","comprehension_check","","survey-multi-choice","14","266307","0.0-1.0-0.4-1.4","0","0","87047","","53932","{""Q0"":""True"",""Q1"":""K"",""Q2"":""Once the second image appears and while the screen 'MAKE A CHOICE' is shown"",""Q3"":""Green mark"",""Q4"":""either D or K""}","0","","","","","","","","","","","","","","","","","",""
"","start_exp","","html-keyboard-response","15","268565","0.0-1.0-1.0","0","0","87047","","2251","","","32","","","","","","","","","","","","","","","","",""
"","S1","","html-keyboard-response","16","268834","0.0-1.0-2.0","0","0","87047","","null","","","null","0","","","","","","","","","","","","","","","",""
"","ISI","","html-keyboard-response","17","269839","0.0-1.0-3.0","0","0","87047","","null","","","null","0","NaN","","","","","","","","","","","","","","",""
"","S2","","html-keyboard-response","18","270095","0.0-1.0-4.0","0","0","87047","","null","","","null","0","","NaN","","","","","","","","","","","","","",""
"","response","","html-keyboard-response","19","271852","0.0-1.0-5.0-0.0","0","0","87047","","null","","","null","0","","","1","0","training","adjacent","FG","6","7","Q.jpg","N.jpg","NaN","1","0","",""
"","too_slow_prompt","","html-keyboard-response","20","272859","0.0-1.0-7.0-0.0","1","0","87047","","null","","","null","","","","","","","","","","","","","","","","",""
"","time_out","","html-keyboard-response","21","274867","0.0-1.0-8.0-0.0","0","0","87047","","null","","","null","0","","","","","","","","","","","","","","","",""
"","ITI","","html-keyboard-response","22","275871","0.0-1.0-9.0","0","0","87047","","null","","","null","0","","","","","","","","","","","","","","","NaN",""
"","S1","","html-keyboard-response","23","276129","0.0-1.0-11.0","0","0","87047","","null","","","null","1","","","","","","","","","","","","","","","",""
"","ISI","","html-keyboard-response","24","277133","0.0-1.0-12.0","0","0","87047","","null","","","null","1","NaN","","","","","","","","","","","","","","",""
"","S2","","html-keyboard-response","25","277389","0.0-1.0-13.0","0","0","87047","","null","","","null","1","","NaN","","","","","","","","","","","","","",""
"","response","","html-keyboard-response","26","279146","0.0-1.0-14.0-0.0","0","0","87047","","null","","","null","1","","","1","1","training","adjacent","GF","7","6","N.jpg","Q.jpg","NaN","0","0","",""
"","too_slow_prompt","","html-keyboard-response","27","280152","0.0-1.0-16.0-0.0","1","0","87047","","null","","","null","","","","","","","","","","","","","","","","",""
"","time_out","","html-keyboard-response","28","282160","0.0-1.0-17.0-0.0","0","0","87047","","null","","","null","1","","","","","","","","","","","","","","","",""
"","ITI","","html-keyboard-response","29","283164","0.0-1.0-18.0","0","0","87047","","null","","","null","1","","","","","","","","","","","","","","","NaN",""
"","S1","","html-keyboard-response","30","283419","0.0-1.0-20.0","0","0","87047","","null","","","null","2","","","","","","","","","","","","","","","",""
"","ISI","","html-keyboard-response","31","284435","0.0-1.0-21.0","0","0","87047","","null","","","null","2","NaN","","","","","","","","","","","","","","",""
"","S2","","html-keyboard-response","32","284689","0.0-1.0-22.0","0","0","87047","","null","","","null","2","","NaN","","","","","","","","","","","","","",""
"","response","","html-keyboard-response","33","286445","0.0-1.0-23.0-0.0","0","0","87047","","null","","","null","2","","","1","2","training","adjacent","EF","5","6","L.jpg","Q.jpg","NaN","1","0","",""
"","too_slow_prompt","","html-keyboard-response","34","287454","0.0-1.0-25.0-0.0","1","0","87047","","null","","","null","","","","","","","","","","","","","","","","",""
"","time_out","","html-keyboard-response","35","289464","0.0-1.0-26.0-0.0","0","0","87047","","null","","","null","2","","","","","","","","","","","","","","","",""
"","ITI","","html-keyboard-response","36","290470","0.0-1.0-27.0","0","0","87047","","373","","","75","2","","","","","","","","","","","","","","","k",""
"","S1","","html-keyboard-response","37","290729","0.0-1.0-29.0","0","0","87047","","null","","","null","3","","","","","","","","","","","","","","","",""
"","ISI","","html-keyboard-response","38","291743","0.0-1.0-30.0","0","0","87047","","875","","","68","3","d","","","","","","","","","","","","","","",""
"","S2","","html-keyboard-response","39","292001","0.0-1.0-31.0","0","0","87047","","null","","","null","3","","NaN","","","","","","","","","","","","","",""
"","response","","html-keyboard-response","40","293761","0.0-1.0-32.0-0.0","0","0","87047","","null","","","null","3","","","1","3","training","adjacent","EF","5","6","L.jpg","Q.jpg","NaN","1","0","",""
"","too_slow_prompt","","html-keyboard-response","41","294765","0.0-1.0-34.0-0.0","1","0","87047","","null","","","null","","","","","","","","","","","","","","","","",""
"","time_out","","html-keyboard-response","42","296770","0.0-1.0-35.0-0.0","0","0","87047","","null","","","null","3","","","","","","","","","","","","","","","",""
"","ITI","","html-keyboard-response","43","297775","0.0-1.0-36.0","0","0","87047","","197","","","75","3","","","","","","","","","","","","","","","k",""
"","S1","","html-keyboard-response","44","298032","0.0-1.0-38.0","0","0","87047","","null","","","null","4","","","","","","","","","","","","","","","",""
"","ISI","","html-keyboard-response","45","299038","0.0-1.0-39.0","0","0","87047","","null","","","null","4","NaN","","","","","","","","","","","","","","",""
"","S2","","html-keyboard-response","46","299295","0.0-1.0-40.0","0","0","87047","","null","","","null","4","","NaN","","","","","","","","","","","","","",""
"","response","","html-keyboard-response","47","301054","0.0-1.0-41.0-0.0","0","0","87047","","null","","","null","4","","","1","4","training","adjacent","DE","4","5","M.jpg","L.jpg","NaN","1","0","",""
"","too_slow_prompt","","html-keyboard-response","48","302060","0.0-1.0-43.0-0.0","1","0","87047","","null","","","null","","","","","","","","","","","","","","","","",""
"","time_out","","html-keyboard-response","49","304067","0.0-1.0-44.0-0.0","0","0","87047","","null","","","null","4","","","","","","","","","","","","","","","",""
"","ITI","","html-keyboard-response","50","305072","0.0-1.0-45.0","0","0","87047","","93","","","75","4","","","","","","","","","","","","","","","k",""
"","S1","","html-keyboard-response","51","305325","0.0-1.0-47.0","0","0","87047","","null","","","null","5","","","","","","","","","","","","","","","",""
"","ISI","","html-keyboard-response","52","306330","0.0-1.0-48.0","0","0","87047","","43","","","32","5","space","","","","","","","","","","","","","","",""
"","S2","","html-keyboard-response","53","306584","0.0-1.0-49.0","0","0","87047","","null","","","null","5","","NaN","","","","","","","","","","","","","",""
"","response","","html-keyboard-response","54","307590","0.0-1.0-50.0-0.0","0","0","87047","","999","","","75","5","","","1","5","training","adjacent","BA","2","1","P.jpg","O.jpg","1","0","0","",""
"","feedback","","html-keyboard-response","55","308603","0.0-1.0-51.0-0.0","0","0","87047","","null","","","null","5","","","","","","","","","","","","","","","",""
"","time_out","","html-keyboard-response","56","310637","0.0-1.0-53.0-0.0","0","0","87047","","null","","","null","5","","","","","","","","","","","","","","","",""
"","ITI","","html-keyboard-response","57","311644","0.0-1.0-54.0","0","0","87047","","null","","","null","5","","","","","","","","","","","","","","","NaN",""
"","S1","","html-keyboard-response","58","311900","0.0-1.0-56.0","0","0","87047","","null","","","null","6","","","","","","","","","","","","","","","",""
"","ISI","","html-keyboard-response","59","312906","0.0-1.0-57.0","0","0","87047","","null","","","null","6","NaN","","","","","","","","","","","","","","",""
"","S2","","html-keyboard-response","60","313162","0.0-1.0-58.0","0","0","87047","","null","","","null","6","","NaN","","","","","","","","","","","","","",""
"","response","","html-keyboard-response","61","314640","0.0-1.0-59.0-0.0","0","0","87047","","1470","","","75","6","","","1","6","training","adjacent","GF","7","6","N.jpg","Q.jpg","1","0","0","",""
"","feedback","","html-keyboard-response","62","315646","0.0-1.0-60.0-0.0","0","0","87047","","null","","","null","6","","","","","","","","","","","","","","","",""
"","time_out","","html-keyboard-response","63","317653","0.0-1.0-62.0-0.0","0","0","87047","","null","","","null","6","","","","","","","","","","","","","","","",""
"","ITI","","html-keyboard-response","64","318659","0.0-1.0-63.0","0","0","87047","","null","","","null","6","","","","","","","","","","","","","","","NaN",""
"","S1","","html-keyboard-response","65","318913","0.0-1.0-65.0","0","0","87047","","null","","","null","7","","","","","","","","","","","","","","","",""
"","ISI","","html-keyboard-response","66","319918","0.0-1.0-66.0","0","0","87047","","null","","","null","7","NaN","","","","","","","","","","","","","","",""
"","S2","","html-keyboard-response","67","320173","0.0-1.0-67.0","0","0","87047","","null","","","null","7","","NaN","","","","","","","","","","","","","",""
"","response","","html-keyboard-response","68","321929","0.0-1.0-68.0-0.0","0","0","87047","","null","","","null","7","","","1","7","training","adjacent","CD","3","4","R.jpg","M.jpg","NaN","1","0","",""
"","too_slow_prompt","","html-keyboard-response","69","322936","0.0-1.0-70.0-0.0","1","0","87047","","null","","","null","","","","","","","","","","","","","","","","",""
"","time_out","","html-keyboard-response","70","324943","0.0-1.0-71.0-0.0","0","0","87047","","null","","","null","7","","","","","","","","","","","","","","","",""
"","ITI","","html-keyboard-response","71","325955","0.0-1.0-72.0","0","0","87047","","null","","","null","7","","","","","","","","","","","","","","","NaN",""
"","S1","","html-keyboard-response","72","326227","0.0-1.0-74.0","0","0","87047","","null","","","null","8","","","","","","","","","","","","","","","",""
"","ISI","","html-keyboard-response","73","327236","0.0-1.0-75.0","0","0","87047","","null","","","null","8","NaN","","","","","","","","","","","","","","",""
"","S2","","html-keyboard-response","74","327492","0.0-1.0-76.0","0","0","87047","","null","","","null","8","","NaN","","","","","","","","","","","","","",""
"","response","","html-keyboard-response","75","329264","0.0-1.0-77.0-0.0","0","0","87047","","null","","","null","8","","","1","8","training","adjacent","AB","1","2","O.jpg","P.jpg","NaN","1","0","",""
"","too_slow_prompt","","html-keyboard-response","76","330269","0.0-1.0-79.0-0.0","1","0","87047","","null","","","null","","","","","","","","","","","","","","","","",""
"","time_out","","html-keyboard-response","77","332277","0.0-1.0-80.0-0.0","0","0","87047","","null","","","null","8","","","","","","","","","","","","","","","",""
"","ITI","","html-keyboard-response","78","333283","0.0-1.0-81.0","0","0","87047","","null","","","null","8","","","","","","","","","","","","","","","NaN",""
"","S1","","html-keyboard-response","79","333540","0.0-1.0-83.0","0","0","87047","","null","","","null","9","","","","","","","","","","","","","","","",""
"","ISI","","html-keyboard-response","80","334548","0.0-1.0-84.0","0","0","87047","","451","","","75","9","k","","","","","","","","","","","","","","",""
"","S2","","html-keyboard-response","81","334803","0.0-1.0-85.0","0","0","87047","","null","","","null","9","","NaN","","","","","","","","","","","","","",""
"","response","","html-keyboard-response","82","335289","0.0-1.0-86.0-0.0","0","0","87047","","482","","","68","9","","","1","9","training","adjacent","FG","6","7","Q.jpg","N.jpg","0","1","0","",""
"","feedback","","html-keyboard-response","83","336298","0.0-1.0-87.0-0.0","0","0","87047","","null","","","null","9","","","","","","","","","","","","","","","",""
"","time_out","","html-keyboard-response","84","338373","0.0-1.0-89.0-0.0","0","0","87047","","null","","","null","9","","","","","","","","","","","","","","","",""
"","ITI","","html-keyboard-response","85","339381","0.0-1.0-90.0","0","0","87047","","null","","","null","9","","","","","","","","","","","","","","","NaN",""
"","S1","","html-keyboard-response","86","339637","0.0-1.0-92.0","0","0","87047","","null","","","null","10","","","","","","","","","","","","","","","",""
"","ISI","","html-keyboard-response","87","340642","0.0-1.0-93.0","0","0","87047","","408","","","68","10","d","","","","","","","","","","","","","","",""
"","S2","","html-keyboard-response","88","340896","0.0-1.0-94.0","0","0","87047","","null","","","null","10","","NaN","","","","","","","","","","","","","",""
"","response","","html-keyboard-response","89","341288","0.0-1.0-95.0-0.0","0","0","87047","","388","","","75","10","","","1","10","training","adjacent","DE","4","5","M.jpg","L.jpg","1","1","1","",""
"","feedback","","html-keyboard-response","90","342295","0.0-1.0-96.0-0.0","0","0","87047","","null","","","null","10","","","","","","","","","","","","","","","",""
"","ITI","","html-keyboard-response","91","343299","0.0-1.0-99.0","0","0","87047","","null","","","null","10","","","","","","","","","","","","","","","NaN",""
"","S1","","html-keyboard-response","92","343556","0.0-1.0-101.0","0","0","87047","","null","","","null","11","","","","","","","","","","","","","","","",""
"","ISI","","html-keyboard-response","93","344560","0.0-1.0-102.0","0","0","87047","","328","","","68","11","d","","","","","","","","","","","","","","",""
"","S2","","html-keyboard-response","94","344815","0.0-1.0-103.0","0","0","87047","","null","","","null","11","","NaN","","","","","","","","","","","","","",""
"","response","","html-keyboard-response","95","345085","0.0-1.0-104.0-0.0","0","0","87047","","266","","","75","11","","","1","11","training","adjacent","GF","7","6","N.jpg","Q.jpg","1","0","0","",""
"","feedback","","html-keyboard-response","96","346095","0.0-1.0-105.0-0.0","0","0","87047","","null","","","null","11","","","","","","","","","","","","","","","",""
"","time_out","","html-keyboard-response","97","348103","0.0-1.0-107.0-0.0","0","0","87047","","null","","","null","11","","","","","","","","","","","","","","","",""
"","ITI","","html-keyboard-response","98","349108","0.0-1.0-108.0","0","0","87047","","null","","","null","11","","","","","","","","","","","","","","","NaN",""
"","S1","","html-keyboard-response","99","349364","0.0-1.0-110.0","0","0","87047","","null","","","null","12","","","","","","","","","","","","","","","",""
"","ISI","","html-keyboard-response","100","350371","0.0-1.0-111.0","0","0","87047","","657","","","75","12","k","","","","","","","","","","","","","","",""
"","S2","","html-keyboard-response","101","350628","0.0-1.0-112.0","0","0","87047","","null","","","null","12","","NaN","","","","","","","","","","","","","",""
"","response","","html-keyboard-response","102","351811","0.0-1.0-113.0-0.0","0","0","87047","","1178","","","68","12","","","1","12","training","adjacent","BC","2","3","P.jpg","R.jpg","0","1","0","",""
"","feedback","","html-keyboard-response","103","352817","0.0-1.0-114.0-0.0","0","0","87047","","null","","","null","12","","","","","","","","","","","","","","","",""
"","time_out","","html-keyboard-response","104","354821","0.0-1.0-116.0-0.0","0","0","87047","","null","","","null","12","","","","","","","","","","","","","","","",""
"","ITI","","html-keyboard-response","105","355825","0.0-1.0-117.0","0","0","87047","","null","","","null","12","","","","","","","","","","","","","","","NaN",""
"","S1","","html-keyboard-response","106","356080","0.0-1.0-119.0","0","0","87047","","null","","","null","13","","","","","","","","","","","","","","","",""
"","ISI","","html-keyboard-response","107","357091","0.0-1.0-120.0","0","0","87047","","604","","","75","13","k","","","","","","","","","","","","","","",""
"","S2","","html-keyboard-response","108","357353","0.0-1.0-121.0","0","0","87047","","null","","","null","13","","NaN","","","","","","","","","","","","","",""
"","response","","html-keyboard-response","109","357772","0.0-1.0-122.0-0.0","0","0","87047","","412","","","75","13","","","1","13","training","adjacent","DC","4","3","M.jpg","R.jpg","1","0","0","",""
"","feedback","","html-keyboard-response","110","358780","0.0-1.0-123.0-0.0","0","0","87047","","null","","","null","13","","","","","","","","","","","","","","","",""
"","time_out","","html-keyboard-response","111","360790","0.0-1.0-125.0-0.0","0","0","87047","","null","","","null","13","","","","","","","","","","","","","","","",""
"","ITI","","html-keyboard-response","112","361796","0.0-1.0-126.0","0","0","87047","","null","","","null","13","","","","","","","","","","","","","","","NaN",""
"","S1","","html-keyboard-response","113","362053","0.0-1.0-128.0","0","0","87047","","null","","","null","14","","","","","","","","","","","","","","","",""
"","ISI","","html-keyboard-response","114","363059","0.0-1.0-129.0","0","0","87047","","null","","","null","14","NaN","","","","","","","","","","","","","","",""
"","S2","","html-keyboard-response","115","363315","0.0-1.0-130.0","0","0","87047","","null","","","null","14","","NaN","","","","","","","","","","","","","",""
"","response","","html-keyboard-response","116","365072","0.0-1.0-131.0-0.0","0","0","87047","","null","","","null","14","","","1","14","training","adjacent","CB","3","2","R.jpg","P.jpg","NaN","0","0","",""
"","too_slow_prompt","","html-keyboard-response","117","366079","0.0-1.0-133.0-0.0","1","0","87047","","null","","","null","","","","","","","","","","","","","","","","",""
"","time_out","","html-keyboard-response","118","368088","0.0-1.0-134.0-0.0","0","0","87047","","null","","","null","14","","","","","","","","","","","","","","","",""
"","ITI","","html-keyboard-response","119","369095","0.0-1.0-135.0","0","0","87047","","null","","","null","14","","","","","","","","","","","","","","","NaN",""
"","S1","","html-keyboard-response","120","369351","0.0-1.0-137.0","0","0","87047","","null","","","null","15","","","","","","","","","","","","","","","",""
"","ISI","","html-keyboard-response","121","370376","0.0-1.0-138.0","0","0","87047","","null","","","null","15","NaN","","","","","","","","","","","","","","",""
"","S2","","html-keyboard-response","122","370426","0.0-1.0-139.0","0","0","87047","","46","","","68","15","","d","1","15","training","adjacent","BA","2","1","P.jpg","O.jpg","0","0","1","",""
"","feedback","","html-keyboard-response","123","371431","0.0-1.0-141.0-0.0","0","0","87047","","null","","","null","15","","","","","","","","","","","","","","","",""
"","ITI","","html-keyboard-response","124","372436","0.0-1.0-144.0","0","0","87047","","null","","","null","15","","","","","","","","","","","","","","","NaN",""
"","S1","","html-keyboard-response","125","372691","0.0-1.0-146.0","0","0","87047","","null","","","null","16","","","","","","","","","","","","","","","",""
"","ISI","","html-keyboard-response","126","373699","0.0-1.0-147.0","0","0","87047","","null","","","null","16","NaN","","","","","","","","","","","","","","",""
"","S2","","html-keyboard-response","127","373887","0.0-1.0-148.0","0","0","87047","","180","","","68","16","","d","1","16","training","adjacent","EF","5","6","L.jpg","Q.jpg","0","1","0","",""
"","feedback","","html-keyboard-response","128","374892","0.0-1.0-150.0-0.0","0","0","87047","","null","","","null","16","","","","","","","","","","","","","","","",""
"","time_out","","html-keyboard-response","129","376900","0.0-1.0-152.0-0.0","0","0","87047","","null","","","null","16","","","","","","","","","","","","","","","",""
"","ITI","","html-keyboard-response","130","377906","0.0-1.0-153.0","0","0","87047","","null","","","null","16","","","","","","","","","","","","","","","NaN",""
"","S1","","html-keyboard-response","131","378162","0.0-1.0-155.0","0","0","87047","","null","","","null","17","","","","","","","","","","","","","","","",""
"","ISI","","html-keyboard-response","132","379168","0.0-1.0-156.0","0","0","87047","","null","","","null","17","NaN","","","","","","","","","","","","","","",""
"","S2","","html-keyboard-response","133","379426","0.0-1.0-157.0","0","0","87047","","null","","","null","17","","NaN","","","","","","","","","","","","","",""
"","response","","html-keyboard-response","134","380156","0.0-1.0-158.0-0.0","0","0","87047","","721","","","75","17","","","1","17","training","adjacent","DC","4","3","M.jpg","R.jpg","1","0","0","",""
"","feedback","","html-keyboard-response","135","381163","0.0-1.0-159.0-0.0","0","0","87047","","null","","","null","17","","","","","","","","","","","","","","","",""
"","time_out","","html-keyboard-response","136","383209","0.0-1.0-161.0-0.0","0","0","87047","","null","","","null","17","","","","","","","","","","","","","","","",""
"","ITI","","html-keyboard-response","137","384214","0.0-1.0-162.0","0","0","87047","","null","","","null","17","","","","","","","","","","","","","","","NaN",""
"","S1","","html-keyboard-response","138","384467","0.0-1.0-164.0","0","0","87047","","null","","","null","18","","","","","","","","","","","","","","","",""
"","ISI","","html-keyboard-response","139","385472","0.0-1.0-165.0","0","0","87047","","945","","","75","18","k","","","","","","","","","","","","","","",""
"","S2","","html-keyboard-response","140","385730","0.0-1.0-166.0","0","0","87047","","null","","","null","18","","NaN","","","","","","","","","","","","","",""
"","response","","html-keyboard-response","141","386298","0.0-1.0-167.0-0.0","0","0","87047","","561","","","68","18","","","1","18","training","adjacent","CD","3","4","R.jpg","M.jpg","0","1","0","",""
"","feedback","","html-keyboard-response","142","387304","0.0-1.0-168.0-0.0","0","0","87047","","null","","","null","18","","","","","","","","","","","","","","","",""
"","time_out","","html-keyboard-response","143","389311","0.0-1.0-170.0-0.0","0","0","87047","","null","","","null","18","","","","","","","","","","","","","","","",""
"","ITI","","html-keyboard-response","144","390317","0.0-1.0-171.0","0","0","87047","","null","","","null","18","","","","","","","","","","","","","","","NaN",""
"","S1","","html-keyboard-response","145","390631","0.0-1.0-173.0","0","0","87047","","null","","","null","19","","","","","","","","","","","","","","","",""
"","ISI","","html-keyboard-response","146","391637","0.0-1.0-174.0","0","0","87047","","null","","","null","19","NaN","","","","","","","","","","","","","","",""
"","S2","","html-keyboard-response","147","391896","0.0-1.0-175.0","0","0","87047","","null","","","null","19","","NaN","","","","","","","","","","","","","",""
"","response","","html-keyboard-response","148","392711","0.0-1.0-176.0-0.0","0","0","87047","","808","","","75","19","","","1","19","training","adjacent","AB","1","2","O.jpg","P.jpg","1","1","1","",""
"","feedback","","html-keyboard-response","149","393720","0.0-1.0-177.0-0.0","0","0","87047","","null","","","null","19","","","","","","","","","","","","","","","",""
"","ITI","","html-keyboard-response","150","394727","0.0-1.0-180.0","0","0","87047","","null","","","null","19","","","","","","","","","","","","","","","NaN",""
"","S1","","html-keyboard-response","151","394981","0.0-1.0-182.0","0","0","87047","","null","","","null","20","","","","","","","","","","","","","","","",""
"","ISI","","html-keyboard-response","152","395991","0.0-1.0-183.0","0","0","87047","","null","","","null","20","NaN","","","","","","","","","","","","","","",""
"","S2","","html-keyboard-response","153","396247","0.0-1.0-184.0","0","0","87047","","null","","","null","20","","NaN","","","","","","","","","","","","","",""
"","response","","html-keyboard-response","154","396949","0.0-1.0-185.0-0.0","0","0","87047","","691","","","75","20","","","1","20","training","adjacent","FG","6","7","Q.jpg","N.jpg","1","1","1","",""
"","feedback","","html-keyboard-response","155","397961","0.0-1.0-186.0-0.0","0","0","87047","","null","","","null","20","","","","","","","","","","","","","","","",""
"","ITI","","html-keyboard-response","156","398968","0.0-1.0-189.0","0","0","87047","","null","","","null","20","","","","","","","","","","","","","","","NaN",""
"","S1","","html-keyboard-response","157","399233","0.0-1.0-191.0","0","0","87047","","null","","","null","21","","","","","","","","","","","","","","","",""
"","ISI","","html-keyboard-response","158","400241","0.0-1.0-192.0","0","0","87047","","null","","","null","21","NaN","","","","","","","","","","","","","","",""
"","S2","","html-keyboard-response","159","400497","0.0-1.0-193.0","0","0","87047","","null","","","null","21","","NaN","","","","","","","","","","","","","",""
"","response","","html-keyboard-response","160","400849","0.0-1.0-194.0-0.0","0","0","87047","","348","","","75","21","","","1","21","training","adjacent","AB","1","2","O.jpg","P.jpg","1","1","1","",""
"","feedback","","html-keyboard-response","161","401873","0.0-1.0-195.0-0.0","0","0","87047","","null","","","null","21","","","","","","","","","","","","","","","",""
"","ITI","","html-keyboard-response","162","402877","0.0-1.0-198.0","0","0","87047","","null","","","null","21","","","","","","","","","","","","","","","NaN",""
"","S1","","html-keyboard-response","163","403131","0.0-1.0-200.0","0","0","87047","","null","","","null","22","","","","","","","","","","","","","","","",""
"","ISI","","html-keyboard-response","164","404135","0.0-1.0-201.0","0","0","87047","","null","","","null","22","NaN","","","","","","","","","","","","","","",""
"","S2","","html-keyboard-response","165","404392","0.0-1.0-202.0","0","0","87047","","null","","","null","22","","NaN","","","","","","","","","","","","","",""
"","response","","html-keyboard-response","166","404984","0.0-1.0-203.0-0.0","0","0","87047","","586","","","75","22","","","1","22","training","adjacent","DC","4","3","M.jpg","R.jpg","1","0","0","",""
"","feedback","","html-keyboard-response","167","405990","0.0-1.0-204.0-0.0","0","0","87047","","null","","","null","22","","","","","","","","","","","","","","","",""
"","time_out","","html-keyboard-response","168","408004","0.0-1.0-206.0-0.0","0","0","87047","","null","","","null","22","","","","","","","","","","","","","","","",""
"","ITI","","html-keyboard-response","169","409009","0.0-1.0-207.0","0","0","87047","","null","","","null","22","","","","","","","","","","","","","","","NaN",""
"","S1","","html-keyboard-response","170","409265","0.0-1.0-209.0","0","0","87047","","null","","","null","23","","","","","","","","","","","","","","","",""
"","ISI","","html-keyboard-response","171","410271","0.0-1.0-210.0","0","0","87047","","null","","","null","23","NaN","","","","","","","","","","","","","","",""
"","S2","","html-keyboard-response","172","410526","0.0-1.0-211.0","0","0","87047","","null","","","null","23","","NaN","","","","","","","","","","","","","",""
"","response","","html-keyboard-response","173","411473","0.0-1.0-212.0-0.0","0","0","87047","","942","","","75","23","","","1","23","training","adjacent","CB","3","2","R.jpg","P.jpg","1","0","0","",""
"","feedback","","html-keyboard-response","174","412481","0.0-1.0-213.0-0.0","0","0","87047","","null","","","null","23","","","","","","","","","","","","","","","",""
"","time_out","","html-keyboard-response","175","414487","0.0-1.0-215.0-0.0","0","0","87047","","null","","","null","23","","","","","","","","","","","","","","","",""
"","ITI","","html-keyboard-response","176","415494","0.0-1.0-216.0","0","0","87047","","null","","","null","23","","","","","","","","","","","","","","","NaN",""
"","S1","","html-keyboard-response","177","415748","0.0-1.0-218.0","0","0","87047","","null","","","null","24","","","","","","","","","","","","","","","",""
"","ISI","","html-keyboard-response","178","416754","0.0-1.0-219.0","0","0","87047","","null","","","null","24","NaN","","","","","","","","","","","","","","",""
"","S2","","html-keyboard-response","179","417015","0.0-1.0-220.0","0","0","87047","","null","","","null","24","","NaN","","","","","","","","","","","","","",""
"","response","","html-keyboard-response","180","418127","0.0-1.0-221.0-0.0","0","0","87047","","1106","","","75","24","","","1","24","training","adjacent","FE","6","5","Q.jpg","L.jpg","1","0","0","",""
"","feedback","","html-keyboard-response","181","419136","0.0-1.0-222.0-0.0","0","0","87047","","null","","","null","24","","","","","","","","","","","","","","","",""
"","time_out","","html-keyboard-response","182","421239","0.0-1.0-224.0-0.0","0","0","87047","","null","","","null","24","","","","","","","","","","","","","","","",""
"","ITI","","html-keyboard-response","183","422245","0.0-1.0-225.0","0","0","87047","","null","","","null","24","","","","","","","","","","","","","","","NaN",""
"","S1","","html-keyboard-response","184","422500","0.0-1.0-227.0","0","0","87047","","null","","","null","25","","","","","","","","","","","","","","","",""
"","ISI","","html-keyboard-response","185","423505","0.0-1.0-228.0","0","0","87047","","null","","","null","25","NaN","","","","","","","","","","","","","","",""
"","S2","","html-keyboard-response","186","423762","0.0-1.0-229.0","0","0","87047","","null","","","null","25","","NaN","","","","","","","","","","","","","",""
"","response","","html-keyboard-response","187","424416","0.0-1.0-230.0-0.0","0","0","87047","","651","","","75","25","","","1","25","training","adjacent","ED","5","4","L.jpg","M.jpg","1","0","0","",""
"","feedback","","html-keyboard-response","188","425422","0.0-1.0-231.0-0.0","0","0","87047","","null","","","null","25","","","","","","","","","","","","","","","",""
"","time_out","","html-keyboard-response","189","427429","0.0-1.0-233.0-0.0","0","0","87047","","null","","","null","25","","","","","","","","","","","","","","","",""
"","ITI","","html-keyboard-response","190","428433","0.0-1.0-234.0","0","0","87047","","null","","","null","25","","","","","","","","","","","","","","","NaN",""
"","S1","","html-keyboard-response","191","428688","0.0-1.0-236.0","0","0","87047","","null","","","null","26","","","","","","","","","","","","","","","",""
"","ISI","","html-keyboard-response","192","429698","0.0-1.0-237.0","0","0","87047","","null","","","null","26","NaN","","","","","","","","","","","","","","",""
"","S2","","html-keyboard-response","193","429955","0.0-1.0-238.0","0","0","87047","","null","","","null","26","","NaN","","","","","","","","","","","","","",""
"","response","","html-keyboard-response","194","430611","0.0-1.0-239.0-0.0","0","0","87047","","652","","","75","26","","","1","26","training","adjacent","FE","6","5","Q.jpg","L.jpg","1","0","0","",""
"","feedback","","html-keyboard-response","195","431618","0.0-1.0-240.0-0.0","0","0","87047","","null","","","null","26","","","","","","","","","","","","","","","",""
"","time_out","","html-keyboard-response","196","433628","0.0-1.0-242.0-0.0","0","0","87047","","null","","","null","26","","","","","","","","","","","","","","","",""
"","ITI","","html-keyboard-response","197","434634","0.0-1.0-243.0","0","0","87047","","null","","","null","26","","","","","","","","","","","","","","","NaN",""
"","S1","","html-keyboard-response","198","434887","0.0-1.0-245.0","0","0","87047","","null","","","null","27","","","","","","","","","","","","","","","",""
"","ISI","","html-keyboard-response","199","435891","0.0-1.0-246.0","0","0","87047","","null","","","null","27","NaN","","","","","","","","","","","","","","",""
"","S2","","html-keyboard-response","200","436144","0.0-1.0-247.0","0","0","87047","","null","","","null","27","","NaN","","","","","","","","","","","","","",""
"","response","","html-keyboard-response","201","437024","0.0-1.0-248.0-0.0","0","0","87047","","876","","","68","27","","","1","27","training","adjacent","FG","6","7","Q.jpg","N.jpg","0","1","0","",""
"","feedback","","html-keyboard-response","202","438028","0.0-1.0-249.0-0.0","0","0","87047","","null","","","null","27","","","","","","","","","","","","","","","",""
"","time_out","","html-keyboard-response","203","440035","0.0-1.0-251.0-0.0","0","0","87047","","null","","","null","27","","","","","","","","","","","","","","","",""
"","ITI","","html-keyboard-response","204","441041","0.0-1.0-252.0","0","0","87047","","null","","","null","27","","","","","","","","","","","","","","","NaN",""
"","S1","","html-keyboard-response","205","441298","0.0-1.0-254.0","0","0","87047","","null","","","null","28","","","","","","","","","","","","","","","",""
"","ISI","","html-keyboard-response","206","442309","0.0-1.0-255.0","0","0","87047","","null","","","null","28","NaN","","","","","","","","","","","","","","",""
"","S2","","html-keyboard-response","207","442566","0.0-1.0-256.0","0","0","87047","","null","","","null","28","","NaN","","","","","","","","","","","","","",""
"","response","","html-keyboard-response","208","443443","0.0-1.0-257.0-0.0","0","0","87047","","869","","","75","28","","","1","28","training","adjacent","FE","6","5","Q.jpg","L.jpg","1","0","0","",""
"","feedback","","html-keyboard-response","209","444452","0.0-1.0-258.0-0.0","0","0","87047","","null","","","null","28","","","","","","","","","","","","","","","",""
"","time_out","","html-keyboard-response","210","446458","0.0-1.0-260.0-0.0","0","0","87047","","null","","","null","28","","","","","","","","","","","","","","","",""
"","ITI","","html-keyboard-response","211","447464","0.0-1.0-261.0","0","0","87047","","null","","","null","28","","","","","","","","","","","","","","","NaN",""
"","S1","","html-keyboard-response","212","447719","0.0-1.0-263.0","0","0","87047","","null","","","null","29","","","","","","","","","","","","","","","",""
"","ISI","","html-keyboard-response","213","448724","0.0-1.0-264.0","0","0","87047","","null","","","null","29","NaN","","","","","","","","","","","","","","",""
"","S2","","html-keyboard-response","214","448728","0.0-1.0-265.0","0","0","87047","","0","","","75","29","","k","1","29","training","adjacent","AB","1","2","O.jpg","P.jpg","1","1","1","",""
"","feedback","","html-keyboard-response","215","449738","0.0-1.0-267.0-0.0","0","0","87047","","null","","","null","29","","","","","","","","","","","","","","","",""
"","ITI","","html-keyboard-response","216","450744","0.0-1.0-270.0","0","0","87047","","null","","","null","29","","","","","","","","","","","","","","","NaN",""
"","S1","","html-keyboard-response","217","451001","0.0-1.0-272.0","0","0","87047","","null","","","null","30","","","","","","","","","","","","","","","",""
"","ISI","","html-keyboard-response","218","452009","0.0-1.0-273.0","0","0","87047","","690","","","75","30","k","","","","","","","","","","","","","","",""
"","S2","","html-keyboard-response","219","452267","0.0-1.0-274.0","0","0","87047","","null","","","null","30","","NaN","","","","","","","","","","","","","",""
"","response","","html-keyboard-response","220","453331","0.0-1.0-275.0-0.0","0","0","87047","","1051","","","75","30","","","1","30","training","adjacent","CD","3","4","R.jpg","M.jpg","1","1","1","",""
"","feedback","","html-keyboard-response","221","454349","0.0-1.0-276.0-0.0","0","0","87047","","null","","","null","30","","","","","","","","","","","","","","","",""
"","ITI","","html-keyboard-response","222","455354","0.0-1.0-279.0","0","0","87047","","null","","","null","30","","","","","","","","","","","","","","","NaN",""
"","S1","","html-keyboard-response","223","455610","0.0-1.0-281.0","0","0","87047","","null","","","null","31","","","","","","","","","","","","","","","",""
"","ISI","","html-keyboard-response","224","456617","0.0-1.0-282.0","0","0","87047","","469","","","75","31","k","","","","","","","","","","","","","","",""
"","S2","","html-keyboard-response","225","456874","0.0-1.0-283.0","0","0","87047","","null","","","null","31","","NaN","","","","","","","","","","","","","",""
"","response","","html-keyboard-response","226","457348","0.0-1.0-284.0-0.0","0","0","87047","","469","","","75","31","","","1","31","training","adjacent","ED","5","4","L.jpg","M.jpg","1","0","0","",""
"","feedback","","html-keyboard-response","227","458355","0.0-1.0-285.0-0.0","0","0","87047","","null","","","null","31","","","","","","","","","","","","","","","",""
"","time_out","","html-keyboard-response","228","460360","0.0-1.0-287.0-0.0","0","0","87047","","null","","","null","31","","","","","","","","","","","","","","","",""
"","ITI","","html-keyboard-response","229","461368","0.0-1.0-288.0","0","0","87047","","null","","","null","31","","","","","","","","","","","","","","","NaN",""
"","S1","","html-keyboard-response","230","461625","0.0-1.0-290.0","0","0","87047","","null","","","null","32","","","","","","","","","","","","","","","",""
"","ISI","","html-keyboard-response","231","462630","0.0-1.0-291.0","0","0","87047","","761","","","75","32","k","","","","","","","","","","","","","","",""
"","S2","","html-keyboard-response","232","462886","0.0-1.0-292.0","0","0","87047","","null","","","null","32","","NaN","","","","","","","","","","","","","",""
"","response","","html-keyboard-response","233","463621","0.0-1.0-293.0-0.0","0","0","87047","","716","","","75","32","","","1","32","training","adjacent","DC","4","3","M.jpg","R.jpg","1","0","0","",""
"","feedback","","html-keyboard-response","234","464628","0.0-1.0-294.0-0.0","0","0","87047","","null","","","null","32","","","","","","","","","","","","","","","",""
"","time_out","","html-keyboard-response","235","466637","0.0-1.0-296.0-0.0","0","0","87047","","null","","","null","32","","","","","","","","","","","","","","","",""
"","ITI","","html-keyboard-response","236","467640","0.0-1.0-297.0","0","0","87047","","null","","","null","32","","","","","","","","","","","","","","","NaN",""
"","S1","","html-keyboard-response","237","467894","0.0-1.0-299.0","0","0","87047","","null","","","null","33","","","","","","","","","","","","","","","",""
"","ISI","","html-keyboard-response","238","468899","0.0-1.0-300.0","0","0","87047","","null","","","null","33","NaN","","","","","","","","","","","","","","",""
"","S2","","html-keyboard-response","239","469157","0.0-1.0-301.0","0","0","87047","","null","","","null","33","","NaN","","","","","","","","","","","","","",""
"","response","","html-keyboard-response","240","470062","0.0-1.0-302.0-0.0","0","0","87047","","901","","","75","33","","","1","33","training","adjacent","BC","2","3","P.jpg","R.jpg","1","1","1","",""
"","feedback","","html-keyboard-response","241","471068","0.0-1.0-303.0-0.0","0","0","87047","","null","","","null","33","","","","","","","","","","","","","","","",""
"","ITI","","html-keyboard-response","242","472074","0.0-1.0-306.0","0","0","87047","","null","","","null","33","","","","","","","","","","","","","","","NaN",""
"","S1","","html-keyboard-response","243","472327","0.0-1.0-308.0","0","0","87047","","null","","","null","34","","","","","","","","","","","","","","","",""
"","ISI","","html-keyboard-response","244","473332","0.0-1.0-309.0","0","0","87047","","null","","","null","34","NaN","","","","","","","","","","","","","","",""
"","S2","","html-keyboard-response","245","473588","0.0-1.0-310.0","0","0","87047","","null","","","null","34","","NaN","","","","","","","","","","","","","",""
"","response","","html-keyboard-response","246","475303","0.0-1.0-311.0-0.0","0","0","87047","","1707","","","75","34","","","1","34","training","adjacent","BA","2","1","P.jpg","O.jpg","1","0","0","",""
"","feedback","","html-keyboard-response","247","476309","0.0-1.0-312.0-0.0","0","0","87047","","null","","","null","34","","","","","","","","","","","","","","","",""
"","time_out","","html-keyboard-response","248","478315","0.0-1.0-314.0-0.0","0","0","87047","","null","","","null","34","","","","","","","","","","","","","","","",""
"","ITI","","html-keyboard-response","249","479321","0.0-1.0-315.0","0","0","87047","","null","","","null","34","","","","","","","","","","","","","","","NaN",""
"","S1","","html-keyboard-response","250","479578","0.0-1.0-317.0","0","0","87047","","null","","","null","35","","","","","","","","","","","","","","","",""
"","ISI","","html-keyboard-response","251","480582","0.0-1.0-318.0","0","0","87047","","null","","","null","35","NaN","","","","","","","","","","","","","","",""
"","S2","","html-keyboard-response","252","480837","0.0-1.0-319.0","0","0","87047","","null","","","null","35","","NaN","","","","","","","","","","","","","",""
"","response","","html-keyboard-response","253","481555","0.0-1.0-320.0-0.0","0","0","87047","","712","","","75","35","","","1","35","training","adjacent","BC","2","3","P.jpg","R.jpg","1","1","1","",""
"","feedback","","html-keyboard-response","254","482563","0.0-1.0-321.0-0.0","0","0","87047","","null","","","null","35","","","","","","","","","","","","","","","",""
"","ITI","","html-keyboard-response","255","483567","0.0-1.0-324.0","0","0","87047","","null","","","null","35","","","","","","","","","","","","","","","NaN",""
"","S1","","html-keyboard-response","256","483822","0.0-1.0-326.0","0","0","87047","","null","","","null","36","","","","","","","","","","","","","","","",""
"","ISI","","html-keyboard-response","257","484827","0.0-1.0-327.0","0","0","87047","","null","","","null","36","NaN","","","","","","","","","","","","","","",""
"","S2","","html-keyboard-response","258","485087","0.0-1.0-328.0","0","0","87047","","null","","","null","36","","NaN","","","","","","","","","","","","","",""
"","response","","html-keyboard-response","259","485589","0.0-1.0-329.0-0.0","0","0","87047","","495","","","75","36","","","1","36","training","adjacent","FE","6","5","Q.jpg","L.jpg","1","0","0","",""
"","feedback","","html-keyboard-response","260","486595","0.0-1.0-330.0-0.0","0","0","87047","","null","","","null","36","","","","","","","","","","","","","","","",""
"","time_out","","html-keyboard-response","261","488604","0.0-1.0-332.0-0.0","0","0","87047","","null","","","null","36","","","","","","","","","","","","","","","",""
"","ITI","","html-keyboard-response","262","489619","0.0-1.0-333.0","0","0","87047","","null","","","null","36","","","","","","","","","","","","","","","NaN",""
"","S1","","html-keyboard-response","263","489875","0.0-1.0-335.0","0","0","87047","","null","","","null","37","","","","","","","","","","","","","","","",""
"","ISI","","html-keyboard-response","264","490884","0.0-1.0-336.0","0","0","87047","","null","","","null","37","NaN","","","","","","","","","","","","","","",""
"","S2","","html-keyboard-response","265","491146","0.0-1.0-337.0","0","0","87047","","null","","","null","37","","NaN","","","","","","","","","","","","","",""
"","response","","html-keyboard-response","266","492794","0.0-1.0-338.0-0.0","0","0","87047","","1640","","","75","37","","","1","37","training","adjacent","BA","2","1","P.jpg","O.jpg","1","0","0","",""
"","feedback","","html-keyboard-response","267","493808","0.0-1.0-339.0-0.0","0","0","87047","","null","","","null","37","","","","","","","","","","","","","","","",""
"","time_out","","html-keyboard-response","268","495820","0.0-1.0-341.0-0.0","0","0","87047","","null","","","null","37","","","","","","","","","","","","","","","",""
"","ITI","","html-keyboard-response","269","496827","0.0-1.0-342.0","0","0","87047","","null","","","null","37","","","","","","","","","","","","","","","NaN",""
"","S1","","html-keyboard-response","270","497083","0.0-1.0-344.0","0","0","87047","","null","","","null","38","","","","","","","","","","","","","","","",""
"","ISI","","html-keyboard-response","271","498090","0.0-1.0-345.0","0","0","87047","","null","","","null","38","NaN","","","","","","","","","","","","","","",""
"","S2","","html-keyboard-response","272","498347","0.0-1.0-346.0","0","0","87047","","null","","","null","38","","NaN","","","","","","","","","","","","","",""
"","response","","html-keyboard-response","273","498969","0.0-1.0-347.0-0.0","0","0","87047","","618","","","75","38","","","1","38","training","adjacent","ED","5","4","L.jpg","M.jpg","1","0","0","",""
"","feedback","","html-keyboard-response","274","499976","0.0-1.0-348.0-0.0","0","0","87047","","null","","","null","38","","","","","","","","","","","","","","","",""
"","time_out","","html-keyboard-response","275","501982","0.0-1.0-350.0-0.0","0","0","87047","","null","","","null","38","","","","","","","","","","","","","","","",""
"","ITI","","html-keyboard-response","276","502988","0.0-1.0-351.0","0","0","87047","","null","","","null","38","","","","","","","","","","","","","","","NaN",""
"","S1","","html-keyboard-response","277","503242","0.0-1.0-353.0","0","0","87047","","null","","","null","39","","","","","","","","","","","","","","","",""
"","ISI","","html-keyboard-response","278","504249","0.0-1.0-354.0","0","0","87047","","null","","","null","39","NaN","","","","","","","","","","","","","","",""
"","S2","","html-keyboard-response","279","504507","0.0-1.0-355.0","0","0","87047","","null","","","null","39","","NaN","","","","","","","","","","","","","",""
"","response","","html-keyboard-response","280","504965","0.0-1.0-356.0-0.0","0","0","87047","","452","","","75","39","","","1","39","training","adjacent","CB","3","2","R.jpg","P.jpg","1","0","0","",""
"","feedback","","html-keyboard-response","281","505971","0.0-1.0-357.0-0.0","0","0","87047","","null","","","null","39","","","","","","","","","","","","","","","",""
"","time_out","","html-keyboard-response","282","507979","0.0-1.0-359.0-0.0","0","0","87047","","null","","","null","39","","","","","","","","","","","","","","","",""
"","ITI","","html-keyboard-response","283","508986","0.0-1.0-360.0","0","0","87047","","null","","","null","39","","","","","","","","","","","","","","","NaN",""
"","S1","","html-keyboard-response","284","509243","0.0-1.0-362.0","0","0","87047","","null","","","null","40","","","","","","","","","","","","","","","",""
"","ISI","","html-keyboard-response","285","510250","0.0-1.0-363.0","0","0","87047","","75","","","75","40","k","","","","","","","","","","","","","","",""
"","S2","","html-keyboard-response","286","510506","0.0-1.0-364.0","0","0","87047","","null","","","null","40","","NaN","","","","","","","","","","","","","",""
"","response","","html-keyboard-response","287","511907","0.0-1.0-365.0-0.0","0","0","87047","","1396","","","68","40","","","1","40","training","adjacent","DE","4","5","M.jpg","L.jpg","0","1","0","",""
"","feedback","","html-keyboard-response","288","512913","0.0-1.0-366.0-0.0","0","0","87047","","null","","","null","40","","","","","","","","","","","","","","","",""
"","time_out","","html-keyboard-response","289","514919","0.0-1.0-368.0-0.0","0","0","87047","","null","","","null","40","","","","","","","","","","","","","","","",""
"","ITI","","html-keyboard-response","290","515926","0.0-1.0-369.0","0","0","87047","","654","","","32","40","","","","","","","","","","","","","","","space",""
"","S1","","html-keyboard-response","291","516182","0.0-1.0-371.0","0","0","87047","","null","","","null","41","","","","","","","","","","","","","","","",""
"","ISI","","html-keyboard-response","292","517186","0.0-1.0-372.0","0","0","87047","","null","","","null","41","NaN","","","","","","","","","","","","","","",""
"","S2","","html-keyboard-response","293","517440","0.0-1.0-373.0","0","0","87047","","null","","","null","41","","NaN","","","","","","","","","","","","","",""
"","response","","html-keyboard-response","294","517998","0.0-1.0-374.0-0.0","0","0","87047","","553","","","75","41","","","1","41","training","adjacent","CD","3","4","R.jpg","M.jpg","1","1","1","",""
"","feedback","","html-keyboard-response","295","519008","0.0-1.0-375.0-0.0","0","0","87047","","null","","","null","41","","","","","","","","","","","","","","","",""
"","ITI","","html-keyboard-response","296","520017","0.0-1.0-378.0","0","0","87047","","null","","","null","41","","","","","","","","","","","","","","","NaN",""
"","S1","","html-keyboard-response","297","520273","0.0-1.0-380.0","0","0","87047","","null","","","null","42","","","","","","","","","","","","","","","",""
"","ISI","","html-keyboard-response","298","521279","0.0-1.0-381.0","0","0","87047","","null","","","null","42","NaN","","","","","","","","","","","","","","",""
"","S2","","html-keyboard-response","299","521537","0.0-1.0-382.0","0","0","87047","","null","","","null","42","","NaN","","","","","","","","","","","","","",""
"","response","","html-keyboard-response","300","522551","0.0-1.0-383.0-0.0","0","0","87047","","1010","","","68","42","","","1","42","training","adjacent","EF","5","6","L.jpg","Q.jpg","0","1","0","",""
"","feedback","","html-keyboard-response","301","523558","0.0-1.0-384.0-0.0","0","0","87047","","null","","","null","42","","","","","","","","","","","","","","","",""
"","time_out","","html-keyboard-response","302","525564","0.0-1.0-386.0-0.0","0","0","87047","","null","","","null","42","","","","","","","","","","","","","","","",""
"","ITI","","html-keyboard-response","303","526573","0.0-1.0-387.0","0","0","87047","","null","","","null","42","","","","","","","","","","","","","","","NaN",""
"","S1","","html-keyboard-response","304","526828","0.0-1.0-389.0","0","0","87047","","null","","","null","43","","","","","","","","","","","","","","","",""
"","ISI","","html-keyboard-response","305","527834","0.0-1.0-390.0","0","0","87047","","null","","","null","43","NaN","","","","","","","","","","","","","","",""
"","S2","","html-keyboard-response","306","528091","0.0-1.0-391.0","0","0","87047","","null","","","null","43","","NaN","","","","","","","","","","","","","",""
"","response","","html-keyboard-response","307","529219","0.0-1.0-392.0-0.0","0","0","87047","","1121","","","68","43","","","1","43","training","adjacent","GF","7","6","N.jpg","Q.jpg","0","0","1","",""
"","feedback","","html-keyboard-response","308","530231","0.0-1.0-393.0-0.0","0","0","87047","","null","","","null","43","","","","","","","","","","","","","","","",""
"","ITI","","html-keyboard-response","309","531237","0.0-1.0-396.0","0","0","87047","","null","","","null","43","","","","","","","","","","","","","","","NaN",""
"","S1","","html-keyboard-response","310","531493","0.0-1.0-398.0","0","0","87047","","null","","","null","44","","","","","","","","","","","","","","","",""
"","ISI","","html-keyboard-response","311","532498","0.0-1.0-399.0","0","0","87047","","null","","","null","44","NaN","","","","","","","","","","","","","","",""
"","S2","","html-keyboard-response","312","532753","0.0-1.0-400.0","0","0","87047","","null","","","null","44","","NaN","","","","","","","","","","","","","",""
"","response","","html-keyboard-response","313","533642","0.0-1.0-401.0-0.0","0","0","87047","","886","","","75","44","","","1","44","training","adjacent","BC","2","3","P.jpg","R.jpg","1","1","1","",""
"","feedback","","html-keyboard-response","314","534650","0.0-1.0-402.0-0.0","0","0","87047","","null","","","null","44","","","","","","","","","","","","","","","",""
"","ITI","","html-keyboard-response","315","535659","0.0-1.0-405.0","0","0","87047","","null","","","null","44","","","","","","","","","","","","","","","NaN",""
"","S1","","html-keyboard-response","316","535914","0.0-1.0-407.0","0","0","87047","","null","","","null","45","","","","","","","","","","","","","","","",""
"","ISI","","html-keyboard-response","317","536924","0.0-1.0-408.0","0","0","87047","","null","","","null","45","NaN","","","","","","","","","","","","","","",""
"","S2","","html-keyboard-response","318","537186","0.0-1.0-409.0","0","0","87047","","null","","","null","45","","NaN","","","","","","","","","","","","","",""
"","response","","html-keyboard-response","319","538345","0.0-1.0-410.0-0.0","0","0","87047","","1150","","","68","45","","","1","45","training","adjacent","CB","3","2","R.jpg","P.jpg","0","0","1","",""
"","feedback","","html-keyboard-response","320","539363","0.0-1.0-411.0-0.0","0","0","87047","","null","","","null","45","","","","","","","","","","","","","","","",""
"","ITI","","html-keyboard-response","321","540369","0.0-1.0-414.0","0","0","87047","","null","","","null","45","","","","","","","","","","","","","","","NaN",""
"","S1","","html-keyboard-response","322","540628","0.0-1.0-416.0","0","0","87047","","null","","","null","46","","","","","","","","","","","","","","","",""
"","ISI","","html-keyboard-response","323","541635","0.0-1.0-417.0","0","0","87047","","null","","","null","46","NaN","","","","","","","","","","","","","","",""
"","S2","","html-keyboard-response","324","541893","0.0-1.0-418.0","0","0","87047","","null","","","null","46","","NaN","","","","","","","","","","","","","",""
"","response","","html-keyboard-response","325","542589","0.0-1.0-419.0-0.0","0","0","87047","","691","","","75","46","","","1","46","training","adjacent","ED","5","4","L.jpg","M.jpg","1","0","0","",""
"","feedback","","html-keyboard-response","326","543595","0.0-1.0-420.0-0.0","0","0","87047","","null","","","null","46","","","","","","","","","","","","","","","",""
"","time_out","","html-keyboard-response","327","545601","0.0-1.0-422.0-0.0","0","0","87047","","null","","","null","46","","","","","","","","","","","","","","","",""
"","ITI","","html-keyboard-response","328","546607","0.0-1.0-423.0","0","0","87047","","null","","","null","46","","","","","","","","","","","","","","","NaN",""
"","S1","","html-keyboard-response","329","546862","0.0-1.0-425.0","0","0","87047","","null","","","null","47","","","","","","","","","","","","","","","",""
"","ISI","","html-keyboard-response","330","547868","0.0-1.0-426.0","0","0","87047","","null","","","null","47","NaN","","","","","","","","","","","","","","",""
"","S2","","html-keyboard-response","331","548126","0.0-1.0-427.0","0","0","87047","","null","","","null","47","","NaN","","","","","","","","","","","","","",""
"","response","","html-keyboard-response","332","548679","0.0-1.0-428.0-0.0","0","0","87047","","547","","","68","47","","","1","47","training","adjacent","DE","4","5","M.jpg","L.jpg","0","1","0","",""
"","feedback","","html-keyboard-response","333","549685","0.0-1.0-429.0-0.0","0","0","87047","","null","","","null","47","","","","","","","","","","","","","","","",""
"","time_out","","html-keyboard-response","334","551699","0.0-1.0-431.0-0.0","0","0","87047","","null","","","null","47","","","","","","","","","","","","","","","",""
"","ITI","","html-keyboard-response","335","552709","0.0-1.0-432.0","0","0","87047","","null","","","null","47","","","","","","","","","","","","","","","NaN",""
"","block_over","","html-keyboard-response","336","555410","0.0-1.0-433.0-0.0","0","0","87047","","2693","","","32","47","","","","","","","","","","","","","","","",""
"","S1","","html-keyboard-response","337","555665","0.0-1.0-434.0","0","0","87047","","null","","","null","48","","","","","","","","","","","","","","","",""
"","ISI","","html-keyboard-response","338","556671","0.0-1.0-435.0","0","0","87047","","null","","","null","48","NaN","","","","","","","","","","","","","","",""
"","S2","","html-keyboard-response","339","556927","0.0-1.0-436.0","0","0","87047","","null","","","null","48","","NaN","","","","","","","","","","","","","",""
"","response","","html-keyboard-response","340","557621","0.0-1.0-437.0-0.0","0","0","87047","","685","","","75","48","","","2","48","training","adjacent","EF","5","6","L.jpg","Q.jpg","1","1","1","",""
"","feedback","","html-keyboard-response","341","558630","0.0-1.0-438.0-0.0","0","0","87047","","null","","","null","48","","","","","","","","","","","","","","","",""
"","ITI","","html-keyboard-response","342","559638","0.0-1.0-441.0","0","0","87047","","null","","","null","48","","","","","","","","","","","","","","","NaN",""
"","S1","","html-keyboard-response","343","559897","0.0-1.0-443.0","0","0","87047","","null","","","null","49","","","","","","","","","","","","","","","",""
"","ISI","","html-keyboard-response","344","560901","0.0-1.0-444.0","0","0","87047","","null","","","null","49","NaN","","","","","","","","","","","","","","",""
"","S2","","html-keyboard-response","345","561160","0.0-1.0-445.0","0","0","87047","","null","","","null","49","","NaN","","","","","","","","","","","","","",""
"","response","","html-keyboard-response","346","561735","0.0-1.0-446.0-0.0","0","0","87047","","565","","","68","49","","","2","49","training","adjacent","DC","4","3","M.jpg","R.jpg","0","0","1","",""
"","feedback","","html-keyboard-response","347","562743","0.0-1.0-447.0-0.0","0","0","87047","","null","","","null","49","","","","","","","","","","","","","","","",""
"","ITI","","html-keyboard-response","348","563751","0.0-1.0-450.0","0","0","87047","","null","","","null","49","","","","","","","","","","","","","","","NaN",""
"","S1","","html-keyboard-response","349","564005","0.0-1.0-452.0","0","0","87047","","null","","","null","50","","","","","","","","","","","","","","","",""
"","ISI","","html-keyboard-response","350","565011","0.0-1.0-453.0","0","0","87047","","null","","","null","50","NaN","","","","","","","","","","","","","","",""
"","S2","","html-keyboard-response","351","565267","0.0-1.0-454.0","0","0","87047","","null","","","null","50","","NaN","","","","","","","","","","","","","",""
"","response","","html-keyboard-response","352","566756","0.0-1.0-455.0-0.0","0","0","87047","","1484","","","68","50","","","2","50","training","adjacent","CD","3","4","R.jpg","M.jpg","0","1","0","",""
"","feedback","","html-keyboard-response","353","567765","0.0-1.0-456.0-0.0","0","0","87047","","null","","","null","50","","","","","","","","","","","","","","","",""
"","time_out","","html-keyboard-response","354","569774","0.0-1.0-458.0-0.0","0","0","87047","","null","","","null","50","","","","","","","","","","","","","","","",""
"","ITI","","html-keyboard-response","355","570780","0.0-1.0-459.0","0","0","87047","","null","","","null","50","","","","","","","","","","","","","","","NaN",""
"","S1","","html-keyboard-response","356","571036","0.0-1.0-461.0","0","0","87047","","null","","","null","51","","","","","","","","","","","","","","","",""
"","ISI","","html-keyboard-response","357","572044","0.0-1.0-462.0","0","0","87047","","null","","","null","51","NaN","","","","","","","","","","","","","","",""
"","S2","","html-keyboard-response","358","572300","0.0-1.0-463.0","0","0","87047","","null","","","null","51","","NaN","","","","","","","","","","","","","",""
"","response","","html-keyboard-response","359","573538","0.0-1.0-464.0-0.0","0","0","87047","","1230","","","75","51","","","2","51","training","adjacent","ED","5","4","L.jpg","M.jpg","1","0","0","",""
"","feedback","","html-keyboard-response","360","574545","0.0-1.0-465.0-0.0","0","0","87047","","null","","","null","51","","","","","","","","","","","","","","","",""
"","time_out","","html-keyboard-response","361","576553","0.0-1.0-467.0-0.0","0","0","87047","","null","","","null","51","","","","","","","","","","","","","","","",""
"","ITI","","html-keyboard-response","362","577557","0.0-1.0-468.0","0","0","87047","","null","","","null","51","","","","","","","","","","","","","","","NaN",""
"","S1","","html-keyboard-response","363","577812","0.0-1.0-470.0","0","0","87047","","null","","","null","52","","","","","","","","","","","","","","","",""
"","ISI","","html-keyboard-response","364","578824","0.0-1.0-471.0","0","0","87047","","null","","","null","52","NaN","","","","","","","","","","","","","","",""
"","S2","","html-keyboard-response","365","579081","0.0-1.0-472.0","0","0","87047","","null","","","null","52","","NaN","","","","","","","","","","","","","",""
"","response","","html-keyboard-response","366","579645","0.0-1.0-473.0-0.0","0","0","87047","","557","","","75","52","","","2","52","training","adjacent","CD","3","4","R.jpg","M.jpg","1","1","1","",""
"","feedback","","html-keyboard-response","367","580649","0.0-1.0-474.0-0.0","0","0","87047","","null","","","null","52","","","","","","","","","","","","","","","",""
"","ITI","","html-keyboard-response","368","581655","0.0-1.0-477.0","0","0","87047","","null","","","null","52","","","","","","","","","","","","","","","NaN",""
"","S1","","html-keyboard-response","369","581912","0.0-1.0-479.0","0","0","87047","","null","","","null","53","","","","","","","","","","","","","","","",""
"","ISI","","html-keyboard-response","370","582919","0.0-1.0-480.0","0","0","87047","","null","","","null","53","NaN","","","","","","","","","","","","","","",""
"","S2","","html-keyboard-response","371","583178","0.0-1.0-481.0","0","0","87047","","null","","","null","53","","NaN","","","","","","","","","","","","","",""
"","response","","html-keyboard-response","372","584190","0.0-1.0-482.0-0.0","0","0","87047","","1004","","","75","53","","","2","53","training","adjacent","ED","5","4","L.jpg","M.jpg","1","0","0","",""
"","feedback","","html-keyboard-response","373","585198","0.0-1.0-483.0-0.0","0","0","87047","","null","","","null","53","","","","","","","","","","","","","","","",""
"","time_out","","html-keyboard-response","374","587203","0.0-1.0-485.0-0.0","0","0","87047","","null","","","null","53","","","","","","","","","","","","","","","",""
"","ITI","","html-keyboard-response","375","588209","0.0-1.0-486.0","0","0","87047","","null","","","null","53","","","","","","","","","","","","","","","NaN",""
"","S1","","html-keyboard-response","376","588470","0.0-1.0-488.0","0","0","87047","","null","","","null","54","","","","","","","","","","","","","","","",""
"","ISI","","html-keyboard-response","377","589475","0.0-1.0-489.0","0","0","87047","","null","","","null","54","NaN","","","","","","","","","","","","","","",""
"","S2","","html-keyboard-response","378","589728","0.0-1.0-490.0","0","0","87047","","null","","","null","54","","NaN","","","","","","","","","","","","","",""
"","response","","html-keyboard-response","379","590611","0.0-1.0-491.0-0.0","0","0","87047","","879","","","75","54","","","2","54","training","adjacent","BA","2","1","P.jpg","O.jpg","1","0","0","",""
"","feedback","","html-keyboard-response","380","591618","0.0-1.0-492.0-0.0","0","0","87047","","null","","","null","54","","","","","","","","","","","","","","","",""
"","time_out","","html-keyboard-response","381","593625","0.0-1.0-494.0-0.0","0","0","87047","","null","","","null","54","","","","","","","","","","","","","","","",""
"","ITI","","html-keyboard-response","382","594634","0.0-1.0-495.0","0","0","87047","","null","","","null","54","","","","","","","","","","","","","","","NaN",""
"","S1","","html-keyboard-response","383","594894","0.0-1.0-497.0","0","0","87047","","null","","","null","55","","","","","","","","","","","","","","","",""
"","ISI","","html-keyboard-response","384","595903","0.0-1.0-498.0","0","0","87047","","null","","","null","55","NaN","","","","","","","","","","","","","","",""
"","S2","","html-keyboard-response","385","596160","0.0-1.0-499.0","0","0","87047","","null","","","null","55","","NaN","","","","","","","","","","","","","",""
"","response","","html-keyboard-response","386","596799","0.0-1.0-500.0-0.0","0","0","87047","","635","","","75","55","","","2","55","training","adjacent","AB","1","2","O.jpg","P.jpg","1","1","1","",""
"","feedback","","html-keyboard-response","387","597808","0.0-1.0-501.0-0.0","0","0","87047","","null","","","null","55","","","","","","","","","","","","","","","",""
"","ITI","","html-keyboard-response","388","598814","0.0-1.0-504.0","0","0","87047","","null","","","null","55","","","","","","","","","","","","","","","NaN",""
"","S1","","html-keyboard-response","389","599074","0.0-1.0-506.0","0","0","87047","","null","","","null","56","","","","","","","","","","","","","","","",""
"","ISI","","html-keyboard-response","390","600080","0.0-1.0-507.0","0","0","87047","","null","","","null","56","NaN","","","","","","","","","","","","","","",""
"","S2","","html-keyboard-response","391","600338","0.0-1.0-508.0","0","0","87047","","null","","","null","56","","NaN","","","","","","","","","","","","","",""
"","response","","html-keyboard-response","392","601049","0.0-1.0-509.0-0.0","0","0","87047","","707","","","68","56","","","2","56","training","adjacent","DC","4","3","M.jpg","R.jpg","0","0","1","",""
"","feedback","","html-keyboard-response","393","602053","0.0-1.0-510.0-0.0","0","0","87047","","null","","","null","56","","","","","","","","","","","","","","","",""
"","ITI","","html-keyboard-response","394","603061","0.0-1.0-513.0","0","0","87047","","null","","","null","56","","","","","","","","","","","","","","","NaN",""
"","S1","","html-keyboard-response","395","603318","0.0-1.0-515.0","0","0","87047","","null","","","null","57","","","","","","","","","","","","","","","",""
"","ISI","","html-keyboard-response","396","604326","0.0-1.0-516.0","0","0","87047","","null","","","null","57","NaN","","","","","","","","","","","","","","",""
"","S2","","html-keyboard-response","397","604585","0.0-1.0-517.0","0","0","87047","","null","","","null","57","","NaN","","","","","","","","","","","","","",""
"","response","","html-keyboard-response","398","605357","0.0-1.0-518.0-0.0","0","0","87047","","767","","","75","57","","","2","57","training","adjacent","BC","2","3","P.jpg","R.jpg","1","1","1","",""
"","feedback","","html-keyboard-response","399","606364","0.0-1.0-519.0-0.0","0","0","87047","","null","","","null","57","","","","","","","","","","","","","","","",""
"","ITI","","html-keyboard-response","400","607371","0.0-1.0-522.0","0","0","87047","","null","","","null","57","","","","","","","","","","","","","","","NaN",""
"","S1","","html-keyboard-response","401","607629","0.0-1.0-524.0","0","0","87047","","null","","","null","58","","","","","","","","","","","","","","","",""
"","ISI","","html-keyboard-response","402","608638","0.0-1.0-525.0","0","0","87047","","null","","","null","58","NaN","","","","","","","","","","","","","","",""
"","S2","","html-keyboard-response","403","608896","0.0-1.0-526.0","0","0","87047","","null","","","null","58","","NaN","","","","","","","","","","","","","",""
"","response","","html-keyboard-response","404","609543","0.0-1.0-527.0-0.0","0","0","87047","","640","","","75","58","","","2","58","training","adjacent","BC","2","3","P.jpg","R.jpg","1","1","1","",""
"","feedback","","html-keyboard-response","405","610549","0.0-1.0-528.0-0.0","0","0","87047","","null","","","null","58","","","","","","","","","","","","","","","",""
"","ITI","","html-keyboard-response","406","611555","0.0-1.0-531.0","0","0","87047","","null","","","null","58","","","","","","","","","","","","","","","NaN",""
"","S1","","html-keyboard-response","407","611813","0.0-1.0-533.0","0","0","87047","","null","","","null","59","","","","","","","","","","","","","","","",""
"","ISI","","html-keyboard-response","408","612819","0.0-1.0-534.0","0","0","87047","","null","","","null","59","NaN","","","","","","","","","","","","","","",""
"","S2","","html-keyboard-response","409","613075","0.0-1.0-535.0","0","0","87047","","null","","","null","59","","NaN","","","","","","","","","","","","","",""
"","response","","html-keyboard-response","410","613721","0.0-1.0-536.0-0.0","0","0","87047","","640","","","68","59","","","2","59","training","adjacent","FE","6","5","Q.jpg","L.jpg","0","0","1","",""
"","feedback","","html-keyboard-response","411","614726","0.0-1.0-537.0-0.0","0","0","87047","","null","","","null","59","","","","","","","","","","","","","","","",""
"","ITI","","html-keyboard-response","412","615736","0.0-1.0-540.0","0","0","87047","","null","","","null","59","","","","","","","","","","","","","","","NaN",""
"","S1","","html-keyboard-response","413","615993","0.0-1.0-542.0","0","0","87047","","null","","","null","60","","","","","","","","","","","","","","","",""
"","ISI","","html-keyboard-response","414","616999","0.0-1.0-543.0","0","0","87047","","null","","","null","60","NaN","","","","","","","","","","","","","","",""
"","S2","","html-keyboard-response","415","617260","0.0-1.0-544.0","0","0","87047","","null","","","null","60","","NaN","","","","","","","","","","","","","",""
"","response","","html-keyboard-response","416","617762","0.0-1.0-545.0-0.0","0","0","87047","","490","","","68","60","","","2","60","training","adjacent","CD","3","4","R.jpg","M.jpg","0","1","0","",""
"","feedback","","html-keyboard-response","417","618771","0.0-1.0-546.0-0.0","0","0","87047","","null","","","null","60","","","","","","","","","","","","","","","",""
"","time_out","","html-keyboard-response","418","620779","0.0-1.0-548.0-0.0","0","0","87047","","null","","","null","60","","","","","","","","","","","","","","","",""
"","ITI","","html-keyboard-response","419","621787","0.0-1.0-549.0","0","0","87047","","null","","","null","60","","","","","","","","","","","","","","","NaN",""
"","S1","","html-keyboard-response","420","622045","0.0-1.0-551.0","0","0","87047","","null","","","null","61","","","","","","","","","","","","","","","",""
"","ISI","","html-keyboard-response","421","623048","0.0-1.0-552.0","0","0","87047","","null","","","null","61","NaN","","","","","","","","","","","","","","",""
"","S2","","html-keyboard-response","422","623304","0.0-1.0-553.0","0","0","87047","","null","","","null","61","","NaN","","","","","","","","","","","","","",""
"","response","","html-keyboard-response","423","623931","0.0-1.0-554.0-0.0","0","0","87047","","622","","","75","61","","","2","61","training","adjacent","DE","4","5","M.jpg","L.jpg","1","1","1","",""
"","feedback","","html-keyboard-response","424","624936","0.0-1.0-555.0-0.0","0","0","87047","","null","","","null","61","","","","","","","","","","","","","","","",""
"","ITI","","html-keyboard-response","425","625941","0.0-1.0-558.0","0","0","87047","","null","","","null","61","","","","","","","","","","","","","","","NaN",""
"","S1","","html-keyboard-response","426","626197","0.0-1.0-560.0","0","0","87047","","null","","","null","62","","","","","","","","","","","","","","","",""
"","ISI","","html-keyboard-response","427","627202","0.0-1.0-561.0","0","0","87047","","null","","","null","62","NaN","","","","","","","","","","","","","","",""
"","S2","","html-keyboard-response","428","627458","0.0-1.0-562.0","0","0","87047","","null","","","null","62","","NaN","","","","","","","","","","","","","",""
"","response","","html-keyboard-response","429","628013","0.0-1.0-563.0-0.0","0","0","87047","","548","","","75","62","","","2","62","training","adjacent","BA","2","1","P.jpg","O.jpg","1","0","0","",""
"","feedback","","html-keyboard-response","430","629018","0.0-1.0-564.0-0.0","0","0","87047","","null","","","null","62","","","","","","","","","","","","","","","",""
"","time_out","","html-keyboard-response","431","631028","0.0-1.0-566.0-0.0","0","0","87047","","null","","","null","62","","","","","","","","","","","","","","","",""
"","ITI","","html-keyboard-response","432","632036","0.0-1.0-567.0","0","0","87047","","null","","","null","62","","","","","","","","","","","","","","","NaN",""
"","S1","","html-keyboard-response","433","632295","0.0-1.0-569.0","0","0","87047","","null","","","null","63","","","","","","","","","","","","","","","",""
"","ISI","","html-keyboard-response","434","633305","0.0-1.0-570.0","0","0","87047","","null","","","null","63","NaN","","","","","","","","","","","","","","",""
"","S2","","html-keyboard-response","435","633560","0.0-1.0-571.0","0","0","87047","","null","","","null","63","","NaN","","","","","","","","","","","","","",""
"","response","","html-keyboard-response","436","633960","0.0-1.0-572.0-0.0","0","0","87047","","396","","","75","63","","","2","63","training","adjacent","CB","3","2","R.jpg","P.jpg","1","0","0","",""
"","feedback","","html-keyboard-response","437","634966","0.0-1.0-573.0-0.0","0","0","87047","","null","","","null","63","","","","","","","","","","","","","","","",""
"","time_out","","html-keyboard-response","438","636974","0.0-1.0-575.0-0.0","0","0","87047","","null","","","null","63","","","","","","","","","","","","","","","",""
"","ITI","","html-keyboard-response","439","637976","0.0-1.0-576.0","0","0","87047","","null","","","null","63","","","","","","","","","","","","","","","NaN",""
"","S1","","html-keyboard-response","440","638232","0.0-1.0-578.0","0","0","87047","","null","","","null","64","","","","","","","","","","","","","","","",""
"","ISI","","html-keyboard-response","441","639239","0.0-1.0-579.0","0","0","87047","","null","","","null","64","NaN","","","","","","","","","","","","","","",""
"","S2","","html-keyboard-response","442","639497","0.0-1.0-580.0","0","0","87047","","null","","","null","64","","NaN","","","","","","","","","","","","","",""
"","response","","html-keyboard-response","443","641255","0.0-1.0-581.0-0.0","0","0","87047","","null","","","null","64","","","2","64","training","adjacent","DE","4","5","M.jpg","L.jpg","NaN","1","0","",""
"","too_slow_prompt","","html-keyboard-response","444","642265","0.0-1.0-583.0-0.0","1","0","87047","","null","","","null","","","","","","","","","","","","","","","","",""
"","time_out","","html-keyboard-response","445","644273","0.0-1.0-584.0-0.0","0","0","87047","","null","","","null","64","","","","","","","","","","","","","","","",""
"","ITI","","html-keyboard-response","446","645284","0.0-1.0-585.0","0","0","87047","","null","","","null","64","","","","","","","","","","","","","","","NaN",""
"","S1","","html-keyboard-response","447","645545","0.0-1.0-587.0","0","0","87047","","null","","","null","65","","","","","","","","","","","","","","","",""
"","ISI","","html-keyboard-response","448","646551","0.0-1.0-588.0","0","0","87047","","null","","","null","65","NaN","","","","","","","","","","","","","","",""
"","S2","","html-keyboard-response","449","646816","0.0-1.0-589.0","0","0","87047","","null","","","null","65","","NaN","","","","","","","","","","","","","",""
"","response","","html-keyboard-response","450","648266","0.0-1.0-590.0-0.0","0","0","87047","","1445","","","75","65","","","2","65","training","adjacent","AB","1","2","O.jpg","P.jpg","1","1","1","",""
"","feedback","","html-keyboard-response","451","649272","0.0-1.0-591.0-0.0","0","0","87047","","null","","","null","65","","","","","","","","","","","","","","","",""
"","ITI","","html-keyboard-response","452","650278","0.0-1.0-594.0","0","0","87047","","null","","","null","65","","","","","","","","","","","","","","","NaN",""
"","S1","","html-keyboard-response","453","650534","0.0-1.0-596.0","0","0","87047","","null","","","null","66","","","","","","","","","","","","","","","",""
"","ISI","","html-keyboard-response","454","651539","0.0-1.0-597.0","0","0","87047","","null","","","null","66","NaN","","","","","","","","","","","","","","",""
"","S2","","html-keyboard-response","455","651796","0.0-1.0-598.0","0","0","87047","","null","","","null","66","","NaN","","","","","","","","","","","","","",""
"","response","","html-keyboard-response","456","652708","0.0-1.0-599.0-0.0","0","0","87047","","905","","","75","66","","","2","66","training","adjacent","BC","2","3","P.jpg","R.jpg","1","1","1","",""
"","feedback","","html-keyboard-response","457","653716","0.0-1.0-600.0-0.0","0","0","87047","","null","","","null","66","","","","","","","","","","","","","","","",""
"","ITI","","html-keyboard-response","458","654726","0.0-1.0-603.0","0","0","87047","","null","","","null","66","","","","","","","","","","","","","","","NaN",""
"","S1","","html-keyboard-response","459","654981","0.0-1.0-605.0","0","0","87047","","null","","","null","67","","","","","","","","","","","","","","","",""
"","ISI","","html-keyboard-response","460","655991","0.0-1.0-606.0","0","0","87047","","null","","","null","67","NaN","","","","","","","","","","","","","","",""
"","S2","","html-keyboard-response","461","656251","0.0-1.0-607.0","0","0","87047","","null","","","null","67","","NaN","","","","","","","","","","","","","",""
"","response","","html-keyboard-response","462","657132","0.0-1.0-608.0-0.0","0","0","87047","","872","","","75","67","","","2","67","training","adjacent","EF","5","6","L.jpg","Q.jpg","1","1","1","",""
"","feedback","","html-keyboard-response","463","658153","0.0-1.0-609.0-0.0","0","0","87047","","null","","","null","67","","","","","","","","","","","","","","","",""
"","ITI","","html-keyboard-response","464","659160","0.0-1.0-612.0","0","0","87047","","null","","","null","67","","","","","","","","","","","","","","","NaN",""
"","S1","","html-keyboard-response","465","659416","0.0-1.0-614.0","0","0","87047","","null","","","null","68","","","","","","","","","","","","","","","",""
"","ISI","","html-keyboard-response","466","660421","0.0-1.0-615.0","0","0","87047","","null","","","null","68","NaN","","","","","","","","","","","","","","",""
"","S2","","html-keyboard-response","467","660677","0.0-1.0-616.0","0","0","87047","","null","","","null","68","","NaN","","","","","","","","","","","","","",""
"","response","","html-keyboard-response","468","661352","0.0-1.0-617.0-0.0","0","0","87047","","671","","","75","68","","","2","68","training","adjacent","CB","3","2","R.jpg","P.jpg","1","0","0","",""
"","feedback","","html-keyboard-response","469","662358","0.0-1.0-618.0-0.0","0","0","87047","","null","","","null","68","","","","","","","","","","","","","","","",""
"","time_out","","html-keyboard-response","470","664365","0.0-1.0-620.0-0.0","0","0","87047","","null","","","null","68","","","","","","","","","","","","","","","",""
"","ITI","","html-keyboard-response","471","665371","0.0-1.0-621.0","0","0","87047","","null","","","null","68","","","","","","","","","","","","","","","NaN",""
"","S1","","html-keyboard-response","472","665628","0.0-1.0-623.0","0","0","87047","","null","","","null","69","","","","","","","","","","","","","","","",""
"","ISI","","html-keyboard-response","473","666638","0.0-1.0-624.0","0","0","87047","","null","","","null","69","NaN","","","","","","","","","","","","","","",""
"","S2","","html-keyboard-response","474","666894","0.0-1.0-625.0","0","0","87047","","null","","","null","69","","NaN","","","","","","","","","","","","","",""
"","response","","html-keyboard-response","475","668657","0.0-1.0-626.0-0.0","0","0","87047","","null","","","null","69","","","2","69","training","adjacent","DC","4","3","M.jpg","R.jpg","NaN","0","0","",""
"","too_slow_prompt","","html-keyboard-response","476","669664","0.0-1.0-628.0-0.0","1","0","87047","","null","","","null","","","","","","","","","","","","","","","","",""
"","time_out","","html-keyboard-response","477","671674","0.0-1.0-629.0-0.0","0","0","87047","","null","","","null","69","","","","","","","","","","","","","","","",""
"","ITI","","html-keyboard-response","478","672679","0.0-1.0-630.0","0","0","87047","","null","","","null","69","","","","","","","","","","","","","","","NaN",""
"","S1","","html-keyboard-response","479","672939","0.0-1.0-632.0","0","0","87047","","null","","","null","70","","","","","","","","","","","","","","","",""
"","ISI","","html-keyboard-response","480","673947","0.0-1.0-633.0","0","0","87047","","null","","","null","70","NaN","","","","","","","","","","","","","","",""
"","S2","","html-keyboard-response","481","674203","0.0-1.0-634.0","0","0","87047","","null","","","null","70","","NaN","","","","","","","","","","","","","",""
"","response","","html-keyboard-response","482","674760","0.0-1.0-635.0-0.0","0","0","87047","","549","","","75","70","","","2","70","training","adjacent","EF","5","6","L.jpg","Q.jpg","1","1","1","",""
"","feedback","","html-keyboard-response","483","675769","0.0-1.0-636.0-0.0","0","0","87047","","null","","","null","70","","","","","","","","","","","","","","","",""
"","ITI","","html-keyboard-response","484","676777","0.0-1.0-639.0","0","0","87047","","null","","","null","70","","","","","","","","","","","","","","","NaN",""
"","S1","","html-keyboard-response","485","677034","0.0-1.0-641.0","0","0","87047","","null","","","null","71","","","","","","","","","","","","","","","",""
"","ISI","","html-keyboard-response","486","678040","0.0-1.0-642.0","0","0","87047","","null","","","null","71","NaN","","","","","","","","","","","","","","",""
"","S2","","html-keyboard-response","487","678296","0.0-1.0-643.0","0","0","87047","","null","","","null","71","","NaN","","","","","","","","","","","","","",""
"","response","","html-keyboard-response","488","680056","0.0-1.0-644.0-0.0","0","0","87047","","null","","","null","71","","","2","71","training","adjacent","GF","7","6","N.jpg","Q.jpg","NaN","0","0","",""
"","too_slow_prompt","","html-keyboard-response","489","681063","0.0-1.0-646.0-0.0","1","0","87047","","null","","","null","","","","","","","","","","","","","","","","",""
"","time_out","","html-keyboard-response","490","683069","0.0-1.0-647.0-0.0","0","0","87047","","null","","","null","71","","","","","","","","","","","","","","","",""
"","ITI","","html-keyboard-response","491","684075","0.0-1.0-648.0","0","0","87047","","null","","","null","71","","","","","","","","","","","","","","","NaN",""
"","S1","","html-keyboard-response","492","684334","0.0-1.0-650.0","0","0","87047","","null","","","null","72","","","","","","","","","","","","","","","",""
"","ISI","","html-keyboard-response","493","685339","0.0-1.0-651.0","0","0","87047","","null","","","null","72","NaN","","","","","","","","","","","","","","",""
"","S2","","html-keyboard-response","494","685595","0.0-1.0-652.0","0","0","87047","","null","","","null","72","","NaN","","","","","","","","","","","","","",""
"","response","","html-keyboard-response","495","686749","0.0-1.0-653.0-0.0","0","0","87047","","1148","","","75","72","","","2","72","training","adjacent","FE","6","5","Q.jpg","L.jpg","1","0","0","",""
"","feedback","","html-keyboard-response","496","687756","0.0-1.0-654.0-0.0","0","0","87047","","null","","","null","72","","","","","","","","","","","","","","","",""
"","time_out","","html-keyboard-response","497","689764","0.0-1.0-656.0-0.0","0","0","87047","","null","","","null","72","","","","","","","","","","","","","","","",""
"","ITI","","html-keyboard-response","498","690771","0.0-1.0-657.0","0","0","87047","","null","","","null","72","","","","","","","","","","","","","","","NaN",""
"","S1","","html-keyboard-response","499","691029","0.0-1.0-659.0","0","0","87047","","null","","","null","73","","","","","","","","","","","","","","","",""
"","ISI","","html-keyboard-response","500","692035","0.0-1.0-660.0","0","0","87047","","null","","","null","73","NaN","","","","","","","","","","","","","","",""
"","S2","","html-keyboard-response","501","692292","0.0-1.0-661.0","0","0","87047","","null","","","null","73","","NaN","","","","","","","","","","","","","",""
"","response","","html-keyboard-response","502","693581","0.0-1.0-662.0-0.0","0","0","87047","","1283","","","75","73","","","2","73","training","adjacent","ED","5","4","L.jpg","M.jpg","1","0","0","",""
"","feedback","","html-keyboard-response","503","694589","0.0-1.0-663.0-0.0","0","0","87047","","null","","","null","73","","","","","","","","","","","","","","","",""
"","time_out","","html-keyboard-response","504","696597","0.0-1.0-665.0-0.0","0","0","87047","","null","","","null","73","","","","","","","","","","","","","","","",""
"","ITI","","html-keyboard-response","505","697603","0.0-1.0-666.0","0","0","87047","","null","","","null","73","","","","","","","","","","","","","","","NaN",""
"","S1","","html-keyboard-response","506","697859","0.0-1.0-668.0","0","0","87047","","null","","","null","74","","","","","","","","","","","","","","","",""
"","ISI","","html-keyboard-response","507","698862","0.0-1.0-669.0","0","0","87047","","null","","","null","74","NaN","","","","","","","","","","","","","","",""
"","S2","","html-keyboard-response","508","699124","0.0-1.0-670.0","0","0","87047","","null","","","null","74","","NaN","","","","","","","","","","","","","",""
"","response","","html-keyboard-response","509","700076","0.0-1.0-671.0-0.0","0","0","87047","","946","","","75","74","","","2","74","training","adjacent","BA","2","1","P.jpg","O.jpg","1","0","0","",""
"","feedback","","html-keyboard-response","510","701083","0.0-1.0-672.0-0.0","0","0","87047","","null","","","null","74","","","","","","","","","","","","","","","",""
"","time_out","","html-keyboard-response","511","703090","0.0-1.0-674.0-0.0","0","0","87047","","null","","","null","74","","","","","","","","","","","","","","","",""
"","ITI","","html-keyboard-response","512","704102","0.0-1.0-675.0","0","0","87047","","null","","","null","74","","","","","","","","","","","","","","","NaN",""
"","S1","","html-keyboard-response","513","704359","0.0-1.0-677.0","0","0","87047","","null","","","null","75","","","","","","","","","","","","","","","",""
"","ISI","","html-keyboard-response","514","705363","0.0-1.0-678.0","0","0","87047","","null","","","null","75","NaN","","","","","","","","","","","","","","",""
"","S2","","html-keyboard-response","515","705617","0.0-1.0-679.0","0","0","87047","","null","","","null","75","","NaN","","","","","","","","","","","","","",""
"","response","","html-keyboard-response","516","706361","0.0-1.0-680.0-0.0","0","0","87047","","736","","","68","75","","","2","75","training","adjacent","FE","6","5","Q.jpg","L.jpg","0","0","1","",""
"","feedback","","html-keyboard-response","517","707420","0.0-1.0-681.0-0.0","0","0","87047","","null","","","null","75","","","","","","","","","","","","","","","",""
"","ITI","","html-keyboard-response","518","708454","0.0-1.0-684.0","0","0","87047","","null","","","null","75","","","","","","","","","","","","","","","NaN",""
"","S1","","html-keyboard-response","519","708711","0.0-1.0-686.0","0","0","87047","","null","","","null","76","","","","","","","","","","","","","","","",""
"","ISI","","html-keyboard-response","520","709716","0.0-1.0-687.0","0","0","87047","","null","","","null","76","NaN","","","","","","","","","","","","","","",""
"","S2","","html-keyboard-response","521","709972","0.0-1.0-688.0","0","0","87047","","null","","","null","76","","NaN","","","","","","","","","","","","","",""
"","response","","html-keyboard-response","522","711231","0.0-1.0-689.0-0.0","0","0","87047","","1253","","","75","76","","","2","76","training","adjacent","AB","1","2","O.jpg","P.jpg","1","1","1","",""
"","feedback","","html-keyboard-response","523","712241","0.0-1.0-690.0-0.0","0","0","87047","","null","","","null","76","","","","","","","","","","","","","","","",""
"","ITI","","html-keyboard-response","524","713246","0.0-1.0-693.0","0","0","87047","","null","","","null","76","","","","","","","","","","","","","","","NaN",""
"","S1","","html-keyboard-response","525","713500","0.0-1.0-695.0","0","0","87047","","null","","","null","77","","","","","","","","","","","","","","","",""
"","ISI","","html-keyboard-response","526","714508","0.0-1.0-696.0","0","0","87047","","null","","","null","77","NaN","","","","","","","","","","","","","","",""
"","S2","","html-keyboard-response","527","714769","0.0-1.0-697.0","0","0","87047","","null","","","null","77","","NaN","","","","","","","","","","","","","",""
"","response","","html-keyboard-response","528","715463","0.0-1.0-698.0-0.0","0","0","87047","","687","","","75","77","","","2","77","training","adjacent","ED","5","4","L.jpg","M.jpg","1","0","0","",""
"","feedback","","html-keyboard-response","529","716471","0.0-1.0-699.0-0.0","0","0","87047","","null","","","null","77","","","","","","","","","","","","","","","",""
"","time_out","","html-keyboard-response","530","718481","0.0-1.0-701.0-0.0","0","0","87047","","null","","","null","77","","","","","","","","","","","","","","","",""
"","ITI","","html-keyboard-response","531","719487","0.0-1.0-702.0","0","0","87047","","null","","","null","77","","","","","","","","","","","","","","","NaN",""
"","S1","","html-keyboard-response","532","719743","0.0-1.0-704.0","0","0","87047","","null","","","null","78","","","","","","","","","","","","","","","",""
"","ISI","","html-keyboard-response","533","720749","0.0-1.0-705.0","0","0","87047","","null","","","null","78","NaN","","","","","","","","","","","","","","",""
"","S2","","html-keyboard-response","534","721006","0.0-1.0-706.0","0","0","87047","","null","","","null","78","","NaN","","","","","","","","","","","","","",""
"","response","","html-keyboard-response","535","722765","0.0-1.0-707.0-0.0","0","0","87047","","null","","","null","78","","","2","78","training","adjacent","CB","3","2","R.jpg","P.jpg","NaN","0","0","",""
"","too_slow_prompt","","html-keyboard-response","536","723773","0.0-1.0-709.0-0.0","1","0","87047","","null","","","null","","","","","","","","","","","","","","","","",""
"","time_out","","html-keyboard-response","537","725779","0.0-1.0-710.0-0.0","0","0","87047","","null","","","null","78","","","","","","","","","","","","","","","",""
"","ITI","","html-keyboard-response","538","726786","0.0-1.0-711.0","0","0","87047","","null","","","null","78","","","","","","","","","","","","","","","NaN",""
"","S1","","html-keyboard-response","539","727041","0.0-1.0-713.0","0","0","87047","","null","","","null","79","","","","","","","","","","","","","","","",""
"","ISI","","html-keyboard-response","540","728046","0.0-1.0-714.0","0","0","87047","","null","","","null","79","NaN","","","","","","","","","","","","","","",""
"","S2","","html-keyboard-response","541","728301","0.0-1.0-715.0","0","0","87047","","null","","","null","79","","NaN","","","","","","","","","","","","","",""
"","response","","html-keyboard-response","542","729727","0.0-1.0-716.0-0.0","0","0","87047","","1418","","","75","79","","","2","79","training","adjacent","FG","6","7","Q.jpg","N.jpg","1","1","1","",""
"","feedback","","html-keyboard-response","543","730735","0.0-1.0-717.0-0.0","0","0","87047","","null","","","null","79","","","","","","","","","","","","","","","",""
"","ITI","","html-keyboard-response","544","731741","0.0-1.0-720.0","0","0","87047","","null","","","null","79","","","","","","","","","","","","","","","NaN",""
"","S1","","html-keyboard-response","545","731996","0.0-1.0-722.0","0","0","87047","","null","","","null","80","","","","","","","","","","","","","","","",""
"","ISI","","html-keyboard-response","546","733001","0.0-1.0-723.0","0","0","87047","","null","","","null","80","NaN","","","","","","","","","","","","","","",""
"","S2","","html-keyboard-response","547","733257","0.0-1.0-724.0","0","0","87047","","null","","","null","80","","NaN","","","","","","","","","","","","","",""
"","response","","html-keyboard-response","548","734296","0.0-1.0-725.0-0.0","0","0","87047","","1031","","","75","80","","","2","80","training","adjacent","DE","4","5","M.jpg","L.jpg","1","1","1","",""
"","feedback","","html-keyboard-response","549","735308","0.0-1.0-726.0-0.0","0","0","87047","","null","","","null","80","","","","","","","","","","","","","","","",""
"","ITI","","html-keyboard-response","550","736313","0.0-1.0-729.0","0","0","87047","","null","","","null","80","","","","","","","","","","","","","","","NaN",""
"","S1","","html-keyboard-response","551","736570","0.0-1.0-731.0","0","0","87047","","null","","","null","81","","","","","","","","","","","","","","","",""
"","ISI","","html-keyboard-response","552","737580","0.0-1.0-732.0","0","0","87047","","null","","","null","81","NaN","","","","","","","","","","","","","","",""
"","S2","","html-keyboard-response","553","737836","0.0-1.0-733.0","0","0","87047","","null","","","null","81","","NaN","","","","","","","","","","","","","",""
"","response","","html-keyboard-response","554","738539","0.0-1.0-734.0-0.0","0","0","87047","","694","","","68","81","","","2","81","training","adjacent","FG","6","7","Q.jpg","N.jpg","0","1","0","",""
"","feedback","","html-keyboard-response","555","739547","0.0-1.0-735.0-0.0","0","0","87047","","null","","","null","81","","","","","","","","","","","","","","","",""
"","time_out","","html-keyboard-response","556","741555","0.0-1.0-737.0-0.0","0","0","87047","","null","","","null","81","","","","","","","","","","","","","","","",""
"","ITI","","html-keyboard-response","557","742560","0.0-1.0-738.0","0","0","87047","","null","","","null","81","","","","","","","","","","","","","","","NaN",""
"","S1","","html-keyboard-response","558","742814","0.0-1.0-740.0","0","0","87047","","null","","","null","82","","","","","","","","","","","","","","","",""
"","ISI","","html-keyboard-response","559","743817","0.0-1.0-741.0","0","0","87047","","937","","","75","82","k","","","","","","","","","","","","","","",""
"","S2","","html-keyboard-response","560","743945","0.0-1.0-742.0","0","0","87047","","122","","","68","82","","d","2","82","training","adjacent","DE","4","5","M.jpg","L.jpg","0","1","0","",""
"","feedback","","html-keyboard-response","561","744953","0.0-1.0-744.0-0.0","0","0","87047","","null","","","null","82","","","","","","","","","","","","","","","",""
"","time_out","","html-keyboard-response","562","746961","0.0-1.0-746.0-0.0","0","0","87047","","null","","","null","82","","","","","","","","","","","","","","","",""
"","ITI","","html-keyboard-response","563","747965","0.0-1.0-747.0","0","0","87047","","null","","","null","82","","","","","","","","","","","","","","","NaN",""
"","S1","","html-keyboard-response","564","748220","0.0-1.0-749.0","0","0","87047","","null","","","null","83","","","","","","","","","","","","","","","",""
"","ISI","","html-keyboard-response","565","749225","0.0-1.0-750.0","0","0","87047","","null","","","null","83","NaN","","","","","","","","","","","","","","",""
"","S2","","html-keyboard-response","566","749482","0.0-1.0-751.0","0","0","87047","","null","","","null","83","","NaN","","","","","","","","","","","","","",""
"","response","","html-keyboard-response","567","750174","0.0-1.0-752.0-0.0","0","0","87047","","685","","","75","83","","","2","83","training","adjacent","GF","7","6","N.jpg","Q.jpg","1","0","0","",""
"","feedback","","html-keyboard-response","568","751185","0.0-1.0-753.0-0.0","0","0","87047","","null","","","null","83","","","","","","","","","","","","","","","",""
"","time_out","","html-keyboard-response","569","753193","0.0-1.0-755.0-0.0","0","0","87047","","null","","","null","83","","","","","","","","","","","","","","","",""
"","ITI","","html-keyboard-response","570","754197","0.0-1.0-756.0","0","0","87047","","null","","","null","83","","","","","","","","","","","","","","","NaN",""
"","S1","","html-keyboard-response","571","754453","0.0-1.0-758.0","0","0","87047","","null","","","null","84","","","","","","","","","","","","","","","",""
"","ISI","","html-keyboard-response","572","755458","0.0-1.0-759.0","0","0","87047","","null","","","null","84","NaN","","","","","","","","","","","","","","",""
"","S2","","html-keyboard-response","573","755715","0.0-1.0-760.0","0","0","87047","","null","","","null","84","","NaN","","","","","","","","","","","","","",""
"","response","","html-keyboard-response","574","756124","0.0-1.0-761.0-0.0","0","0","87047","","405","","","68","84","","","2","84","training","adjacent","FE","6","5","Q.jpg","L.jpg","0","0","1","",""
"","feedback","","html-keyboard-response","575","757129","0.0-1.0-762.0-0.0","0","0","87047","","null","","","null","84","","","","","","","","","","","","","","","",""
