"success","ttype","start_time","trial_type","trial_index","time_elapsed","internal_node_id","warning","missed_checkup","PID","view_history","rt","responses","repeat_instructions","key_press","index","keypress_isi","keypress_S2","block","trial_num","phase","group_type","pair_type","S1_stim","S2_stim","S1_img","S2_img","S1_chosen","S1_higher","accuracy","keypress_iti","total_bonus_tally"
"true","full_screen","d04062023hr1729","fullscreen","0","35166","0.0-0.0","0","0","21375","","","","","","","","","","","","","","","","","","","","","",""
"","instructions","","instructions","1","73580","0.0-1.0-0.0-0.0","0","0","21375","[{""page_index"":0,""viewing_time"":6500},{""page_index"":1,""viewing_time"":19570},{""page_index"":2,""viewing_time"":10349},{""page_index"":3,""viewing_time"":1988}]","38409","","","","","","","","","","","","","","","","","","","",""
"","comprehension_check","","survey-multi-choice","2","95802","0.0-1.0-0.0-1.0","0","0","21375","","22211","{""Q0"":""True"",""Q1"":""K"",""Q2"":""Once the second image appears and while the screen 'MAKE A CHOICE' is shown"",""Q3"":""Green mark"",""Q4"":""either D or K""}","0","","","","","","","","","","","","","","","","","",""
"","start_exp","","html-keyboard-response","3","98403","0.0-1.0-1.0","0","0","21375","","2595","","","32","","","","","","","","","","","","","","","","",""
"","S1","","html-keyboard-response","4","98558","0.0-1.0-2.0","0","0","21375","","null","","","null","0","","","","","","","","","","","","","","","",""
"","ISI","","html-keyboard-response","5","100562","0.0-1.0-3.0","0","0","21375","","null","","","null","0","NaN","","","","","","","","","","","","","","",""
"","S2","","html-keyboard-response","6","100717","0.0-1.0-4.0","0","0","21375","","null","","","null","0","","NaN","","","","","","","","","","","","","",""
"","response","","html-keyboard-response","7","102578","0.0-1.0-5.0-0.0","0","0","21375","","null","","","null","0","","","1","0","training","adjacent","CD","3","4","M.jpg","N.jpg","NaN","1","0","",""
"","too_slow_prompt","","html-keyboard-response","8","103582","0.0-1.0-7.0-0.0","1","0","21375","","null","","","null","","","","","","","","","","","","","","","","",""
"","time_out","","html-keyboard-response","9","105585","0.0-1.0-8.0-0.0","0","0","21375","","null","","","null","0","","","","","","","","","","","","","","","",""
"","ITI","","html-keyboard-response","10","106587","0.0-1.0-9.0","0","0","21375","","null","","","null","0","","","","","","","","","","","","","","","NaN",""
"","S1","","html-keyboard-response","11","106740","0.0-1.0-11.0","0","0","21375","","null","","","null","1","","","","","","","","","","","","","","","",""
"","ISI","","html-keyboard-response","12","108742","0.0-1.0-12.0","0","0","21375","","null","","","null","1","NaN","","","","","","","","","","","","","","",""
"","S2","","html-keyboard-response","13","108894","0.0-1.0-13.0","0","0","21375","","null","","","null","1","","NaN","","","","","","","","","","","","","",""
"","response","","html-keyboard-response","14","109302","0.0-1.0-14.0-0.0","0","0","21375","","407","","","75","1","","","1","1","training","adjacent","BC","2","3","R.jpg","M.jpg","1","1","1","",""
"","feedback","","html-keyboard-response","15","110305","0.0-1.0-15.0-0.0","0","0","21375","","null","","","null","1","","","","","","","","","","","","","","","",""
"","ITI","","html-keyboard-response","16","111308","0.0-1.0-18.0","0","0","21375","","null","","","null","1","","","","","","","","","","","","","","","NaN",""
"","S1","","html-keyboard-response","17","111460","0.0-1.0-20.0","0","0","21375","","null","","","null","2","","","","","","","","","","","","","","","",""
"","ISI","","html-keyboard-response","18","113462","0.0-1.0-21.0","0","0","21375","","null","","","null","2","NaN","","","","","","","","","","","","","","",""
"","S2","","html-keyboard-response","19","113621","0.0-1.0-22.0","0","0","21375","","null","","","null","2","","NaN","","","","","","","","","","","","","",""
"","response","","html-keyboard-response","20","114049","0.0-1.0-23.0-0.0","0","0","21375","","427","","","75","2","","","1","2","training","adjacent","DC","4","3","N.jpg","M.jpg","1","0","0","",""
"","feedback","","html-keyboard-response","21","115053","0.0-1.0-24.0-0.0","0","0","21375","","null","","","null","2","","","","","","","","","","","","","","","",""
"","time_out","","html-keyboard-response","22","117057","0.0-1.0-26.0-0.0","0","0","21375","","null","","","null","2","","","","","","","","","","","","","","","",""
"","ITI","","html-keyboard-response","23","118073","0.0-1.0-27.0","0","0","21375","","null","","","null","2","","","","","","","","","","","","","","","NaN",""
"","S1","","html-keyboard-response","24","118228","0.0-1.0-29.0","0","0","21375","","null","","","null","3","","","","","","","","","","","","","","","",""
"","ISI","","html-keyboard-response","25","120232","0.0-1.0-30.0","0","0","21375","","null","","","null","3","NaN","","","","","","","","","","","","","","",""
"","S2","","html-keyboard-response","26","120387","0.0-1.0-31.0","0","0","21375","","null","","","null","3","","NaN","","","","","","","","","","","","","",""
"","response","","html-keyboard-response","27","120925","0.0-1.0-32.0-0.0","0","0","21375","","534","","","75","3","","","1","3","training","adjacent","GF","7","6","L.jpg","P.jpg","1","0","0","",""
"","feedback","","html-keyboard-response","28","121930","0.0-1.0-33.0-0.0","0","0","21375","","null","","","null","3","","","","","","","","","","","","","","","",""
"","time_out","","html-keyboard-response","29","123934","0.0-1.0-35.0-0.0","0","0","21375","","null","","","null","3","","","","","","","","","","","","","","","",""
"","ITI","","html-keyboard-response","30","124938","0.0-1.0-36.0","0","0","21375","","null","","","null","3","","","","","","","","","","","","","","","NaN",""
"","S1","","html-keyboard-response","31","125092","0.0-1.0-38.0","0","0","21375","","null","","","null","4","","","","","","","","","","","","","","","",""
"","ISI","","html-keyboard-response","32","127096","0.0-1.0-39.0","0","0","21375","","null","","","null","4","NaN","","","","","","","","","","","","","","",""
"","S2","","html-keyboard-response","33","127249","0.0-1.0-40.0","0","0","21375","","null","","","null","4","","NaN","","","","","","","","","","","","","",""
"","response","","html-keyboard-response","34","127749","0.0-1.0-41.0-0.0","0","0","21375","","496","","","68","4","","","1","4","training","adjacent","AB","1","2","O.jpg","R.jpg","0","1","0","",""
"","feedback","","html-keyboard-response","35","128753","0.0-1.0-42.0-0.0","0","0","21375","","null","","","null","4","","","","","","","","","","","","","","","",""
"","time_out","","html-keyboard-response","36","130759","0.0-1.0-44.0-0.0","0","0","21375","","null","","","null","4","","","","","","","","","","","","","","","",""
"","ITI","","html-keyboard-response","37","131778","0.0-1.0-45.0","0","0","21375","","null","","","null","4","","","","","","","","","","","","","","","NaN",""
"","S1","","html-keyboard-response","38","131932","0.0-1.0-47.0","0","0","21375","","null","","","null","5","","","","","","","","","","","","","","","",""
"","ISI","","html-keyboard-response","39","133936","0.0-1.0-48.0","0","0","21375","","null","","","null","5","NaN","","","","","","","","","","","","","","",""
"","S2","","html-keyboard-response","40","134090","0.0-1.0-49.0","0","0","21375","","null","","","null","5","","NaN","","","","","","","","","","","","","",""
"","response","","html-keyboard-response","41","134633","0.0-1.0-50.0-0.0","0","0","21375","","539","","","75","5","","","1","5","training","adjacent","FG","6","7","P.jpg","L.jpg","1","1","1","",""
"","feedback","","html-keyboard-response","42","135638","0.0-1.0-51.0-0.0","0","0","21375","","null","","","null","5","","","","","","","","","","","","","","","",""
"","ITI","","html-keyboard-response","43","136641","0.0-1.0-54.0","0","0","21375","","null","","","null","5","","","","","","","","","","","","","","","NaN",""
"","S1","","html-keyboard-response","44","136795","0.0-1.0-56.0","0","0","21375","","null","","","null","6","","","","","","","","","","","","","","","",""
"","ISI","","html-keyboard-response","45","138799","0.0-1.0-57.0","0","0","21375","","null","","","null","6","NaN","","","","","","","","","","","","","","",""
"","S2","","html-keyboard-response","46","138954","0.0-1.0-58.0","0","0","21375","","null","","","null","6","","NaN","","","","","","","","","","","","","",""
"","response","","html-keyboard-response","47","139317","0.0-1.0-59.0-0.0","0","0","21375","","360","","","75","6","","","1","6","training","adjacent","FG","6","7","P.jpg","L.jpg","1","1","1","",""
"","feedback","","html-keyboard-response","48","140321","0.0-1.0-60.0-0.0","0","0","21375","","null","","","null","6","","","","","","","","","","","","","","","",""
"","ITI","","html-keyboard-response","49","141325","0.0-1.0-63.0","0","0","21375","","null","","","null","6","","","","","","","","","","","","","","","NaN",""
"","S1","","html-keyboard-response","50","141480","0.0-1.0-65.0","0","0","21375","","null","","","null","7","","","","","","","","","","","","","","","",""
"","ISI","","html-keyboard-response","51","143483","0.0-1.0-66.0","0","0","21375","","null","","","null","7","NaN","","","","","","","","","","","","","","",""
"","S2","","html-keyboard-response","52","143639","0.0-1.0-67.0","0","0","21375","","null","","","null","7","","NaN","","","","","","","","","","","","","",""
"","response","","html-keyboard-response","53","144124","0.0-1.0-68.0-0.0","0","0","21375","","483","","","68","7","","","1","7","training","adjacent","BC","2","3","R.jpg","M.jpg","0","1","0","",""
"","feedback","","html-keyboard-response","54","145130","0.0-1.0-69.0-0.0","0","0","21375","","null","","","null","7","","","","","","","","","","","","","","","",""
"","time_out","","html-keyboard-response","55","147133","0.0-1.0-71.0-0.0","0","0","21375","","null","","","null","7","","","","","","","","","","","","","","","",""
"","ITI","","html-keyboard-response","56","148138","0.0-1.0-72.0","0","0","21375","","null","","","null","7","","","","","","","","","","","","","","","NaN",""
"","S1","","html-keyboard-response","57","148292","0.0-1.0-74.0","0","0","21375","","null","","","null","8","","","","","","","","","","","","","","","",""
"","ISI","","html-keyboard-response","58","150296","0.0-1.0-75.0","0","0","21375","","null","","","null","8","NaN","","","","","","","","","","","","","","",""
"","S2","","html-keyboard-response","59","150450","0.0-1.0-76.0","0","0","21375","","null","","","null","8","","NaN","","","","","","","","","","","","","",""
"","response","","html-keyboard-response","60","150727","0.0-1.0-77.0-0.0","0","0","21375","","274","","","68","8","","","1","8","training","adjacent","FE","6","5","P.jpg","Q.jpg","0","0","1","",""
"","feedback","","html-keyboard-response","61","151731","0.0-1.0-78.0-0.0","0","0","21375","","null","","","null","8","","","","","","","","","","","","","","","",""
"","ITI","","html-keyboard-response","62","152735","0.0-1.0-81.0","0","0","21375","","null","","","null","8","","","","","","","","","","","","","","","NaN",""
"","S1","","html-keyboard-response","63","152889","0.0-1.0-83.0","0","0","21375","","null","","","null","9","","","","","","","","","","","","","","","",""
"","ISI","","html-keyboard-response","64","154894","0.0-1.0-84.0","0","0","21375","","null","","","null","9","NaN","","","","","","","","","","","","","","",""
"","S2","","html-keyboard-response","65","155048","0.0-1.0-85.0","0","0","21375","","null","","","null","9","","NaN","","","","","","","","","","","","","",""
"","response","","html-keyboard-response","66","155749","0.0-1.0-86.0-0.0","0","0","21375","","697","","","75","9","","","1","9","training","adjacent","GF","7","6","L.jpg","P.jpg","1","0","0","",""
"","feedback","","html-keyboard-response","67","156754","0.0-1.0-87.0-0.0","0","0","21375","","null","","","null","9","","","","","","","","","","","","","","","",""
"","time_out","","html-keyboard-response","68","158759","0.0-1.0-89.0-0.0","0","0","21375","","null","","","null","9","","","","","","","","","","","","","","","",""
"","ITI","","html-keyboard-response","69","159763","0.0-1.0-90.0","0","0","21375","","null","","","null","9","","","","","","","","","","","","","","","NaN",""
"","S1","","html-keyboard-response","70","159917","0.0-1.0-92.0","0","0","21375","","null","","","null","10","","","","","","","","","","","","","","","",""
"","ISI","","html-keyboard-response","71","161921","0.0-1.0-93.0","0","0","21375","","null","","","null","10","NaN","","","","","","","","","","","","","","",""
"","S2","","html-keyboard-response","72","162075","0.0-1.0-94.0","0","0","21375","","null","","","null","10","","NaN","","","","","","","","","","","","","",""
"","response","","html-keyboard-response","73","162518","0.0-1.0-95.0-0.0","0","0","21375","","440","","","75","10","","","1","10","training","adjacent","CD","3","4","M.jpg","N.jpg","1","1","1","",""
"","feedback","","html-keyboard-response","74","163522","0.0-1.0-96.0-0.0","0","0","21375","","null","","","null","10","","","","","","","","","","","","","","","",""
"","ITI","","html-keyboard-response","75","164525","0.0-1.0-99.0","0","0","21375","","null","","","null","10","","","","","","","","","","","","","","","NaN",""
"","S1","","html-keyboard-response","76","164680","0.0-1.0-101.0","0","0","21375","","null","","","null","11","","","","","","","","","","","","","","","",""
"","ISI","","html-keyboard-response","77","166684","0.0-1.0-102.0","0","0","21375","","null","","","null","11","NaN","","","","","","","","","","","","","","",""
"","S2","","html-keyboard-response","78","166839","0.0-1.0-103.0","0","0","21375","","null","","","null","11","","NaN","","","","","","","","","","","","","",""
"","response","","html-keyboard-response","79","167270","0.0-1.0-104.0-0.0","0","0","21375","","428","","","68","11","","","1","11","training","adjacent","BA","2","1","R.jpg","O.jpg","0","0","1","",""
"","feedback","","html-keyboard-response","80","168275","0.0-1.0-105.0-0.0","0","0","21375","","null","","","null","11","","","","","","","","","","","","","","","",""
"","ITI","","html-keyboard-response","81","169279","0.0-1.0-108.0","0","0","21375","","null","","","null","11","","","","","","","","","","","","","","","NaN",""
"","S1","","html-keyboard-response","82","169434","0.0-1.0-110.0","0","0","21375","","null","","","null","12","","","","","","","","","","","","","","","",""
"","ISI","","html-keyboard-response","83","171438","0.0-1.0-111.0","0","0","21375","","null","","","null","12","NaN","","","","","","","","","","","","","","",""
"","S2","","html-keyboard-response","84","171593","0.0-1.0-112.0","0","0","21375","","null","","","null","12","","NaN","","","","","","","","","","","","","",""
"","response","","html-keyboard-response","85","172040","0.0-1.0-113.0-0.0","0","0","21375","","444","","","75","12","","","1","12","training","adjacent","BC","2","3","R.jpg","M.jpg","1","1","1","",""
"","feedback","","html-keyboard-response","86","173044","0.0-1.0-114.0-0.0","0","0","21375","","null","","","null","12","","","","","","","","","","","","","","","",""
"","ITI","","html-keyboard-response","87","174049","0.0-1.0-117.0","0","0","21375","","null","","","null","12","","","","","","","","","","","","","","","NaN",""
"","S1","","html-keyboard-response","88","174204","0.0-1.0-119.0","0","0","21375","","null","","","null","13","","","","","","","","","","","","","","","",""
"","ISI","","html-keyboard-response","89","176207","0.0-1.0-120.0","0","0","21375","","null","","","null","13","NaN","","","","","","","","","","","","","","",""
"","S2","","html-keyboard-response","90","176362","0.0-1.0-121.0","0","0","21375","","null","","","null","13","","NaN","","","","","","","","","","","","","",""
"","response","","html-keyboard-response","91","176839","0.0-1.0-122.0-0.0","0","0","21375","","475","","","75","13","","","1","13","training","adjacent","CD","3","4","M.jpg","N.jpg","1","1","1","",""
"","feedback","","html-keyboard-response","92","177844","0.0-1.0-123.0-0.0","0","0","21375","","null","","","null","13","","","","","","","","","","","","","","","",""
"","ITI","","html-keyboard-response","93","178849","0.0-1.0-126.0","0","0","21375","","null","","","null","13","","","","","","","","","","","","","","","NaN",""
"","S1","","html-keyboard-response","94","179003","0.0-1.0-128.0","0","0","21375","","null","","","null","14","","","","","","","","","","","","","","","",""
"","ISI","","html-keyboard-response","95","181008","0.0-1.0-129.0","0","0","21375","","null","","","null","14","NaN","","","","","","","","","","","","","","",""
"","S2","","html-keyboard-response","96","181162","0.0-1.0-130.0","0","0","21375","","null","","","null","14","","NaN","","","","","","","","","","","","","",""
"","response","","html-keyboard-response","97","181336","0.0-1.0-131.0-0.0","0","0","21375","","170","","","68","14","","","1","14","training","adjacent","EF","5","6","Q.jpg","P.jpg","0","1","0","",""
"","feedback","","html-keyboard-response","98","182340","0.0-1.0-132.0-0.0","0","0","21375","","null","","","null","14","","","","","","","","","","","","","","","",""
"","time_out","","html-keyboard-response","99","184343","0.0-1.0-134.0-0.0","0","0","21375","","null","","","null","14","","","","","","","","","","","","","","","",""
"","ITI","","html-keyboard-response","100","185346","0.0-1.0-135.0","0","0","21375","","null","","","null","14","","","","","","","","","","","","","","","NaN",""
"","S1","","html-keyboard-response","101","185500","0.0-1.0-137.0","0","0","21375","","null","","","null","15","","","","","","","","","","","","","","","",""
"","ISI","","html-keyboard-response","102","187504","0.0-1.0-138.0","0","0","21375","","null","","","null","15","NaN","","","","","","","","","","","","","","",""
"","S2","","html-keyboard-response","103","187658","0.0-1.0-139.0","0","0","21375","","null","","","null","15","","NaN","","","","","","","","","","","","","",""
"","response","","html-keyboard-response","104","188549","0.0-1.0-140.0-0.0","0","0","21375","","889","","","68","15","","","1","15","training","adjacent","CB","3","2","M.jpg","R.jpg","0","0","1","",""
"","feedback","","html-keyboard-response","105","189553","0.0-1.0-141.0-0.0","0","0","21375","","null","","","null","15","","","","","","","","","","","","","","","",""
"","ITI","","html-keyboard-response","106","190558","0.0-1.0-144.0","0","0","21375","","null","","","null","15","","","","","","","","","","","","","","","NaN",""
"","S1","","html-keyboard-response","107","190712","0.0-1.0-146.0","0","0","21375","","null","","","null","16","","","","","","","","","","","","","","","",""
"","ISI","","html-keyboard-response","108","192717","0.0-1.0-147.0","0","0","21375","","null","","","null","16","NaN","","","","","","","","","","","","","","",""
"","S2","","html-keyboard-response","109","192872","0.0-1.0-148.0","0","0","21375","","null","","","null","16","","NaN","","","","","","","","","","","","","",""
"","response","","html-keyboard-response","110","193258","0.0-1.0-149.0-0.0","0","0","21375","","384","","","75","16","","","1","16","training","adjacent","EF","5","6","Q.jpg","P.jpg","1","1","1","",""
"","feedback","","html-keyboard-response","111","194263","0.0-1.0-150.0-0.0","0","0","21375","","null","","","null","16","","","","","","","","","","","","","","","",""
"","ITI","","html-keyboard-response","112","195267","0.0-1.0-153.0","0","0","21375","","null","","","null","16","","","","","","","","","","","","","","","NaN",""
"","S1","","html-keyboard-response","113","195422","0.0-1.0-155.0","0","0","21375","","null","","","null","17","","","","","","","","","","","","","","","",""
"","ISI","","html-keyboard-response","114","197425","0.0-1.0-156.0","0","0","21375","","null","","","null","17","NaN","","","","","","","","","","","","","","",""
"","S2","","html-keyboard-response","115","197580","0.0-1.0-157.0","0","0","21375","","null","","","null","17","","NaN","","","","","","","","","","","","","",""
"","response","","html-keyboard-response","116","197927","0.0-1.0-158.0-0.0","0","0","21375","","343","","","68","17","","","1","17","training","adjacent","EF","5","6","Q.jpg","P.jpg","0","1","0","",""
"","feedback","","html-keyboard-response","117","198932","0.0-1.0-159.0-0.0","0","0","21375","","null","","","null","17","","","","","","","","","","","","","","","",""
"","time_out","","html-keyboard-response","118","200936","0.0-1.0-161.0-0.0","0","0","21375","","null","","","null","17","","","","","","","","","","","","","","","",""
"","ITI","","html-keyboard-response","119","201940","0.0-1.0-162.0","0","0","21375","","null","","","null","17","","","","","","","","","","","","","","","NaN",""
"","S1","","html-keyboard-response","120","202108","0.0-1.0-164.0","0","0","21375","","null","","","null","18","","","","","","","","","","","","","","","",""
"","ISI","","html-keyboard-response","121","204112","0.0-1.0-165.0","0","0","21375","","null","","","null","18","NaN","","","","","","","","","","","","","","",""
"","S2","","html-keyboard-response","122","204268","0.0-1.0-166.0","0","0","21375","","null","","","null","18","","NaN","","","","","","","","","","","","","",""
"","response","","html-keyboard-response","123","204391","0.0-1.0-167.0-0.0","0","0","21375","","119","","","68","18","","","1","18","training","adjacent","FG","6","7","P.jpg","L.jpg","0","1","0","",""
"","feedback","","html-keyboard-response","124","205395","0.0-1.0-168.0-0.0","0","0","21375","","null","","","null","18","","","","","","","","","","","","","","","",""
"","time_out","","html-keyboard-response","125","207400","0.0-1.0-170.0-0.0","0","0","21375","","null","","","null","18","","","","","","","","","","","","","","","",""
"","ITI","","html-keyboard-response","126","208403","0.0-1.0-171.0","0","0","21375","","null","","","null","18","","","","","","","","","","","","","","","NaN",""
"","S1","","html-keyboard-response","127","208558","0.0-1.0-173.0","0","0","21375","","null","","","null","19","","","","","","","","","","","","","","","",""
"","ISI","","html-keyboard-response","128","210561","0.0-1.0-174.0","0","0","21375","","799","","","75","19","k","","","","","","","","","","","","","","",""
"","S2","","html-keyboard-response","129","210715","0.0-1.0-175.0","0","0","21375","","null","","","null","19","","NaN","","","","","","","","","","","","","",""
"","response","","html-keyboard-response","130","211096","0.0-1.0-176.0-0.0","0","0","21375","","377","","","75","19","","","1","19","training","adjacent","EF","5","6","Q.jpg","P.jpg","1","1","1","",""
"","feedback","","html-keyboard-response","131","212101","0.0-1.0-177.0-0.0","0","0","21375","","null","","","null","19","","","","","","","","","","","","","","","",""
"","ITI","","html-keyboard-response","132","213105","0.0-1.0-180.0","0","0","21375","","null","","","null","19","","","","","","","","","","","","","","","NaN",""
"","S1","","html-keyboard-response","133","213259","0.0-1.0-182.0","0","0","21375","","null","","","null","20","","","","","","","","","","","","","","","",""
"","ISI","","html-keyboard-response","134","215262","0.0-1.0-183.0","0","0","21375","","null","","","null","20","NaN","","","","","","","","","","","","","","",""
"","S2","","html-keyboard-response","135","215418","0.0-1.0-184.0","0","0","21375","","null","","","null","20","","NaN","","","","","","","","","","","","","",""
"","response","","html-keyboard-response","136","215990","0.0-1.0-185.0-0.0","0","0","21375","","568","","","68","20","","","1","20","training","adjacent","ED","5","4","Q.jpg","N.jpg","0","0","1","",""
"","feedback","","html-keyboard-response","137","216994","0.0-1.0-186.0-0.0","0","0","21375","","null","","","null","20","","","","","","","","","","","","","","","",""
"","ITI","","html-keyboard-response","138","217998","0.0-1.0-189.0","0","0","21375","","null","","","null","20","","","","","","","","","","","","","","","NaN",""
"","S1","","html-keyboard-response","139","218153","0.0-1.0-191.0","0","0","21375","","null","","","null","21","","","","","","","","","","","","","","","",""
"","ISI","","html-keyboard-response","140","220157","0.0-1.0-192.0","0","0","21375","","null","","","null","21","NaN","","","","","","","","","","","","","","",""
"","S2","","html-keyboard-response","141","220311","0.0-1.0-193.0","0","0","21375","","null","","","null","21","","NaN","","","","","","","","","","","","","",""
"","response","","html-keyboard-response","142","220809","0.0-1.0-194.0-0.0","0","0","21375","","494","","","68","21","","","1","21","training","adjacent","DE","4","5","N.jpg","Q.jpg","0","1","0","",""
"","feedback","","html-keyboard-response","143","221813","0.0-1.0-195.0-0.0","0","0","21375","","null","","","null","21","","","","","","","","","","","","","","","",""
"","time_out","","html-keyboard-response","144","223818","0.0-1.0-197.0-0.0","0","0","21375","","null","","","null","21","","","","","","","","","","","","","","","",""
"","ITI","","html-keyboard-response","145","224823","0.0-1.0-198.0","0","0","21375","","null","","","null","21","","","","","","","","","","","","","","","NaN",""
"","S1","","html-keyboard-response","146","224978","0.0-1.0-200.0","0","0","21375","","null","","","null","22","","","","","","","","","","","","","","","",""
"","ISI","","html-keyboard-response","147","226982","0.0-1.0-201.0","0","0","21375","","null","","","null","22","NaN","","","","","","","","","","","","","","",""
"","S2","","html-keyboard-response","148","227136","0.0-1.0-202.0","0","0","21375","","null","","","null","22","","NaN","","","","","","","","","","","","","",""
"","response","","html-keyboard-response","149","227293","0.0-1.0-203.0-0.0","0","0","21375","","154","","","68","22","","","1","22","training","adjacent","AB","1","2","O.jpg","R.jpg","0","1","0","",""
"","feedback","","html-keyboard-response","150","228298","0.0-1.0-204.0-0.0","0","0","21375","","null","","","null","22","","","","","","","","","","","","","","","",""
"","time_out","","html-keyboard-response","151","230301","0.0-1.0-206.0-0.0","0","0","21375","","null","","","null","22","","","","","","","","","","","","","","","",""
"","ITI","","html-keyboard-response","152","231305","0.0-1.0-207.0","0","0","21375","","null","","","null","22","","","","","","","","","","","","","","","NaN",""
"","S1","","html-keyboard-response","153","231459","0.0-1.0-209.0","0","0","21375","","null","","","null","23","","","","","","","","","","","","","","","",""
"","ISI","","html-keyboard-response","154","233463","0.0-1.0-210.0","0","0","21375","","null","","","null","23","NaN","","","","","","","","","","","","","","",""
"","S2","","html-keyboard-response","155","233617","0.0-1.0-211.0","0","0","21375","","null","","","null","23","","NaN","","","","","","","","","","","","","",""
"","response","","html-keyboard-response","156","233804","0.0-1.0-212.0-0.0","0","0","21375","","185","","","75","23","","","1","23","training","adjacent","BC","2","3","R.jpg","M.jpg","1","1","1","",""
"","feedback","","html-keyboard-response","157","234808","0.0-1.0-213.0-0.0","0","0","21375","","null","","","null","23","","","","","","","","","","","","","","","",""
"","ITI","","html-keyboard-response","158","235811","0.0-1.0-216.0","0","0","21375","","null","","","null","23","","","","","","","","","","","","","","","NaN",""
"","S1","","html-keyboard-response","159","235966","0.0-1.0-218.0","0","0","21375","","null","","","null","24","","","","","","","","","","","","","","","",""
"","ISI","","html-keyboard-response","160","237969","0.0-1.0-219.0","0","0","21375","","null","","","null","24","NaN","","","","","","","","","","","","","","",""
"","S2","","html-keyboard-response","161","238123","0.0-1.0-220.0","0","0","21375","","null","","","null","24","","NaN","","","","","","","","","","","","","",""
"","response","","html-keyboard-response","162","238447","0.0-1.0-221.0-0.0","0","0","21375","","319","","","75","24","","","1","24","training","adjacent","CB","3","2","M.jpg","R.jpg","1","0","0","",""
"","feedback","","html-keyboard-response","163","239452","0.0-1.0-222.0-0.0","0","0","21375","","null","","","null","24","","","","","","","","","","","","","","","",""
"","time_out","","html-keyboard-response","164","241469","0.0-1.0-224.0-0.0","0","0","21375","","null","","","null","24","","","","","","","","","","","","","","","",""
"","ITI","","html-keyboard-response","165","242472","0.0-1.0-225.0","0","0","21375","","null","","","null","24","","","","","","","","","","","","","","","NaN",""
"","S1","","html-keyboard-response","166","242627","0.0-1.0-227.0","0","0","21375","","null","","","null","25","","","","","","","","","","","","","","","",""
"","ISI","","html-keyboard-response","167","244631","0.0-1.0-228.0","0","0","21375","","null","","","null","25","NaN","","","","","","","","","","","","","","",""
"","S2","","html-keyboard-response","168","244794","0.0-1.0-229.0","0","0","21375","","null","","","null","25","","NaN","","","","","","","","","","","","","",""
"","response","","html-keyboard-response","169","244889","0.0-1.0-230.0-0.0","0","0","21375","","92","","","75","25","","","1","25","training","adjacent","BA","2","1","R.jpg","O.jpg","1","0","0","",""
"","feedback","","html-keyboard-response","170","245894","0.0-1.0-231.0-0.0","0","0","21375","","null","","","null","25","","","","","","","","","","","","","","","",""
"","time_out","","html-keyboard-response","171","247897","0.0-1.0-233.0-0.0","0","0","21375","","null","","","null","25","","","","","","","","","","","","","","","",""
"","ITI","","html-keyboard-response","172","248900","0.0-1.0-234.0","0","0","21375","","null","","","null","25","","","","","","","","","","","","","","","NaN",""
"","S1","","html-keyboard-response","173","249055","0.0-1.0-236.0","0","0","21375","","null","","","null","26","","","","","","","","","","","","","","","",""
"","ISI","","html-keyboard-response","174","251059","0.0-1.0-237.0","0","0","21375","","null","","","null","26","NaN","","","","","","","","","","","","","","",""
"","S2","","html-keyboard-response","175","251213","0.0-1.0-238.0","0","0","21375","","null","","","null","26","","NaN","","","","","","","","","","","","","",""
"","response","","html-keyboard-response","176","251859","0.0-1.0-239.0-0.0","0","0","21375","","643","","","68","26","","","1","26","training","adjacent","BA","2","1","R.jpg","O.jpg","0","0","1","",""
"","feedback","","html-keyboard-response","177","252862","0.0-1.0-240.0-0.0","0","0","21375","","null","","","null","26","","","","","","","","","","","","","","","",""
"","ITI","","html-keyboard-response","178","253866","0.0-1.0-243.0","0","0","21375","","null","","","null","26","","","","","","","","","","","","","","","NaN",""
"","S1","","html-keyboard-response","179","254021","0.0-1.0-245.0","0","0","21375","","null","","","null","27","","","","","","","","","","","","","","","",""
"","ISI","","html-keyboard-response","180","256024","0.0-1.0-246.0","0","0","21375","","null","","","null","27","NaN","","","","","","","","","","","","","","",""
"","S2","","html-keyboard-response","181","256180","0.0-1.0-247.0","0","0","21375","","null","","","null","27","","NaN","","","","","","","","","","","","","",""
"","response","","html-keyboard-response","182","256977","0.0-1.0-248.0-0.0","0","0","21375","","793","","","68","27","","","1","27","training","adjacent","GF","7","6","L.jpg","P.jpg","0","0","1","",""
"","feedback","","html-keyboard-response","183","257981","0.0-1.0-249.0-0.0","0","0","21375","","null","","","null","27","","","","","","","","","","","","","","","",""
"","ITI","","html-keyboard-response","184","258986","0.0-1.0-252.0","0","0","21375","","null","","","null","27","","","","","","","","","","","","","","","NaN",""
"","S1","","html-keyboard-response","185","259140","0.0-1.0-254.0","0","0","21375","","null","","","null","28","","","","","","","","","","","","","","","",""
"","ISI","","html-keyboard-response","186","261143","0.0-1.0-255.0","0","0","21375","","null","","","null","28","NaN","","","","","","","","","","","","","","",""
"","S2","","html-keyboard-response","187","261298","0.0-1.0-256.0","0","0","21375","","null","","","null","28","","NaN","","","","","","","","","","","","","",""
"","response","","html-keyboard-response","188","261720","0.0-1.0-257.0-0.0","0","0","21375","","419","","","75","28","","","1","28","training","adjacent","ED","5","4","Q.jpg","N.jpg","1","0","0","",""
"","feedback","","html-keyboard-response","189","262724","0.0-1.0-258.0-0.0","0","0","21375","","null","","","null","28","","","","","","","","","","","","","","","",""
"","time_out","","html-keyboard-response","190","264727","0.0-1.0-260.0-0.0","0","0","21375","","null","","","null","28","","","","","","","","","","","","","","","",""
"","ITI","","html-keyboard-response","191","265730","0.0-1.0-261.0","0","0","21375","","null","","","null","28","","","","","","","","","","","","","","","NaN",""
"","S1","","html-keyboard-response","192","265885","0.0-1.0-263.0","0","0","21375","","null","","","null","29","","","","","","","","","","","","","","","",""
"","ISI","","html-keyboard-response","193","267890","0.0-1.0-264.0","0","0","21375","","null","","","null","29","NaN","","","","","","","","","","","","","","",""
"","S2","","html-keyboard-response","194","268044","0.0-1.0-265.0","0","0","21375","","null","","","null","29","","NaN","","","","","","","","","","","","","",""
"","response","","html-keyboard-response","195","268232","0.0-1.0-266.0-0.0","0","0","21375","","185","","","75","29","","","1","29","training","adjacent","AB","1","2","O.jpg","R.jpg","1","1","1","",""
"","feedback","","html-keyboard-response","196","269237","0.0-1.0-267.0-0.0","0","0","21375","","null","","","null","29","","","","","","","","","","","","","","","",""
"","ITI","","html-keyboard-response","197","270241","0.0-1.0-270.0","0","0","21375","","null","","","null","29","","","","","","","","","","","","","","","NaN",""
"","S1","","html-keyboard-response","198","270395","0.0-1.0-272.0","0","0","21375","","null","","","null","30","","","","","","","","","","","","","","","",""
"","ISI","","html-keyboard-response","199","272399","0.0-1.0-273.0","0","0","21375","","null","","","null","30","NaN","","","","","","","","","","","","","","",""
"","S2","","html-keyboard-response","200","272553","0.0-1.0-274.0","0","0","21375","","null","","","null","30","","NaN","","","","","","","","","","","","","",""
"","response","","html-keyboard-response","201","272992","0.0-1.0-275.0-0.0","0","0","21375","","436","","","68","30","","","1","30","training","adjacent","FG","6","7","P.jpg","L.jpg","0","1","0","",""
"","feedback","","html-keyboard-response","202","273997","0.0-1.0-276.0-0.0","0","0","21375","","null","","","null","30","","","","","","","","","","","","","","","",""
"","time_out","","html-keyboard-response","203","276001","0.0-1.0-278.0-0.0","0","0","21375","","null","","","null","30","","","","","","","","","","","","","","","",""
"","ITI","","html-keyboard-response","204","277005","0.0-1.0-279.0","0","0","21375","","null","","","null","30","","","","","","","","","","","","","","","NaN",""
"","S1","","html-keyboard-response","205","277159","0.0-1.0-281.0","0","0","21375","","null","","","null","31","","","","","","","","","","","","","","","",""
"","ISI","","html-keyboard-response","206","279163","0.0-1.0-282.0","0","0","21375","","null","","","null","31","NaN","","","","","","","","","","","","","","",""
"","S2","","html-keyboard-response","207","279318","0.0-1.0-283.0","0","0","21375","","null","","","null","31","","NaN","","","","","","","","","","","","","",""
"","response","","html-keyboard-response","208","281172","0.0-1.0-284.0-0.0","0","0","21375","","null","","","null","31","","","1","31","training","adjacent","ED","5","4","Q.jpg","N.jpg","NaN","0","0","",""
"","too_slow_prompt","","html-keyboard-response","209","282177","0.0-1.0-286.0-0.0","1","0","21375","","null","","","null","","","","","","","","","","","","","","","","",""
"","time_out","","html-keyboard-response","210","284181","0.0-1.0-287.0-0.0","0","0","21375","","null","","","null","31","","","","","","","","","","","","","","","",""
"","ITI","","html-keyboard-response","211","285185","0.0-1.0-288.0","0","0","21375","","null","","","null","31","","","","","","","","","","","","","","","NaN",""
"","S1","","html-keyboard-response","212","285339","0.0-1.0-290.0","0","0","21375","","null","","","null","32","","","","","","","","","","","","","","","",""
"","ISI","","html-keyboard-response","213","287344","0.0-1.0-291.0","0","0","21375","","null","","","null","32","NaN","","","","","","","","","","","","","","",""
"","S2","","html-keyboard-response","214","287499","0.0-1.0-292.0","0","0","21375","","null","","","null","32","","NaN","","","","","","","","","","","","","",""
"","response","","html-keyboard-response","215","287834","0.0-1.0-293.0-0.0","0","0","21375","","331","","","68","32","","","1","32","training","adjacent","FE","6","5","P.jpg","Q.jpg","0","0","1","",""
"","feedback","","html-keyboard-response","216","288839","0.0-1.0-294.0-0.0","0","0","21375","","null","","","null","32","","","","","","","","","","","","","","","",""
"","ITI","","html-keyboard-response","217","289842","0.0-1.0-297.0","0","0","21375","","null","","","null","32","","","","","","","","","","","","","","","NaN",""
"","S1","","html-keyboard-response","218","289996","0.0-1.0-299.0","0","0","21375","","null","","","null","33","","","","","","","","","","","","","","","",""
"","ISI","","html-keyboard-response","219","292000","0.0-1.0-300.0","0","0","21375","","null","","","null","33","NaN","","","","","","","","","","","","","","",""
"","S2","","html-keyboard-response","220","292154","0.0-1.0-301.0","0","0","21375","","null","","","null","33","","NaN","","","","","","","","","","","","","",""
"","response","","html-keyboard-response","221","292530","0.0-1.0-302.0-0.0","0","0","21375","","372","","","75","33","","","1","33","training","adjacent","ED","5","4","Q.jpg","N.jpg","1","0","0","",""
"","feedback","","html-keyboard-response","222","293534","0.0-1.0-303.0-0.0","0","0","21375","","null","","","null","33","","","","","","","","","","","","","","","",""
"","time_out","","html-keyboard-response","223","295537","0.0-1.0-305.0-0.0","0","0","21375","","null","","","null","33","","","","","","","","","","","","","","","",""
"","ITI","","html-keyboard-response","224","296541","0.0-1.0-306.0","0","0","21375","","null","","","null","33","","","","","","","","","","","","","","","NaN",""
"","S1","","html-keyboard-response","225","296707","0.0-1.0-308.0","0","0","21375","","null","","","null","34","","","","","","","","","","","","","","","",""
"","ISI","","html-keyboard-response","226","298710","0.0-1.0-309.0","0","0","21375","","null","","","null","34","NaN","","","","","","","","","","","","","","",""
"","S2","","html-keyboard-response","227","298865","0.0-1.0-310.0","0","0","21375","","null","","","null","34","","NaN","","","","","","","","","","","","","",""
"","response","","html-keyboard-response","228","298992","0.0-1.0-311.0-0.0","0","0","21375","","124","","","68","34","","","1","34","training","adjacent","CB","3","2","M.jpg","R.jpg","0","0","1","",""
"","feedback","","html-keyboard-response","229","300009","0.0-1.0-312.0-0.0","0","0","21375","","null","","","null","34","","","","","","","","","","","","","","","",""
"","ITI","","html-keyboard-response","230","301028","0.0-1.0-315.0","0","0","21375","","null","","","null","34","","","","","","","","","","","","","","","NaN",""
"","S1","","html-keyboard-response","231","301182","0.0-1.0-317.0","0","0","21375","","null","","","null","35","","","","","","","","","","","","","","","",""
"","ISI","","html-keyboard-response","232","303185","0.0-1.0-318.0","0","0","21375","","null","","","null","35","NaN","","","","","","","","","","","","","","",""
"","S2","","html-keyboard-response","233","303340","0.0-1.0-319.0","0","0","21375","","null","","","null","35","","NaN","","","","","","","","","","","","","",""
"","response","","html-keyboard-response","234","303636","0.0-1.0-320.0-0.0","0","0","21375","","294","","","68","35","","","1","35","training","adjacent","DC","4","3","N.jpg","M.jpg","0","0","1","",""
"","feedback","","html-keyboard-response","235","304641","0.0-1.0-321.0-0.0","0","0","21375","","null","","","null","35","","","","","","","","","","","","","","","",""
"","ITI","","html-keyboard-response","236","305644","0.0-1.0-324.0","0","0","21375","","null","","","null","35","","","","","","","","","","","","","","","NaN",""
"","S1","","html-keyboard-response","237","305799","0.0-1.0-326.0","0","0","21375","","null","","","null","36","","","","","","","","","","","","","","","",""
"","ISI","","html-keyboard-response","238","307803","0.0-1.0-327.0","0","0","21375","","null","","","null","36","NaN","","","","","","","","","","","","","","",""
"","S2","","html-keyboard-response","239","307958","0.0-1.0-328.0","0","0","21375","","null","","","null","36","","NaN","","","","","","","","","","","","","",""
"","response","","html-keyboard-response","240","308097","0.0-1.0-329.0-0.0","0","0","21375","","135","","","75","36","","","1","36","training","adjacent","BA","2","1","R.jpg","O.jpg","1","0","0","",""
"","feedback","","html-keyboard-response","241","309101","0.0-1.0-330.0-0.0","0","0","21375","","null","","","null","36","","","","","","","","","","","","","","","",""
"","time_out","","html-keyboard-response","242","311103","0.0-1.0-332.0-0.0","0","0","21375","","null","","","null","36","","","","","","","","","","","","","","","",""
"","ITI","","html-keyboard-response","243","312107","0.0-1.0-333.0","0","0","21375","","null","","","null","36","","","","","","","","","","","","","","","NaN",""
"","S1","","html-keyboard-response","244","312261","0.0-1.0-335.0","0","0","21375","","null","","","null","37","","","","","","","","","","","","","","","",""
"","ISI","","html-keyboard-response","245","314264","0.0-1.0-336.0","0","0","21375","","null","","","null","37","NaN","","","","","","","","","","","","","","",""
"","S2","","html-keyboard-response","246","314418","0.0-1.0-337.0","0","0","21375","","null","","","null","37","","NaN","","","","","","","","","","","","","",""
"","response","","html-keyboard-response","247","314529","0.0-1.0-338.0-0.0","0","0","21375","","109","","","75","37","","","1","37","training","adjacent","DC","4","3","N.jpg","M.jpg","1","0","0","",""
"","feedback","","html-keyboard-response","248","315532","0.0-1.0-339.0-0.0","0","0","21375","","null","","","null","37","","","","","","","","","","","","","","","",""
"","time_out","","html-keyboard-response","249","317536","0.0-1.0-341.0-0.0","0","0","21375","","null","","","null","37","","","","","","","","","","","","","","","",""
"","ITI","","html-keyboard-response","250","318540","0.0-1.0-342.0","0","0","21375","","null","","","null","37","","","","","","","","","","","","","","","NaN",""
"","S1","","html-keyboard-response","251","318694","0.0-1.0-344.0","0","0","21375","","null","","","null","38","","","","","","","","","","","","","","","",""
"","ISI","","html-keyboard-response","252","320698","0.0-1.0-345.0","0","0","21375","","null","","","null","38","NaN","","","","","","","","","","","","","","",""
"","S2","","html-keyboard-response","253","320852","0.0-1.0-346.0","0","0","21375","","null","","","null","38","","NaN","","","","","","","","","","","","","",""
"","response","","html-keyboard-response","254","320990","0.0-1.0-347.0-0.0","0","0","21375","","133","","","75","38","","","1","38","training","adjacent","DE","4","5","N.jpg","Q.jpg","1","1","1","",""
"","feedback","","html-keyboard-response","255","321995","0.0-1.0-348.0-0.0","0","0","21375","","null","","","null","38","","","","","","","","","","","","","","","",""
"","ITI","","html-keyboard-response","256","322999","0.0-1.0-351.0","0","0","21375","","null","","","null","38","","","","","","","","","","","","","","","NaN",""
"","S1","","html-keyboard-response","257","323154","0.0-1.0-353.0","0","0","21375","","null","","","null","39","","","","","","","","","","","","","","","",""
"","ISI","","html-keyboard-response","258","325158","0.0-1.0-354.0","0","0","21375","","null","","","null","39","NaN","","","","","","","","","","","","","","",""
"","S2","","html-keyboard-response","259","325312","0.0-1.0-355.0","0","0","21375","","null","","","null","39","","NaN","","","","","","","","","","","","","",""
"","response","","html-keyboard-response","260","325401","0.0-1.0-356.0-0.0","0","0","21375","","85","","","68","39","","","1","39","training","adjacent","GF","7","6","L.jpg","P.jpg","0","0","1","",""
"","feedback","","html-keyboard-response","261","326405","0.0-1.0-357.0-0.0","0","0","21375","","null","","","null","39","","","","","","","","","","","","","","","",""
"","ITI","","html-keyboard-response","262","327410","0.0-1.0-360.0","0","0","21375","","null","","","null","39","","","","","","","","","","","","","","","NaN",""
"","S1","","html-keyboard-response","263","327565","0.0-1.0-362.0","0","0","21375","","null","","","null","40","","","","","","","","","","","","","","","",""
"","ISI","","html-keyboard-response","264","329568","0.0-1.0-363.0","0","0","21375","","null","","","null","40","NaN","","","","","","","","","","","","","","",""
"","S2","","html-keyboard-response","265","329723","0.0-1.0-364.0","0","0","21375","","null","","","null","40","","NaN","","","","","","","","","","","","","",""
"","response","","html-keyboard-response","266","329908","0.0-1.0-365.0-0.0","0","0","21375","","182","","","68","40","","","1","40","training","adjacent","CD","3","4","M.jpg","N.jpg","0","1","0","",""
"","feedback","","html-keyboard-response","267","330913","0.0-1.0-366.0-0.0","0","0","21375","","null","","","null","40","","","","","","","","","","","","","","","",""
"","time_out","","html-keyboard-response","268","332915","0.0-1.0-368.0-0.0","0","0","21375","","null","","","null","40","","","","","","","","","","","","","","","",""
"","ITI","","html-keyboard-response","269","333918","0.0-1.0-369.0","0","0","21375","","null","","","null","40","","","","","","","","","","","","","","","NaN",""
"","S1","","html-keyboard-response","270","334072","0.0-1.0-371.0","0","0","21375","","null","","","null","41","","","","","","","","","","","","","","","",""
"","ISI","","html-keyboard-response","271","336076","0.0-1.0-372.0","0","0","21375","","null","","","null","41","NaN","","","","","","","","","","","","","","",""
"","S2","","html-keyboard-response","272","336230","0.0-1.0-373.0","0","0","21375","","null","","","null","41","","NaN","","","","","","","","","","","","","",""
"","response","","html-keyboard-response","273","336537","0.0-1.0-374.0-0.0","0","0","21375","","303","","","68","41","","","1","41","training","adjacent","FE","6","5","P.jpg","Q.jpg","0","0","1","",""
"","feedback","","html-keyboard-response","274","337542","0.0-1.0-375.0-0.0","0","0","21375","","null","","","null","41","","","","","","","","","","","","","","","",""
"","ITI","","html-keyboard-response","275","338546","0.0-1.0-378.0","0","0","21375","","null","","","null","41","","","","","","","","","","","","","","","NaN",""
"","S1","","html-keyboard-response","276","338700","0.0-1.0-380.0","0","0","21375","","null","","","null","42","","","","","","","","","","","","","","","",""
"","ISI","","html-keyboard-response","277","340704","0.0-1.0-381.0","0","0","21375","","null","","","null","42","NaN","","","","","","","","","","","","","","",""
"","S2","","html-keyboard-response","278","340858","0.0-1.0-382.0","0","0","21375","","null","","","null","42","","NaN","","","","","","","","","","","","","",""
"","response","","html-keyboard-response","279","341197","0.0-1.0-383.0-0.0","0","0","21375","","336","","","75","42","","","1","42","training","adjacent","DC","4","3","N.jpg","M.jpg","1","0","0","",""
"","feedback","","html-keyboard-response","280","342202","0.0-1.0-384.0-0.0","0","0","21375","","null","","","null","42","","","","","","","","","","","","","","","",""
"","time_out","","html-keyboard-response","281","344207","0.0-1.0-386.0-0.0","0","0","21375","","null","","","null","42","","","","","","","","","","","","","","","",""
"","ITI","","html-keyboard-response","282","345210","0.0-1.0-387.0","0","0","21375","","null","","","null","42","","","","","","","","","","","","","","","NaN",""
"","S1","","html-keyboard-response","283","345365","0.0-1.0-389.0","0","0","21375","","null","","","null","43","","","","","","","","","","","","","","","",""
"","ISI","","html-keyboard-response","284","347369","0.0-1.0-390.0","0","0","21375","","null","","","null","43","NaN","","","","","","","","","","","","","","",""
"","S2","","html-keyboard-response","285","347523","0.0-1.0-391.0","0","0","21375","","null","","","null","43","","NaN","","","","","","","","","","","","","",""
"","response","","html-keyboard-response","286","347895","0.0-1.0-392.0-0.0","0","0","21375","","368","","","68","43","","","1","43","training","adjacent","DE","4","5","N.jpg","Q.jpg","0","1","0","",""
"","feedback","","html-keyboard-response","287","348900","0.0-1.0-393.0-0.0","0","0","21375","","null","","","null","43","","","","","","","","","","","","","","","",""
"","time_out","","html-keyboard-response","288","350904","0.0-1.0-395.0-0.0","0","0","21375","","null","","","null","43","","","","","","","","","","","","","","","",""
"","ITI","","html-keyboard-response","289","351908","0.0-1.0-396.0","0","0","21375","","null","","","null","43","","","","","","","","","","","","","","","NaN",""
"","S1","","html-keyboard-response","290","352063","0.0-1.0-398.0","0","0","21375","","null","","","null","44","","","","","","","","","","","","","","","",""
"","ISI","","html-keyboard-response","291","354068","0.0-1.0-399.0","0","0","21375","","null","","","null","44","NaN","","","","","","","","","","","","","","",""
"","S2","","html-keyboard-response","292","354222","0.0-1.0-400.0","0","0","21375","","null","","","null","44","","NaN","","","","","","","","","","","","","",""
"","response","","html-keyboard-response","293","354683","0.0-1.0-401.0-0.0","0","0","21375","","457","","","68","44","","","1","44","training","adjacent","CB","3","2","M.jpg","R.jpg","0","0","1","",""
"","feedback","","html-keyboard-response","294","355688","0.0-1.0-402.0-0.0","0","0","21375","","null","","","null","44","","","","","","","","","","","","","","","",""
"","ITI","","html-keyboard-response","295","356695","0.0-1.0-405.0","0","0","21375","","null","","","null","44","","","","","","","","","","","","","","","NaN",""
"","S1","","html-keyboard-response","296","356849","0.0-1.0-407.0","0","0","21375","","null","","","null","45","","","","","","","","","","","","","","","",""
"","ISI","","html-keyboard-response","297","358853","0.0-1.0-408.0","0","0","21375","","null","","","null","45","NaN","","","","","","","","","","","","","","",""
"","S2","","html-keyboard-response","298","359007","0.0-1.0-409.0","0","0","21375","","null","","","null","45","","NaN","","","","","","","","","","","","","",""
"","response","","html-keyboard-response","299","359432","0.0-1.0-410.0-0.0","0","0","21375","","421","","","75","45","","","1","45","training","adjacent","AB","1","2","O.jpg","R.jpg","1","1","1","",""
"","feedback","","html-keyboard-response","300","360435","0.0-1.0-411.0-0.0","0","0","21375","","null","","","null","45","","","","","","","","","","","","","","","",""
"","ITI","","html-keyboard-response","301","361439","0.0-1.0-414.0","0","0","21375","","null","","","null","45","","","","","","","","","","","","","","","NaN",""
"","S1","","html-keyboard-response","302","361591","0.0-1.0-416.0","0","0","21375","","null","","","null","46","","","","","","","","","","","","","","","",""
"","ISI","","html-keyboard-response","303","363595","0.0-1.0-417.0","0","0","21375","","null","","","null","46","NaN","","","","","","","","","","","","","","",""
"","S2","","html-keyboard-response","304","363750","0.0-1.0-418.0","0","0","21375","","null","","","null","46","","NaN","","","","","","","","","","","","","",""
"","response","","html-keyboard-response","305","364174","0.0-1.0-419.0-0.0","0","0","21375","","420","","","68","46","","","1","46","training","adjacent","DE","4","5","N.jpg","Q.jpg","0","1","0","",""
"","feedback","","html-keyboard-response","306","365178","0.0-1.0-420.0-0.0","0","0","21375","","null","","","null","46","","","","","","","","","","","","","","","",""
"","time_out","","html-keyboard-response","307","367183","0.0-1.0-422.0-0.0","0","0","21375","","null","","","null","46","","","","","","","","","","","","","","","",""
"","ITI","","html-keyboard-response","308","368186","0.0-1.0-423.0","0","0","21375","","null","","","null","46","","","","","","","","","","","","","","","NaN",""
"","S1","","html-keyboard-response","309","368340","0.0-1.0-425.0","0","0","21375","","null","","","null","47","","","","","","","","","","","","","","","",""
"","ISI","","html-keyboard-response","310","370344","0.0-1.0-426.0","0","0","21375","","null","","","null","47","NaN","","","","","","","","","","","","","","",""
"","S2","","html-keyboard-response","311","370500","0.0-1.0-427.0","0","0","21375","","null","","","null","47","","NaN","","","","","","","","","","","","","",""
"","response","","html-keyboard-response","312","370995","0.0-1.0-428.0-0.0","0","0","21375","","491","","","75","47","","","1","47","training","adjacent","FE","6","5","P.jpg","Q.jpg","1","0","0","",""
"","feedback","","html-keyboard-response","313","371998","0.0-1.0-429.0-0.0","0","0","21375","","null","","","null","47","","","","","","","","","","","","","","","",""
"","time_out","","html-keyboard-response","314","374002","0.0-1.0-431.0-0.0","0","0","21375","","null","","","null","47","","","","","","","","","","","","","","","",""
"","ITI","","html-keyboard-response","315","375006","0.0-1.0-432.0","0","0","21375","","null","","","null","47","","","","","","","","","","","","","","","NaN",""
"","block_over","","html-keyboard-response","316","380438","0.0-1.0-433.0-0.0","0","0","21375","","5428","","","32","47","","","","","","","","","","","","","","","",""
"","S1","","html-keyboard-response","317","380592","0.0-1.0-434.0","0","0","21375","","null","","","null","48","","","","","","","","","","","","","","","",""
"","ISI","","html-keyboard-response","318","382595","0.0-1.0-435.0","0","0","21375","","null","","","null","48","NaN","","","","","","","","","","","","","","",""
"","S2","","html-keyboard-response","319","382750","0.0-1.0-436.0","0","0","21375","","null","","","null","48","","NaN","","","","","","","","","","","","","",""
"","response","","html-keyboard-response","320","383491","0.0-1.0-437.0-0.0","0","0","21375","","738","","","75","48","","","2","48","training","adjacent","DE","4","5","N.jpg","Q.jpg","1","1","1","",""
"","feedback","","html-keyboard-response","321","384496","0.0-1.0-438.0-0.0","0","0","21375","","null","","","null","48","","","","","","","","","","","","","","","",""
"","ITI","","html-keyboard-response","322","385501","0.0-1.0-441.0","0","0","21375","","null","","","null","48","","","","","","","","","","","","","","","NaN",""
"","S1","","html-keyboard-response","323","385655","0.0-1.0-443.0","0","0","21375","","null","","","null","49","","","","","","","","","","","","","","","",""
"","ISI","","html-keyboard-response","324","387658","0.0-1.0-444.0","0","0","21375","","null","","","null","49","NaN","","","","","","","","","","","","","","",""
"","S2","","html-keyboard-response","325","387812","0.0-1.0-445.0","0","0","21375","","null","","","null","49","","NaN","","","","","","","","","","","","","",""
"","response","","html-keyboard-response","326","388231","0.0-1.0-446.0-0.0","0","0","21375","","416","","","75","49","","","2","49","training","adjacent","BC","2","3","R.jpg","M.jpg","1","1","1","",""
"","feedback","","html-keyboard-response","327","389235","0.0-1.0-447.0-0.0","0","0","21375","","null","","","null","49","","","","","","","","","","","","","","","",""
"","ITI","","html-keyboard-response","328","390239","0.0-1.0-450.0","0","0","21375","","null","","","null","49","","","","","","","","","","","","","","","NaN",""
"","S1","","html-keyboard-response","329","390394","0.0-1.0-452.0","0","0","21375","","null","","","null","50","","","","","","","","","","","","","","","",""
"","ISI","","html-keyboard-response","330","392398","0.0-1.0-453.0","0","0","21375","","null","","","null","50","NaN","","","","","","","","","","","","","","",""
"","S2","","html-keyboard-response","331","392554","0.0-1.0-454.0","0","0","21375","","null","","","null","50","","NaN","","","","","","","","","","","","","",""
"","response","","html-keyboard-response","332","392995","0.0-1.0-455.0-0.0","0","0","21375","","439","","","68","50","","","2","50","training","adjacent","CD","3","4","M.jpg","N.jpg","0","1","0","",""
"","feedback","","html-keyboard-response","333","394000","0.0-1.0-456.0-0.0","0","0","21375","","null","","","null","50","","","","","","","","","","","","","","","",""
"","time_out","","html-keyboard-response","334","396004","0.0-1.0-458.0-0.0","0","0","21375","","null","","","null","50","","","","","","","","","","","","","","","",""
"","ITI","","html-keyboard-response","335","397009","0.0-1.0-459.0","0","0","21375","","null","","","null","50","","","","","","","","","","","","","","","NaN",""
"","S1","","html-keyboard-response","336","397163","0.0-1.0-461.0","0","0","21375","","null","","","null","51","","","","","","","","","","","","","","","",""
"","ISI","","html-keyboard-response","337","399167","0.0-1.0-462.0","0","0","21375","","null","","","null","51","NaN","","","","","","","","","","","","","","",""
"","S2","","html-keyboard-response","338","399321","0.0-1.0-463.0","0","0","21375","","null","","","null","51","","NaN","","","","","","","","","","","","","",""
"","response","","html-keyboard-response","339","399826","0.0-1.0-464.0-0.0","0","0","21375","","501","","","75","51","","","2","51","training","adjacent","DC","4","3","N.jpg","M.jpg","1","0","0","",""
"","feedback","","html-keyboard-response","340","400831","0.0-1.0-465.0-0.0","0","0","21375","","null","","","null","51","","","","","","","","","","","","","","","",""
"","time_out","","html-keyboard-response","341","402835","0.0-1.0-467.0-0.0","0","0","21375","","null","","","null","51","","","","","","","","","","","","","","","",""
"","ITI","","html-keyboard-response","342","403838","0.0-1.0-468.0","0","0","21375","","null","","","null","51","","","","","","","","","","","","","","","NaN",""
"","S1","","html-keyboard-response","343","403992","0.0-1.0-470.0","0","0","21375","","null","","","null","52","","","","","","","","","","","","","","","",""
"","ISI","","html-keyboard-response","344","405996","0.0-1.0-471.0","0","0","21375","","null","","","null","52","NaN","","","","","","","","","","","","","","",""
"","S2","","html-keyboard-response","345","406150","0.0-1.0-472.0","0","0","21375","","null","","","null","52","","NaN","","","","","","","","","","","","","",""
"","response","","html-keyboard-response","346","406712","0.0-1.0-473.0-0.0","0","0","21375","","558","","","68","52","","","2","52","training","adjacent","FE","6","5","P.jpg","Q.jpg","0","0","1","",""
"","feedback","","html-keyboard-response","347","407717","0.0-1.0-474.0-0.0","0","0","21375","","null","","","null","52","","","","","","","","","","","","","","","",""
"","ITI","","html-keyboard-response","348","408721","0.0-1.0-477.0","0","0","21375","","null","","","null","52","","","","","","","","","","","","","","","NaN",""
"","S1","","html-keyboard-response","349","408876","0.0-1.0-479.0","0","0","21375","","null","","","null","53","","","","","","","","","","","","","","","",""
"","ISI","","html-keyboard-response","350","410879","0.0-1.0-480.0","0","0","21375","","null","","","null","53","NaN","","","","","","","","","","","","","","",""
"","S2","","html-keyboard-response","351","411034","0.0-1.0-481.0","0","0","21375","","null","","","null","53","","NaN","","","","","","","","","","","","","",""
"","response","","html-keyboard-response","352","411467","0.0-1.0-482.0-0.0","0","0","21375","","429","","","68","53","","","2","53","training","adjacent","FE","6","5","P.jpg","Q.jpg","0","0","1","",""
"","feedback","","html-keyboard-response","353","412472","0.0-1.0-483.0-0.0","0","0","21375","","null","","","null","53","","","","","","","","","","","","","","","",""
"","ITI","","html-keyboard-response","354","413476","0.0-1.0-486.0","0","0","21375","","null","","","null","53","","","","","","","","","","","","","","","NaN",""
"","S1","","html-keyboard-response","355","413631","0.0-1.0-488.0","0","0","21375","","null","","","null","54","","","","","","","","","","","","","","","",""
"","ISI","","html-keyboard-response","356","415635","0.0-1.0-489.0","0","0","21375","","null","","","null","54","NaN","","","","","","","","","","","","","","",""
"","S2","","html-keyboard-response","357","415789","0.0-1.0-490.0","0","0","21375","","null","","","null","54","","NaN","","","","","","","","","","","","","",""
"","response","","html-keyboard-response","358","416128","0.0-1.0-491.0-0.0","0","0","21375","","335","","","75","54","","","2","54","training","adjacent","FG","6","7","P.jpg","L.jpg","1","1","1","",""
"","feedback","","html-keyboard-response","359","417132","0.0-1.0-492.0-0.0","0","0","21375","","null","","","null","54","","","","","","","","","","","","","","","",""
"","ITI","","html-keyboard-response","360","418138","0.0-1.0-495.0","0","0","21375","","null","","","null","54","","","","","","","","","","","","","","","NaN",""
"","S1","","html-keyboard-response","361","418293","0.0-1.0-497.0","0","0","21375","","null","","","null","55","","","","","","","","","","","","","","","",""
"","ISI","","html-keyboard-response","362","420297","0.0-1.0-498.0","0","0","21375","","null","","","null","55","NaN","","","","","","","","","","","","","","",""
"","S2","","html-keyboard-response","363","420451","0.0-1.0-499.0","0","0","21375","","null","","","null","55","","NaN","","","","","","","","","","","","","",""
"","response","","html-keyboard-response","364","420815","0.0-1.0-500.0-0.0","0","0","21375","","361","","","75","55","","","2","55","training","adjacent","AB","1","2","O.jpg","R.jpg","1","1","1","",""
"","feedback","","html-keyboard-response","365","421826","0.0-1.0-501.0-0.0","0","0","21375","","null","","","null","55","","","","","","","","","","","","","","","",""
"","ITI","","html-keyboard-response","366","422830","0.0-1.0-504.0","0","0","21375","","null","","","null","55","","","","","","","","","","","","","","","NaN",""
"","S1","","html-keyboard-response","367","422983","0.0-1.0-506.0","0","0","21375","","null","","","null","56","","","","","","","","","","","","","","","",""
"","ISI","","html-keyboard-response","368","424987","0.0-1.0-507.0","0","0","21375","","null","","","null","56","NaN","","","","","","","","","","","","","","",""
"","S2","","html-keyboard-response","369","425143","0.0-1.0-508.0","0","0","21375","","null","","","null","56","","NaN","","","","","","","","","","","","","",""
"","response","","html-keyboard-response","370","425757","0.0-1.0-509.0-0.0","0","0","21375","","610","","","75","56","","","2","56","training","adjacent","FE","6","5","P.jpg","Q.jpg","1","0","0","",""
"","feedback","","html-keyboard-response","371","426762","0.0-1.0-510.0-0.0","0","0","21375","","null","","","null","56","","","","","","","","","","","","","","","",""
"","time_out","","html-keyboard-response","372","428766","0.0-1.0-512.0-0.0","0","0","21375","","null","","","null","56","","","","","","","","","","","","","","","",""
"","ITI","","html-keyboard-response","373","429769","0.0-1.0-513.0","0","0","21375","","null","","","null","56","","","","","","","","","","","","","","","NaN",""
"","S1","","html-keyboard-response","374","429923","0.0-1.0-515.0","0","0","21375","","null","","","null","57","","","","","","","","","","","","","","","",""
"","ISI","","html-keyboard-response","375","431928","0.0-1.0-516.0","0","0","21375","","null","","","null","57","NaN","","","","","","","","","","","","","","",""
"","S2","","html-keyboard-response","376","432082","0.0-1.0-517.0","0","0","21375","","null","","","null","57","","NaN","","","","","","","","","","","","","",""
"","response","","html-keyboard-response","377","432613","0.0-1.0-518.0-0.0","0","0","21375","","528","","","75","57","","","2","57","training","adjacent","BA","2","1","R.jpg","O.jpg","1","0","0","",""
"","feedback","","html-keyboard-response","378","433618","0.0-1.0-519.0-0.0","0","0","21375","","null","","","null","57","","","","","","","","","","","","","","","",""
"","time_out","","html-keyboard-response","379","435622","0.0-1.0-521.0-0.0","0","0","21375","","null","","","null","57","","","","","","","","","","","","","","","",""
"","ITI","","html-keyboard-response","380","436625","0.0-1.0-522.0","0","0","21375","","null","","","null","57","","","","","","","","","","","","","","","NaN",""
"","S1","","html-keyboard-response","381","436779","0.0-1.0-524.0","0","0","21375","","null","","","null","58","","","","","","","","","","","","","","","",""
"","ISI","","html-keyboard-response","382","438784","0.0-1.0-525.0","0","0","21375","","null","","","null","58","NaN","","","","","","","","","","","","","","",""
"","S2","","html-keyboard-response","383","438939","0.0-1.0-526.0","0","0","21375","","null","","","null","58","","NaN","","","","","","","","","","","","","",""
"","response","","html-keyboard-response","384","439276","0.0-1.0-527.0-0.0","0","0","21375","","334","","","75","58","","","2","58","training","adjacent","BA","2","1","R.jpg","O.jpg","1","0","0","",""
"","feedback","","html-keyboard-response","385","440280","0.0-1.0-528.0-0.0","0","0","21375","","null","","","null","58","","","","","","","","","","","","","","","",""
"","time_out","","html-keyboard-response","386","442284","0.0-1.0-530.0-0.0","0","0","21375","","null","","","null","58","","","","","","","","","","","","","","","",""
"","ITI","","html-keyboard-response","387","443289","0.0-1.0-531.0","0","0","21375","","null","","","null","58","","","","","","","","","","","","","","","NaN",""
"","S1","","html-keyboard-response","388","443444","0.0-1.0-533.0","0","0","21375","","null","","","null","59","","","","","","","","","","","","","","","",""
"","ISI","","html-keyboard-response","389","445449","0.0-1.0-534.0","0","0","21375","","null","","","null","59","NaN","","","","","","","","","","","","","","",""
"","S2","","html-keyboard-response","390","445604","0.0-1.0-535.0","0","0","21375","","null","","","null","59","","NaN","","","","","","","","","","","","","",""
"","response","","html-keyboard-response","391","445948","0.0-1.0-536.0-0.0","0","0","21375","","340","","","68","59","","","2","59","training","adjacent","DC","4","3","N.jpg","M.jpg","0","0","1","",""
"","feedback","","html-keyboard-response","392","446953","0.0-1.0-537.0-0.0","0","0","21375","","null","","","null","59","","","","","","","","","","","","","","","",""
"","ITI","","html-keyboard-response","393","447969","0.0-1.0-540.0","0","0","21375","","null","","","null","59","","","","","","","","","","","","","","","NaN",""
"","S1","","html-keyboard-response","394","448124","0.0-1.0-542.0","0","0","21375","","null","","","null","60","","","","","","","","","","","","","","","",""
"","ISI","","html-keyboard-response","395","450129","0.0-1.0-543.0","0","0","21375","","null","","","null","60","NaN","","","","","","","","","","","","","","",""
"","S2","","html-keyboard-response","396","450283","0.0-1.0-544.0","0","0","21375","","null","","","null","60","","NaN","","","","","","","","","","","","","",""
"","response","","html-keyboard-response","397","450465","0.0-1.0-545.0-0.0","0","0","21375","","179","","","68","60","","","2","60","training","adjacent","EF","5","6","Q.jpg","P.jpg","0","1","0","",""
"","feedback","","html-keyboard-response","398","451470","0.0-1.0-546.0-0.0","0","0","21375","","null","","","null","60","","","","","","","","","","","","","","","",""
"","time_out","","html-keyboard-response","399","453475","0.0-1.0-548.0-0.0","0","0","21375","","null","","","null","60","","","","","","","","","","","","","","","",""
"","ITI","","html-keyboard-response","400","454478","0.0-1.0-549.0","0","0","21375","","null","","","null","60","","","","","","","","","","","","","","","NaN",""
"","S1","","html-keyboard-response","401","454632","0.0-1.0-551.0","0","0","21375","","null","","","null","61","","","","","","","","","","","","","","","",""
"","ISI","","html-keyboard-response","402","456634","0.0-1.0-552.0","0","0","21375","","null","","","null","61","NaN","","","","","","","","","","","","","","",""
"","S2","","html-keyboard-response","403","456789","0.0-1.0-553.0","0","0","21375","","null","","","null","61","","NaN","","","","","","","","","","","","","",""
"","response","","html-keyboard-response","404","456972","0.0-1.0-554.0-0.0","0","0","21375","","180","","","68","61","","","2","61","training","adjacent","DE","4","5","N.jpg","Q.jpg","0","1","0","",""
"","feedback","","html-keyboard-response","405","457977","0.0-1.0-555.0-0.0","0","0","21375","","null","","","null","61","","","","","","","","","","","","","","","",""
"","time_out","","html-keyboard-response","406","459982","0.0-1.0-557.0-0.0","0","0","21375","","null","","","null","61","","","","","","","","","","","","","","","",""
"","ITI","","html-keyboard-response","407","460986","0.0-1.0-558.0","0","0","21375","","null","","","null","61","","","","","","","","","","","","","","","NaN",""
"","S1","","html-keyboard-response","408","461140","0.0-1.0-560.0","0","0","21375","","null","","","null","62","","","","","","","","","","","","","","","",""
"","ISI","","html-keyboard-response","409","463144","0.0-1.0-561.0","0","0","21375","","null","","","null","62","NaN","","","","","","","","","","","","","","",""
"","S2","","html-keyboard-response","410","463298","0.0-1.0-562.0","0","0","21375","","null","","","null","62","","NaN","","","","","","","","","","","","","",""
"","response","","html-keyboard-response","411","463615","0.0-1.0-563.0-0.0","0","0","21375","","313","","","68","62","","","2","62","training","adjacent","GF","7","6","L.jpg","P.jpg","0","0","1","",""
"","feedback","","html-keyboard-response","412","464620","0.0-1.0-564.0-0.0","0","0","21375","","null","","","null","62","","","","","","","","","","","","","","","",""
"","ITI","","html-keyboard-response","413","465625","0.0-1.0-567.0","0","0","21375","","null","","","null","62","","","","","","","","","","","","","","","NaN",""
"","S1","","html-keyboard-response","414","465779","0.0-1.0-569.0","0","0","21375","","null","","","null","63","","","","","","","","","","","","","","","",""
"","ISI","","html-keyboard-response","415","467784","0.0-1.0-570.0","0","0","21375","","null","","","null","63","NaN","","","","","","","","","","","","","","",""
"","S2","","html-keyboard-response","416","467937","0.0-1.0-571.0","0","0","21375","","null","","","null","63","","NaN","","","","","","","","","","","","","",""
"","response","","html-keyboard-response","417","468210","0.0-1.0-572.0-0.0","0","0","21375","","270","","","75","63","","","2","63","training","adjacent","CB","3","2","M.jpg","R.jpg","1","0","0","",""
"","feedback","","html-keyboard-response","418","469215","0.0-1.0-573.0-0.0","0","0","21375","","null","","","null","63","","","","","","","","","","","","","","","",""
"","time_out","","html-keyboard-response","419","471219","0.0-1.0-575.0-0.0","0","0","21375","","null","","","null","63","","","","","","","","","","","","","","","",""
"","ITI","","html-keyboard-response","420","472223","0.0-1.0-576.0","0","0","21375","","null","","","null","63","","","","","","","","","","","","","","","NaN",""
"","S1","","html-keyboard-response","421","472377","0.0-1.0-578.0","0","0","21375","","null","","","null","64","","","","","","","","","","","","","","","",""
"","ISI","","html-keyboard-response","422","474381","0.0-1.0-579.0","0","0","21375","","null","","","null","64","NaN","","","","","","","","","","","","","","",""
"","S2","","html-keyboard-response","423","474535","0.0-1.0-580.0","0","0","21375","","null","","","null","64","","NaN","","","","","","","","","","","","","",""
"","response","","html-keyboard-response","424","474813","0.0-1.0-581.0-0.0","0","0","21375","","274","","","68","64","","","2","64","training","adjacent","FG","6","7","P.jpg","L.jpg","0","1","0","",""
"","feedback","","html-keyboard-response","425","475819","0.0-1.0-582.0-0.0","0","0","21375","","null","","","null","64","","","","","","","","","","","","","","","",""
"","time_out","","html-keyboard-response","426","477823","0.0-1.0-584.0-0.0","0","0","21375","","null","","","null","64","","","","","","","","","","","","","","","",""
"","ITI","","html-keyboard-response","427","478827","0.0-1.0-585.0","0","0","21375","","null","","","null","64","","","","","","","","","","","","","","","NaN",""
"","S1","","html-keyboard-response","428","478981","0.0-1.0-587.0","0","0","21375","","null","","","null","65","","","","","","","","","","","","","","","",""
"","ISI","","html-keyboard-response","429","480985","0.0-1.0-588.0","0","0","21375","","null","","","null","65","NaN","","","","","","","","","","","","","","",""
"","S2","","html-keyboard-response","430","481139","0.0-1.0-589.0","0","0","21375","","null","","","null","65","","NaN","","","","","","","","","","","","","",""
"","response","","html-keyboard-response","431","481608","0.0-1.0-590.0-0.0","0","0","21375","","465","","","75","65","","","2","65","training","adjacent","DC","4","3","N.jpg","M.jpg","1","0","0","",""
"","feedback","","html-keyboard-response","432","482613","0.0-1.0-591.0-0.0","0","0","21375","","null","","","null","65","","","","","","","","","","","","","","","",""
"","time_out","","html-keyboard-response","433","484617","0.0-1.0-593.0-0.0","0","0","21375","","null","","","null","65","","","","","","","","","","","","","","","",""
"","ITI","","html-keyboard-response","434","485620","0.0-1.0-594.0","0","0","21375","","null","","","null","65","","","","","","","","","","","","","","","NaN",""
"","S1","","html-keyboard-response","435","485780","0.0-1.0-596.0","0","0","21375","","null","","","null","66","","","","","","","","","","","","","","","",""
"","ISI","","html-keyboard-response","436","487784","0.0-1.0-597.0","0","0","21375","","null","","","null","66","NaN","","","","","","","","","","","","","","",""
"","S2","","html-keyboard-response","437","487937","0.0-1.0-598.0","0","0","21375","","null","","","null","66","","NaN","","","","","","","","","","","","","",""
"","response","","html-keyboard-response","438","488221","0.0-1.0-599.0-0.0","0","0","21375","","280","","","75","66","","","2","66","training","adjacent","EF","5","6","Q.jpg","P.jpg","1","1","1","",""
"","feedback","","html-keyboard-response","439","489226","0.0-1.0-600.0-0.0","0","0","21375","","null","","","null","66","","","","","","","","","","","","","","","",""
"","ITI","","html-keyboard-response","440","490230","0.0-1.0-603.0","0","0","21375","","null","","","null","66","","","","","","","","","","","","","","","NaN",""
"","S1","","html-keyboard-response","441","490384","0.0-1.0-605.0","0","0","21375","","null","","","null","67","","","","","","","","","","","","","","","",""
"","ISI","","html-keyboard-response","442","492388","0.0-1.0-606.0","0","0","21375","","null","","","null","67","NaN","","","","","","","","","","","","","","",""
"","S2","","html-keyboard-response","443","492541","0.0-1.0-607.0","0","0","21375","","null","","","null","67","","NaN","","","","","","","","","","","","","",""
"","response","","html-keyboard-response","444","492715","0.0-1.0-608.0-0.0","0","0","21375","","171","","","68","67","","","2","67","training","adjacent","CB","3","2","M.jpg","R.jpg","0","0","1","",""
"","feedback","","html-keyboard-response","445","493720","0.0-1.0-609.0-0.0","0","0","21375","","null","","","null","67","","","","","","","","","","","","","","","",""
"","ITI","","html-keyboard-response","446","494725","0.0-1.0-612.0","0","0","21375","","null","","","null","67","","","","","","","","","","","","","","","NaN",""
"","S1","","html-keyboard-response","447","494880","0.0-1.0-614.0","0","0","21375","","null","","","null","68","","","","","","","","","","","","","","","",""
"","ISI","","html-keyboard-response","448","496884","0.0-1.0-615.0","0","0","21375","","null","","","null","68","NaN","","","","","","","","","","","","","","",""
"","S2","","html-keyboard-response","449","497038","0.0-1.0-616.0","0","0","21375","","null","","","null","68","","NaN","","","","","","","","","","","","","",""
"","response","","html-keyboard-response","450","497111","0.0-1.0-617.0-0.0","0","0","21375","","69","","","68","68","","","2","68","training","adjacent","FG","6","7","P.jpg","L.jpg","0","1","0","",""
"","feedback","","html-keyboard-response","451","498115","0.0-1.0-618.0-0.0","0","0","21375","","null","","","null","68","","","","","","","","","","","","","","","",""
"","time_out","","html-keyboard-response","452","500120","0.0-1.0-620.0-0.0","0","0","21375","","null","","","null","68","","","","","","","","","","","","","","","",""
"","ITI","","html-keyboard-response","453","501122","0.0-1.0-621.0","0","0","21375","","null","","","null","68","","","","","","","","","","","","","","","NaN",""
"","S1","","html-keyboard-response","454","501275","0.0-1.0-623.0","0","0","21375","","null","","","null","69","","","","","","","","","","","","","","","",""
"","ISI","","html-keyboard-response","455","503279","0.0-1.0-624.0","0","0","21375","","null","","","null","69","NaN","","","","","","","","","","","","","","",""
"","S2","","html-keyboard-response","456","503433","0.0-1.0-625.0","0","0","21375","","null","","","null","69","","NaN","","","","","","","","","","","","","",""
"","response","","html-keyboard-response","457","503516","0.0-1.0-626.0-0.0","0","0","21375","","79","","","68","69","","","2","69","training","adjacent","DE","4","5","N.jpg","Q.jpg","0","1","0","",""
"","feedback","","html-keyboard-response","458","504526","0.0-1.0-627.0-0.0","0","0","21375","","null","","","null","69","","","","","","","","","","","","","","","",""
"","time_out","","html-keyboard-response","459","506530","0.0-1.0-629.0-0.0","0","0","21375","","null","","","null","69","","","","","","","","","","","","","","","",""
"","ITI","","html-keyboard-response","460","507535","0.0-1.0-630.0","0","0","21375","","null","","","null","69","","","","","","","","","","","","","","","NaN",""
"","S1","","html-keyboard-response","461","507689","0.0-1.0-632.0","0","0","21375","","null","","","null","70","","","","","","","","","","","","","","","",""
"","ISI","","html-keyboard-response","462","509693","0.0-1.0-633.0","0","0","21375","","null","","","null","70","NaN","","","","","","","","","","","","","","",""
"","S2","","html-keyboard-response","463","509847","0.0-1.0-634.0","0","0","21375","","null","","","null","70","","NaN","","","","","","","","","","","","","",""
"","response","","html-keyboard-response","464","510047","0.0-1.0-635.0-0.0","0","0","21375","","197","","","75","70","","","2","70","training","adjacent","BA","2","1","R.jpg","O.jpg","1","0","0","",""
"","feedback","","html-keyboard-response","465","511052","0.0-1.0-636.0-0.0","0","0","21375","","null","","","null","70","","","","","","","","","","","","","","","",""
"","time_out","","html-keyboard-response","466","513056","0.0-1.0-638.0-0.0","0","0","21375","","null","","","null","70","","","","","","","","","","","","","","","",""
"","ITI","","html-keyboard-response","467","514060","0.0-1.0-639.0","0","0","21375","","null","","","null","70","","","","","","","","","","","","","","","NaN",""
"","S1","","html-keyboard-response","468","514215","0.0-1.0-641.0","0","0","21375","","null","","","null","71","","","","","","","","","","","","","","","",""
"","ISI","","html-keyboard-response","469","516219","0.0-1.0-642.0","0","0","21375","","null","","","null","71","NaN","","","","","","","","","","","","","","",""
"","S2","","html-keyboard-response","470","516373","0.0-1.0-643.0","0","0","21375","","null","","","null","71","","NaN","","","","","","","","","","","","","",""
"","response","","html-keyboard-response","471","516577","0.0-1.0-644.0-0.0","0","0","21375","","200","","","75","71","","","2","71","training","adjacent","BC","2","3","R.jpg","M.jpg","1","1","1","",""
"","feedback","","html-keyboard-response","472","517585","0.0-1.0-645.0-0.0","0","0","21375","","null","","","null","71","","","","","","","","","","","","","","","",""
"","ITI","","html-keyboard-response","473","518590","0.0-1.0-648.0","0","0","21375","","null","","","null","71","","","","","","","","","","","","","","","NaN",""
"","S1","","html-keyboard-response","474","518744","0.0-1.0-650.0","0","0","21375","","null","","","null","72","","","","","","","","","","","","","","","",""
"","ISI","","html-keyboard-response","475","520749","0.0-1.0-651.0","0","0","21375","","null","","","null","72","NaN","","","","","","","","","","","","","","",""
"","S2","","html-keyboard-response","476","520904","0.0-1.0-652.0","0","0","21375","","null","","","null","72","","NaN","","","","","","","","","","","","","",""
"","response","","html-keyboard-response","477","521404","0.0-1.0-653.0-0.0","0","0","21375","","497","","","68","72","","","2","72","training","adjacent","ED","5","4","Q.jpg","N.jpg","0","0","1","",""
"","feedback","","html-keyboard-response","478","522409","0.0-1.0-654.0-0.0","0","0","21375","","null","","","null","72","","","","","","","","","","","","","","","",""
"","ITI","","html-keyboard-response","479","523414","0.0-1.0-657.0","0","0","21375","","null","","","null","72","","","","","","","","","","","","","","","NaN",""
"","S1","","html-keyboard-response","480","523569","0.0-1.0-659.0","0","0","21375","","null","","","null","73","","","","","","","","","","","","","","","",""
"","ISI","","html-keyboard-response","481","525573","0.0-1.0-660.0","0","0","21375","","null","","","null","73","NaN","","","","","","","","","","","","","","",""
"","S2","","html-keyboard-response","482","525727","0.0-1.0-661.0","0","0","21375","","null","","","null","73","","NaN","","","","","","","","","","","","","",""
"","response","","html-keyboard-response","483","525922","0.0-1.0-662.0-0.0","0","0","21375","","191","","","75","73","","","2","73","training","adjacent","ED","5","4","Q.jpg","N.jpg","1","0","0","",""
"","feedback","","html-keyboard-response","484","526927","0.0-1.0-663.0-0.0","0","0","21375","","null","","","null","73","","","","","","","","","","","","","","","",""
"","time_out","","html-keyboard-response","485","528931","0.0-1.0-665.0-0.0","0","0","21375","","null","","","null","73","","","","","","","","","","","","","","","",""
"","ITI","","html-keyboard-response","486","529935","0.0-1.0-666.0","0","0","21375","","null","","","null","73","","","","","","","","","","","","","","","NaN",""
"","S1","","html-keyboard-response","487","530089","0.0-1.0-668.0","0","0","21375","","null","","","null","74","","","","","","","","","","","","","","","",""
"","ISI","","html-keyboard-response","488","532093","0.0-1.0-669.0","0","0","21375","","null","","","null","74","NaN","","","","","","","","","","","","","","",""
"","S2","","html-keyboard-response","489","532246","0.0-1.0-670.0","0","0","21375","","null","","","null","74","","NaN","","","","","","","","","","","","","",""
"","response","","html-keyboard-response","490","532323","0.0-1.0-671.0-0.0","0","0","21375","","73","","","68","74","","","2","74","training","adjacent","FG","6","7","P.jpg","L.jpg","0","1","0","",""
"","feedback","","html-keyboard-response","491","533327","0.0-1.0-672.0-0.0","0","0","21375","","null","","","null","74","","","","","","","","","","","","","","","",""
"","time_out","","html-keyboard-response","492","535332","0.0-1.0-674.0-0.0","0","0","21375","","null","","","null","74","","","","","","","","","","","","","","","",""
"","ITI","","html-keyboard-response","493","536337","0.0-1.0-675.0","0","0","21375","","null","","","null","74","","","","","","","","","","","","","","","NaN",""
"","S1","","html-keyboard-response","494","536491","0.0-1.0-677.0","0","0","21375","","null","","","null","75","","","","","","","","","","","","","","","",""
"","ISI","","html-keyboard-response","495","538495","0.0-1.0-678.0","0","0","21375","","null","","","null","75","NaN","","","","","","","","","","","","","","",""
"","S2","","html-keyboard-response","496","538650","0.0-1.0-679.0","0","0","21375","","null","","","null","75","","NaN","","","","","","","","","","","","","",""
"","response","","html-keyboard-response","497","538775","0.0-1.0-680.0-0.0","0","0","21375","","123","","","75","75","","","2","75","training","adjacent","BA","2","1","R.jpg","O.jpg","1","0","0","",""
"","feedback","","html-keyboard-response","498","539779","0.0-1.0-681.0-0.0","0","0","21375","","null","","","null","75","","","","","","","","","","","","","","","",""
"","time_out","","html-keyboard-response","499","541785","0.0-1.0-683.0-0.0","0","0","21375","","null","","","null","75","","","","","","","","","","","","","","","",""
"","ITI","","html-keyboard-response","500","542788","0.0-1.0-684.0","0","0","21375","","null","","","null","75","","","","","","","","","","","","","","","NaN",""
"","S1","","html-keyboard-response","501","542943","0.0-1.0-686.0","0","0","21375","","null","","","null","76","","","","","","","","","","","","","","","",""
"","ISI","","html-keyboard-response","502","544948","0.0-1.0-687.0","0","0","21375","","null","","","null","76","NaN","","","","","","","","","","","","","","",""
"","S2","","html-keyboard-response","503","545102","0.0-1.0-688.0","0","0","21375","","null","","","null","76","","NaN","","","","","","","","","","","","","",""
"","response","","html-keyboard-response","504","545183","0.0-1.0-689.0-0.0","0","0","21375","","79","","","68","76","","","2","76","training","adjacent","DE","4","5","N.jpg","Q.jpg","0","1","0","",""
"","feedback","","html-keyboard-response","505","546188","0.0-1.0-690.0-0.0","0","0","21375","","null","","","null","76","","","","","","","","","","","","","","","",""
"","time_out","","html-keyboard-response","506","548193","0.0-1.0-692.0-0.0","0","0","21375","","null","","","null","76","","","","","","","","","","","","","","","",""
"","ITI","","html-keyboard-response","507","549197","0.0-1.0-693.0","0","0","21375","","null","","","null","76","","","","","","","","","","","","","","","NaN",""
"","S1","","html-keyboard-response","508","549351","0.0-1.0-695.0","0","0","21375","","null","","","null","77","","","","","","","","","","","","","","","",""
"","ISI","","html-keyboard-response","509","551355","0.0-1.0-696.0","0","0","21375","","null","","","null","77","NaN","","","","","","","","","","","","","","",""
"","S2","","html-keyboard-response","510","551510","0.0-1.0-697.0","0","0","21375","","null","","","null","77","","NaN","","","","","","","","","","","","","",""
"","response","","html-keyboard-response","511","551960","0.0-1.0-698.0-0.0","0","0","21375","","447","","","68","77","","","2","77","training","adjacent","DC","4","3","N.jpg","M.jpg","0","0","1","",""
"","feedback","","html-keyboard-response","512","552965","0.0-1.0-699.0-0.0","0","0","21375","","null","","","null","77","","","","","","","","","","","","","","","",""
"","ITI","","html-keyboard-response","513","553970","0.0-1.0-702.0","0","0","21375","","null","","","null","77","","","","","","","","","","","","","","","NaN",""
"","S1","","html-keyboard-response","514","554124","0.0-1.0-704.0","0","0","21375","","null","","","null","78","","","","","","","","","","","","","","","",""
"","ISI","","html-keyboard-response","515","556129","0.0-1.0-705.0","0","0","21375","","null","","","null","78","NaN","","","","","","","","","","","","","","",""
"","S2","","html-keyboard-response","516","556232","0.0-1.0-706.0","0","0","21375","","100","","","75","78","","k","2","78","training","adjacent","ED","5","4","Q.jpg","N.jpg","1","0","0","",""
"","feedback","","html-keyboard-response","517","557238","0.0-1.0-708.0-0.0","0","0","21375","","null","","","null","78","","","","","","","","","","","","","","","",""
"","time_out","","html-keyboard-response","518","559242","0.0-1.0-710.0-0.0","0","0","21375","","null","","","null","78","","","","","","","","","","","","","","","",""
"","ITI","","html-keyboard-response","519","560246","0.0-1.0-711.0","0","0","21375","","null","","","null","78","","","","","","","","","","","","","","","NaN",""
"","S1","","html-keyboard-response","520","560400","0.0-1.0-713.0","0","0","21375","","null","","","null","79","","","","","","","","","","","","","","","",""
"","ISI","","html-keyboard-response","521","562404","0.0-1.0-714.0","0","0","21375","","null","","","null","79","NaN","","","","","","","","","","","","","","",""
"","S2","","html-keyboard-response","522","562558","0.0-1.0-715.0","0","0","21375","","null","","","null","79","","NaN","","","","","","","","","","","","","",""
"","response","","html-keyboard-response","523","562790","0.0-1.0-716.0-0.0","0","0","21375","","229","","","68","79","","","2","79","training","adjacent","CD","3","4","M.jpg","N.jpg","0","1","0","",""
"","feedback","","html-keyboard-response","524","563796","0.0-1.0-717.0-0.0","0","0","21375","","null","","","null","79","","","","","","","","","","","","","","","",""
"","time_out","","html-keyboard-response","525","565800","0.0-1.0-719.0-0.0","0","0","21375","","null","","","null","79","","","","","","","","","","","","","","","",""
"","ITI","","html-keyboard-response","526","566805","0.0-1.0-720.0","0","0","21375","","null","","","null","79","","","","","","","","","","","","","","","NaN",""
"","S1","","html-keyboard-response","527","566960","0.0-1.0-722.0","0","0","21375","","null","","","null","80","","","","","","","","","","","","","","","",""
"","ISI","","html-keyboard-response","528","568963","0.0-1.0-723.0","0","0","21375","","1685","","","175","80","","","","","","","","","","","","","","","",""
"","S2","","html-keyboard-response","529","569118","0.0-1.0-724.0","0","0","21375","","null","","","null","80","","NaN","","","","","","","","","","","","","",""
"","response","","html-keyboard-response","530","569442","0.0-1.0-725.0-0.0","0","0","21375","","321","","","75","80","","","2","80","training","adjacent","AB","1","2","O.jpg","R.jpg","1","1","1","",""
"","feedback","","html-keyboard-response","531","570448","0.0-1.0-726.0-0.0","0","0","21375","","null","","","null","80","","","","","","","","","","","","","","","",""
"","ITI","","html-keyboard-response","532","571453","0.0-1.0-729.0","0","0","21375","","20","","","174","80","","","","","","","","","","","","","","","",""
"","S1","","html-keyboard-response","533","571609","0.0-1.0-731.0","0","0","21375","","null","","","null","81","","","","","","","","","","","","","","","",""
"","ISI","","html-keyboard-response","534","573611","0.0-1.0-732.0","0","0","21375","","null","","","null","81","NaN","","","","","","","","","","","","","","",""
"","S2","","html-keyboard-response","535","573766","0.0-1.0-733.0","0","0","21375","","null","","","null","81","","NaN","","","","","","","","","","","","","",""
"","response","","html-keyboard-response","536","573891","0.0-1.0-734.0-0.0","0","0","21375","","122","","","68","81","","","2","81","training","adjacent","ED","5","4","Q.jpg","N.jpg","0","0","1","",""
"","feedback","","html-keyboard-response","537","574896","0.0-1.0-735.0-0.0","0","0","21375","","null","","","null","81","","","","","","","","","","","","","","","",""
"","ITI","","html-keyboard-response","538","575900","0.0-1.0-738.0","0","0","21375","","null","","","null","81","","","","","","","","","","","","","","","NaN",""
"","S1","","html-keyboard-response","539","576055","0.0-1.0-740.0","0","0","21375","","null","","","null","82","","","","","","","","","","","","","","","",""
"","ISI","","html-keyboard-response","540","578059","0.0-1.0-741.0","0","0","21375","","null","","","null","82","NaN","","","","","","","","","","","","","","",""
"","S2","","html-keyboard-response","541","578214","0.0-1.0-742.0","0","0","21375","","null","","","null","82","","NaN","","","","","","","","","","","","","",""
"","response","","html-keyboard-response","542","578268","0.0-1.0-743.0-0.0","0","0","21375","","50","","","68","82","","","2","82","training","adjacent","EF","5","6","Q.jpg","P.jpg","0","1","0","",""
"","feedback","","html-keyboard-response","543","579273","0.0-1.0-744.0-0.0","0","0","21375","","null","","","null","82","","","","","","","","","","","","","","","",""
"","time_out","","html-keyboard-response","544","581278","0.0-1.0-746.0-0.0","0","0","21375","","null","","","null","82","","","","","","","","","","","","","","","",""
"","ITI","","html-keyboard-response","545","582281","0.0-1.0-747.0","0","0","21375","","null","","","null","82","","","","","","","","","","","","","","","NaN",""
"","S1","","html-keyboard-response","546","582435","0.0-1.0-749.0","0","0","21375","","null","","","null","83","","","","","","","","","","","","","","","",""
"","ISI","","html-keyboard-response","547","584439","0.0-1.0-750.0","0","0","21375","","null","","","null","83","NaN","","","","","","","","","","","","","","",""
"","S2","","html-keyboard-response","548","584593","0.0-1.0-751.0","0","0","21375","","null","","","null","83","","NaN","","","","","","","","","","","","","",""
"","response","","html-keyboard-response","549","584672","0.0-1.0-752.0-0.0","0","0","21375","","75","","","75","83","","","2","83","training","adjacent","GF","7","6","L.jpg","P.jpg","1","0","0","",""
"","feedback","","html-keyboard-response","550","585676","0.0-1.0-753.0-0.0","0","0","21375","","null","","","null","83","","","","","","","","","","","","","","","",""
"","time_out","","html-keyboard-response","551","587680","0.0-1.0-755.0-0.0","0","0","21375","","null","","","null","83","","","","","","","","","","","","","","","",""
"","ITI","","html-keyboard-response","552","588683","0.0-1.0-756.0","0","0","21375","","null","","","null","83","","","","","","","","","","","","","","","NaN",""
"","S1","","html-keyboard-response","553","588837","0.0-1.0-758.0","0","0","21375","","null","","","null","84","","","","","","","","","","","","","","","",""
"","ISI","","html-keyboard-response","554","590841","0.0-1.0-759.0","0","0","21375","","null","","","null","84","NaN","","","","","","","","","","","","","","",""
"","S2","","html-keyboard-response","555","590995","0.0-1.0-760.0","0","0","21375","","null","","","null","84","","NaN","","","","","","","","","","","","","",""
"","response","","html-keyboard-response","556","591191","0.0-1.0-761.0-0.0","0","0","21375","","193","","","75","84","","","2","84","training","adjacent","CD","3","4","M.jpg","N.jpg","1","1","1","",""
"","feedback","","html-keyboard-response","557","592196","0.0-1.0-762.0-0.0","0","0","21375","","null","","","null","84","","","","","","","","","","","","","","","",""
"","ITI","","html-keyboard-response","558","593200","0.0-1.0-765.0","0","0","21375","","null","","","null","84","","","","","","","","","","","","","","","NaN",""
"","S1","","html-keyboard-response","559","593355","0.0-1.0-767.0","0","0","21375","","null","","","null","85","","","","","","","","","","","","","","","",""
"","ISI","","html-keyboard-response","560","595359","0.0-1.0-768.0","0","0","21375","","null","","","null","85","NaN","","","","","","","","","","","","","","",""
"","S2","","html-keyboard-response","561","595514","0.0-1.0-769.0","0","0","21375","","null","","","null","85","","NaN","","","","","","","","","","","","","",""
"","response","","html-keyboard-response","562","595723","0.0-1.0-770.0-0.0","0","0","21375","","206","","","75","85","","","2","85","training","adjacent","GF","7","6","L.jpg","P.jpg","1","0","0","",""
"","feedback","","html-keyboard-response","563","596727","0.0-1.0-771.0-0.0","0","0","21375","","null","","","null","85","","","","","","","","","","","","","","","",""
"","time_out","","html-keyboard-response","564","598731","0.0-1.0-773.0-0.0","0","0","21375","","null","","","null","85","","","","","","","","","","","","","","","",""
"","ITI","","html-keyboard-response","565","599735","0.0-1.0-774.0","0","0","21375","","null","","","null","85","","","","","","","","","","","","","","","NaN",""
"","S1","","html-keyboard-response","566","599889","0.0-1.0-776.0","0","0","21375","","null","","","null","86","","","","","","","","","","","","","","","",""
"","ISI","","html-keyboard-response","567","601893","0.0-1.0-777.0","0","0","21375","","null","","","null","86","NaN","","","","","","","","","","","","","","",""
"","S2","","html-keyboard-response","568","602047","0.0-1.0-778.0","0","0","21375","","null","","","null","86","","NaN","","","","","","","","","","","","","",""
"","response","","html-keyboard-response","569","602166","0.0-1.0-779.0-0.0","0","0","21375","","115","","","75","86","","","2","86","training","adjacent","CB","3","2","M.jpg","R.jpg","1","0","0","",""
"","feedback","","html-keyboard-response","570","603171","0.0-1.0-780.0-0.0","0","0","21375","","null","","","null","86","","","","","","","","","","","","","","","",""
"","time_out","","html-keyboard-response","571","605175","0.0-1.0-782.0-0.0","0","0","21375","","null","","","null","86","","","","","","","","","","","","","","","",""
"","ITI","","html-keyboard-response","572","606179","0.0-1.0-783.0","0","0","21375","","null","","","null","86","","","","","","","","","","","","","","","NaN",""
"","S1","","html-keyboard-response","573","606334","0.0-1.0-785.0","0","0","21375","","null","","","null","87","","","","","","","","","","","","","","","",""
"","ISI","","html-keyboard-response","574","608338","0.0-1.0-786.0","0","0","21375","","null","","","null","87","NaN","","","","","","","","","","","","","","",""
"","S2","","html-keyboard-response","575","608493","0.0-1.0-787.0","0","0","21375","","null","","","null","87","","NaN","","","","","","","","","","","","","",""
"","response","","html-keyboard-response","576","608609","0.0-1.0-788.0-0.0","0","0","21375","","113","","","68","87","","","2","87","training","adjacent","AB","1","2","O.jpg","R.jpg","0","1","0","",""
"","feedback","","html-keyboard-response","577","609614","0.0-1.0-789.0-0.0","0","0","21375","","null","","","null","87","","","","","","","","","","","","","","","",""
"","time_out","","html-keyboard-response","578","611618","0.0-1.0-791.0-0.0","0","0","21375","","null","","","null","87","","","","","","","","","","","","","","","",""
"","ITI","","html-keyboard-response","579","612622","0.0-1.0-792.0","0","0","21375","","null","","","null","87","","","","","","","","","","","","","","","NaN",""
"","S1","","html-keyboard-response","580","612777","0.0-1.0-794.0","0","0","21375","","null","","","null","88","","","","","","","","","","","","","","","",""
"","ISI","","html-keyboard-response","581","614781","0.0-1.0-795.0","0","0","21375","","null","","","null","88","NaN","","","","","","","","","","","","","","",""
"","S2","","html-keyboard-response","582","614936","0.0-1.0-796.0","0","0","21375","","null","","","null","88","","NaN","","","","","","","","","","","","","",""
