"success","ttype","start_time","trial_type","trial_index","time_elapsed","internal_node_id","warning","missed_checkup","PID","view_history","rt","responses","repeat_instructions","key_press","index","keypress_isi","keypress_S2","block","trial_num","phase","group_type","pair_type","S1_stim","S2_stim","S1_img","S2_img","S1_chosen","S1_higher","accuracy","keypress_iti","total_bonus_tally"
"true","full_screen","d08012022hr1504","fullscreen","0","9987","0.0-0.0","0","0","59125","","","","","","","","","","","","","","","","","","","","","",""
"","instructions","","instructions","1","83498","0.0-1.0-0.0-0.0","0","0","59125","[{""page_index"":0,""viewing_time"":11087},{""page_index"":1,""viewing_time"":51295},{""page_index"":2,""viewing_time"":9836},{""page_index"":3,""viewing_time"":1283}]","73503","","","","","","","","","","","","","","","","","","","",""
"","comprehension_check","","survey-multi-choice","2","98267","0.0-1.0-0.0-1.0","0","0","59125","","14755","{""Q0"":""True"",""Q1"":""K"",""Q2"":""When you see the prompt 'MAKE A CHOICE' after the second image was presented"",""Q3"":""Green mark"",""Q4"":""either D or K""}","0","","","","","","","","","","","","","","","","","",""
"","start_exp","","html-keyboard-response","3","99382","0.0-1.0-1.0","0","0","59125","","1108","","","32","","","","","","","","","","","","","","","","",""
"","S1","","html-keyboard-response","4","99636","0.0-1.0-2.0","0","0","59125","","null","","","null","0","","","","","","","","","","","","","","","",""
"","ISI","","html-keyboard-response","5","101639","0.0-1.0-3.0","0","0","59125","","null","","","null","0","NaN","","","","","","","","","","","","","","",""
"","S2","","html-keyboard-response","6","101892","0.0-1.0-4.0","0","0","59125","","null","","","null","0","","NaN","","","","","","","","","","","","","",""
"","response","","html-keyboard-response","7","102819","0.0-1.0-5.0","0","0","59125","","924","","","75","0","","","1","0","training","adjacent","BA","2","1","N.jpg","O.jpg","1","0","0","",""
"","feedback","","html-keyboard-response","8","103825","0.0-1.0-6.0-0.0","0","0","59125","","null","","","null","0","","","","","","","","","","","","","","","",""
"","time_out","","html-keyboard-response","9","105828","0.0-1.0-8.0-0.0","0","0","59125","","null","","","null","0","","","","","","","","","","","","","","","",""
"","ITI","","html-keyboard-response","10","106832","0.0-1.0-9.0","0","0","59125","","null","","","null","0","","","","","","","","","","","","","","","NaN",""
"","S1","","html-keyboard-response","11","107086","0.0-1.0-11.0","0","0","59125","","null","","","null","1","","","","","","","","","","","","","","","",""
"","ISI","","html-keyboard-response","12","109089","0.0-1.0-12.0","0","0","59125","","null","","","null","1","NaN","","","","","","","","","","","","","","",""
"","S2","","html-keyboard-response","13","109342","0.0-1.0-13.0","0","0","59125","","null","","","null","1","","NaN","","","","","","","","","","","","","",""
"","response","","html-keyboard-response","14","110001","0.0-1.0-14.0","0","0","59125","","656","","","75","1","","","1","1","training","adjacent","DE","4","5","L.jpg","P.jpg","1","1","1","",""
"","feedback","","html-keyboard-response","15","111004","0.0-1.0-15.0-0.0","0","0","59125","","null","","","null","1","","","","","","","","","","","","","","","",""
"","ITI","","html-keyboard-response","16","112007","0.0-1.0-18.0","0","0","59125","","null","","","null","1","","","","","","","","","","","","","","","NaN",""
"","S1","","html-keyboard-response","17","112259","0.0-1.0-20.0","0","0","59125","","null","","","null","2","","","","","","","","","","","","","","","",""
"","ISI","","html-keyboard-response","18","114263","0.0-1.0-21.0","0","0","59125","","null","","","null","2","NaN","","","","","","","","","","","","","","",""
"","S2","","html-keyboard-response","19","114521","0.0-1.0-22.0","0","0","59125","","null","","","null","2","","NaN","","","","","","","","","","","","","",""
"","response","","html-keyboard-response","20","115123","0.0-1.0-23.0","0","0","59125","","599","","","75","2","","","1","2","training","adjacent","CD","3","4","Q.jpg","L.jpg","1","1","1","",""
"","feedback","","html-keyboard-response","21","116127","0.0-1.0-24.0-0.0","0","0","59125","","null","","","null","2","","","","","","","","","","","","","","","",""
"","ITI","","html-keyboard-response","22","117128","0.0-1.0-27.0","0","0","59125","","null","","","null","2","","","","","","","","","","","","","","","NaN",""
"","S1","","html-keyboard-response","23","117381","0.0-1.0-29.0","0","0","59125","","null","","","null","3","","","","","","","","","","","","","","","",""
"","ISI","","html-keyboard-response","24","119383","0.0-1.0-30.0","0","0","59125","","null","","","null","3","NaN","","","","","","","","","","","","","","",""
"","S2","","html-keyboard-response","25","119636","0.0-1.0-31.0","0","0","59125","","null","","","null","3","","NaN","","","","","","","","","","","","","",""
"","response","","html-keyboard-response","26","120117","0.0-1.0-32.0","0","0","59125","","476","","","68","3","","","1","3","training","adjacent","ED","5","4","P.jpg","L.jpg","0","0","1","",""
"","feedback","","html-keyboard-response","27","121119","0.0-1.0-33.0-0.0","0","0","59125","","null","","","null","3","","","","","","","","","","","","","","","",""
"","ITI","","html-keyboard-response","28","122123","0.0-1.0-36.0","0","0","59125","","null","","","null","3","","","","","","","","","","","","","","","NaN",""
"","S1","","html-keyboard-response","29","122376","0.0-1.0-38.0","0","0","59125","","null","","","null","4","","","","","","","","","","","","","","","",""
"","ISI","","html-keyboard-response","30","124378","0.0-1.0-39.0","0","0","59125","","null","","","null","4","NaN","","","","","","","","","","","","","","",""
"","S2","","html-keyboard-response","31","124633","0.0-1.0-40.0","0","0","59125","","null","","","null","4","","NaN","","","","","","","","","","","","","",""
"","response","","html-keyboard-response","32","125218","0.0-1.0-41.0","0","0","59125","","583","","","75","4","","","1","4","training","adjacent","CB","3","2","Q.jpg","N.jpg","1","0","0","",""
"","feedback","","html-keyboard-response","33","126221","0.0-1.0-42.0-0.0","0","0","59125","","null","","","null","4","","","","","","","","","","","","","","","",""
"","time_out","","html-keyboard-response","34","128223","0.0-1.0-44.0-0.0","0","0","59125","","null","","","null","4","","","","","","","","","","","","","","","",""
"","ITI","","html-keyboard-response","35","129227","0.0-1.0-45.0","0","0","59125","","null","","","null","4","","","","","","","","","","","","","","","NaN",""
"","S1","","html-keyboard-response","36","129478","0.0-1.0-47.0","0","0","59125","","null","","","null","5","","","","","","","","","","","","","","","",""
"","ISI","","html-keyboard-response","37","131481","0.0-1.0-48.0","0","0","59125","","null","","","null","5","NaN","","","","","","","","","","","","","","",""
"","S2","","html-keyboard-response","38","131738","0.0-1.0-49.0","0","0","59125","","null","","","null","5","","NaN","","","","","","","","","","","","","",""
"","response","","html-keyboard-response","39","132209","0.0-1.0-50.0","0","0","59125","","469","","","75","5","","","1","5","training","adjacent","EF","5","6","P.jpg","R.jpg","1","1","1","",""
"","feedback","","html-keyboard-response","40","133211","0.0-1.0-51.0-0.0","0","0","59125","","null","","","null","5","","","","","","","","","","","","","","","",""
"","ITI","","html-keyboard-response","41","134214","0.0-1.0-54.0","0","0","59125","","null","","","null","5","","","","","","","","","","","","","","","NaN",""
"","S1","","html-keyboard-response","42","134466","0.0-1.0-56.0","0","0","59125","","null","","","null","6","","","","","","","","","","","","","","","",""
"","ISI","","html-keyboard-response","43","136468","0.0-1.0-57.0","0","0","59125","","null","","","null","6","NaN","","","","","","","","","","","","","","",""
"","S2","","html-keyboard-response","44","136719","0.0-1.0-58.0","0","0","59125","","null","","","null","6","","NaN","","","","","","","","","","","","","",""
"","response","","html-keyboard-response","45","136961","0.0-1.0-59.0","0","0","59125","","239","","","68","6","","","1","6","training","adjacent","FE","6","5","R.jpg","P.jpg","0","0","1","",""
"","feedback","","html-keyboard-response","46","137963","0.0-1.0-60.0-0.0","0","0","59125","","null","","","null","6","","","","","","","","","","","","","","","",""
"","ITI","","html-keyboard-response","47","138966","0.0-1.0-63.0","0","0","59125","","null","","","null","6","","","","","","","","","","","","","","","NaN",""
"","S1","","html-keyboard-response","48","139218","0.0-1.0-65.0","0","0","59125","","null","","","null","7","","","","","","","","","","","","","","","",""
"","ISI","","html-keyboard-response","49","141220","0.0-1.0-66.0","0","0","59125","","null","","","null","7","NaN","","","","","","","","","","","","","","",""
"","S2","","html-keyboard-response","50","141471","0.0-1.0-67.0","0","0","59125","","null","","","null","7","","NaN","","","","","","","","","","","","","",""
"","response","","html-keyboard-response","51","141911","0.0-1.0-68.0","0","0","59125","","431","","","68","7","","","1","7","training","adjacent","FG","6","7","R.jpg","M.jpg","0","1","0","",""
"","feedback","","html-keyboard-response","52","142915","0.0-1.0-69.0-0.0","0","0","59125","","null","","","null","7","","","","","","","","","","","","","","","",""
"","time_out","","html-keyboard-response","53","144918","0.0-1.0-71.0-0.0","0","0","59125","","null","","","null","7","","","","","","","","","","","","","","","",""
"","ITI","","html-keyboard-response","54","145921","0.0-1.0-72.0","0","0","59125","","null","","","null","7","","","","","","","","","","","","","","","NaN",""
"","S1","","html-keyboard-response","55","146173","0.0-1.0-74.0","0","0","59125","","null","","","null","8","","","","","","","","","","","","","","","",""
"","ISI","","html-keyboard-response","56","148176","0.0-1.0-75.0","0","0","59125","","null","","","null","8","NaN","","","","","","","","","","","","","","",""
"","S2","","html-keyboard-response","57","148431","0.0-1.0-76.0","0","0","59125","","null","","","null","8","","NaN","","","","","","","","","","","","","",""
"","response","","html-keyboard-response","58","148897","0.0-1.0-77.0","0","0","59125","","464","","","75","8","","","1","8","training","adjacent","DC","4","3","L.jpg","Q.jpg","1","0","0","",""
"","feedback","","html-keyboard-response","59","149902","0.0-1.0-78.0-0.0","0","0","59125","","null","","","null","8","","","","","","","","","","","","","","","",""
"","time_out","","html-keyboard-response","60","151907","0.0-1.0-80.0-0.0","0","0","59125","","null","","","null","8","","","","","","","","","","","","","","","",""
"","ITI","","html-keyboard-response","61","152910","0.0-1.0-81.0","0","0","59125","","null","","","null","8","","","","","","","","","","","","","","","NaN",""
"","S1","","html-keyboard-response","62","153163","0.0-1.0-83.0","0","0","59125","","null","","","null","9","","","","","","","","","","","","","","","",""
"","ISI","","html-keyboard-response","63","155166","0.0-1.0-84.0","0","0","59125","","null","","","null","9","NaN","","","","","","","","","","","","","","",""
"","S2","","html-keyboard-response","64","155420","0.0-1.0-85.0","0","0","59125","","null","","","null","9","","NaN","","","","","","","","","","","","","",""
"","response","","html-keyboard-response","65","155793","0.0-1.0-86.0","0","0","59125","","371","","","68","9","","","1","9","training","adjacent","CD","3","4","Q.jpg","L.jpg","0","1","0","",""
"","feedback","","html-keyboard-response","66","156795","0.0-1.0-87.0-0.0","0","0","59125","","null","","","null","9","","","","","","","","","","","","","","","",""
"","time_out","","html-keyboard-response","67","158797","0.0-1.0-89.0-0.0","0","0","59125","","null","","","null","9","","","","","","","","","","","","","","","",""
"","ITI","","html-keyboard-response","68","159799","0.0-1.0-90.0","0","0","59125","","null","","","null","9","","","","","","","","","","","","","","","NaN",""
"","S1","","html-keyboard-response","69","160052","0.0-1.0-92.0","0","0","59125","","null","","","null","10","","","","","","","","","","","","","","","",""
"","ISI","","html-keyboard-response","70","162054","0.0-1.0-93.0","0","0","59125","","null","","","null","10","NaN","","","","","","","","","","","","","","",""
"","S2","","html-keyboard-response","71","162308","0.0-1.0-94.0","0","0","59125","","null","","","null","10","","NaN","","","","","","","","","","","","","",""
"","response","","html-keyboard-response","72","162880","0.0-1.0-95.0","0","0","59125","","571","","","75","10","","","1","10","training","adjacent","GF","7","6","M.jpg","R.jpg","1","0","0","",""
"","feedback","","html-keyboard-response","73","163883","0.0-1.0-96.0-0.0","0","0","59125","","null","","","null","10","","","","","","","","","","","","","","","",""
"","time_out","","html-keyboard-response","74","165886","0.0-1.0-98.0-0.0","0","0","59125","","null","","","null","10","","","","","","","","","","","","","","","",""
"","ITI","","html-keyboard-response","75","166887","0.0-1.0-99.0","0","0","59125","","null","","","null","10","","","","","","","","","","","","","","","NaN",""
"","S1","","html-keyboard-response","76","167140","0.0-1.0-101.0","0","0","59125","","null","","","null","11","","","","","","","","","","","","","","","",""
"","ISI","","html-keyboard-response","77","169143","0.0-1.0-102.0","0","0","59125","","null","","","null","11","NaN","","","","","","","","","","","","","","",""
"","S2","","html-keyboard-response","78","169398","0.0-1.0-103.0","0","0","59125","","null","","","null","11","","NaN","","","","","","","","","","","","","",""
"","response","","html-keyboard-response","79","169921","0.0-1.0-104.0","0","0","59125","","522","","","75","11","","","1","11","training","adjacent","GF","7","6","M.jpg","R.jpg","1","0","0","",""
"","feedback","","html-keyboard-response","80","170924","0.0-1.0-105.0-0.0","0","0","59125","","null","","","null","11","","","","","","","","","","","","","","","",""
"","time_out","","html-keyboard-response","81","172927","0.0-1.0-107.0-0.0","0","0","59125","","null","","","null","11","","","","","","","","","","","","","","","",""
"","ITI","","html-keyboard-response","82","173929","0.0-1.0-108.0","0","0","59125","","null","","","null","11","","","","","","","","","","","","","","","NaN",""
"","S1","","html-keyboard-response","83","174181","0.0-1.0-110.0","0","0","59125","","null","","","null","12","","","","","","","","","","","","","","","",""
"","ISI","","html-keyboard-response","84","176184","0.0-1.0-111.0","0","0","59125","","null","","","null","12","NaN","","","","","","","","","","","","","","",""
"","S2","","html-keyboard-response","85","176438","0.0-1.0-112.0","0","0","59125","","null","","","null","12","","NaN","","","","","","","","","","","","","",""
"","response","","html-keyboard-response","86","177187","0.0-1.0-113.0","0","0","59125","","746","","","68","12","","","1","12","training","adjacent","DE","4","5","L.jpg","P.jpg","0","1","0","",""
"","feedback","","html-keyboard-response","87","178190","0.0-1.0-114.0-0.0","0","0","59125","","null","","","null","12","","","","","","","","","","","","","","","",""
"","time_out","","html-keyboard-response","88","180191","0.0-1.0-116.0-0.0","0","0","59125","","null","","","null","12","","","","","","","","","","","","","","","",""
"","ITI","","html-keyboard-response","89","181195","0.0-1.0-117.0","0","0","59125","","null","","","null","12","","","","","","","","","","","","","","","NaN",""
"","S1","","html-keyboard-response","90","181448","0.0-1.0-119.0","0","0","59125","","null","","","null","13","","","","","","","","","","","","","","","",""
"","ISI","","html-keyboard-response","91","183449","0.0-1.0-120.0","0","0","59125","","null","","","null","13","NaN","","","","","","","","","","","","","","",""
"","S2","","html-keyboard-response","92","183702","0.0-1.0-121.0","0","0","59125","","null","","","null","13","","NaN","","","","","","","","","","","","","",""
"","response","","html-keyboard-response","93","184212","0.0-1.0-122.0","0","0","59125","","505","","","75","13","","","1","13","training","adjacent","DC","4","3","L.jpg","Q.jpg","1","0","0","",""
"","feedback","","html-keyboard-response","94","185216","0.0-1.0-123.0-0.0","0","0","59125","","null","","","null","13","","","","","","","","","","","","","","","",""
"","time_out","","html-keyboard-response","95","187218","0.0-1.0-125.0-0.0","0","0","59125","","null","","","null","13","","","","","","","","","","","","","","","",""
"","ITI","","html-keyboard-response","96","188220","0.0-1.0-126.0","0","0","59125","","null","","","null","13","","","","","","","","","","","","","","","NaN",""
"","S1","","html-keyboard-response","97","188472","0.0-1.0-128.0","0","0","59125","","null","","","null","14","","","","","","","","","","","","","","","",""
"","ISI","","html-keyboard-response","98","190474","0.0-1.0-129.0","0","0","59125","","null","","","null","14","NaN","","","","","","","","","","","","","","",""
"","S2","","html-keyboard-response","99","190726","0.0-1.0-130.0","0","0","59125","","null","","","null","14","","NaN","","","","","","","","","","","","","",""
"","response","","html-keyboard-response","100","191346","0.0-1.0-131.0","0","0","59125","","617","","","68","14","","","1","14","training","adjacent","FE","6","5","R.jpg","P.jpg","0","0","1","",""
"","feedback","","html-keyboard-response","101","192349","0.0-1.0-132.0-0.0","0","0","59125","","null","","","null","14","","","","","","","","","","","","","","","",""
"","ITI","","html-keyboard-response","102","193351","0.0-1.0-135.0","0","0","59125","","null","","","null","14","","","","","","","","","","","","","","","NaN",""
"","S1","","html-keyboard-response","103","193607","0.0-1.0-137.0","0","0","59125","","null","","","null","15","","","","","","","","","","","","","","","",""
"","ISI","","html-keyboard-response","104","195610","0.0-1.0-138.0","0","0","59125","","null","","","null","15","NaN","","","","","","","","","","","","","","",""
"","S2","","html-keyboard-response","105","195863","0.0-1.0-139.0","0","0","59125","","null","","","null","15","","NaN","","","","","","","","","","","","","",""
"","response","","html-keyboard-response","106","197026","0.0-1.0-140.0","0","0","59125","","1162","","","75","15","","","1","15","training","adjacent","AB","1","2","O.jpg","N.jpg","1","1","1","",""
"","feedback","","html-keyboard-response","107","198031","0.0-1.0-141.0-0.0","0","0","59125","","null","","","null","15","","","","","","","","","","","","","","","",""
"","ITI","","html-keyboard-response","108","199035","0.0-1.0-144.0","0","0","59125","","null","","","null","15","","","","","","","","","","","","","","","NaN",""
"","S1","","html-keyboard-response","109","199288","0.0-1.0-146.0","0","0","59125","","null","","","null","16","","","","","","","","","","","","","","","",""
"","ISI","","html-keyboard-response","110","201290","0.0-1.0-147.0","0","0","59125","","null","","","null","16","NaN","","","","","","","","","","","","","","",""
"","S2","","html-keyboard-response","111","201544","0.0-1.0-148.0","0","0","59125","","null","","","null","16","","NaN","","","","","","","","","","","","","",""
"","response","","html-keyboard-response","112","202162","0.0-1.0-149.0","0","0","59125","","616","","","68","16","","","1","16","training","adjacent","CB","3","2","Q.jpg","N.jpg","0","0","1","",""
"","feedback","","html-keyboard-response","113","203166","0.0-1.0-150.0-0.0","0","0","59125","","null","","","null","16","","","","","","","","","","","","","","","",""
"","ITI","","html-keyboard-response","114","204170","0.0-1.0-153.0","0","0","59125","","null","","","null","16","","","","","","","","","","","","","","","NaN",""
"","S1","","html-keyboard-response","115","204423","0.0-1.0-155.0","0","0","59125","","null","","","null","17","","","","","","","","","","","","","","","",""
"","ISI","","html-keyboard-response","116","206432","0.0-1.0-156.0","0","0","59125","","null","","","null","17","NaN","","","","","","","","","","","","","","",""
"","S2","","html-keyboard-response","117","206685","0.0-1.0-157.0","0","0","59125","","null","","","null","17","","NaN","","","","","","","","","","","","","",""
"","response","","html-keyboard-response","118","207266","0.0-1.0-158.0","0","0","59125","","579","","","75","17","","","1","17","training","adjacent","BC","2","3","N.jpg","Q.jpg","1","1","1","",""
"","feedback","","html-keyboard-response","119","208269","0.0-1.0-159.0-0.0","0","0","59125","","null","","","null","17","","","","","","","","","","","","","","","",""
"","ITI","","html-keyboard-response","120","209271","0.0-1.0-162.0","0","0","59125","","null","","","null","17","","","","","","","","","","","","","","","NaN",""
"","S1","","html-keyboard-response","121","209527","0.0-1.0-164.0","0","0","59125","","null","","","null","18","","","","","","","","","","","","","","","",""
"","ISI","","html-keyboard-response","122","211529","0.0-1.0-165.0","0","0","59125","","null","","","null","18","NaN","","","","","","","","","","","","","","",""
"","S2","","html-keyboard-response","123","211782","0.0-1.0-166.0","0","0","59125","","null","","","null","18","","NaN","","","","","","","","","","","","","",""
"","response","","html-keyboard-response","124","212289","0.0-1.0-167.0","0","0","59125","","504","","","68","18","","","1","18","training","adjacent","CB","3","2","Q.jpg","N.jpg","0","0","1","",""
"","feedback","","html-keyboard-response","125","213291","0.0-1.0-168.0-0.0","0","0","59125","","null","","","null","18","","","","","","","","","","","","","","","",""
"","ITI","","html-keyboard-response","126","214294","0.0-1.0-171.0","0","0","59125","","null","","","null","18","","","","","","","","","","","","","","","NaN",""
"","S1","","html-keyboard-response","127","214548","0.0-1.0-173.0","0","0","59125","","null","","","null","19","","","","","","","","","","","","","","","",""
"","ISI","","html-keyboard-response","128","216551","0.0-1.0-174.0","0","0","59125","","null","","","null","19","NaN","","","","","","","","","","","","","","",""
"","S2","","html-keyboard-response","129","216804","0.0-1.0-175.0","0","0","59125","","null","","","null","19","","NaN","","","","","","","","","","","","","",""
"","response","","html-keyboard-response","130","217506","0.0-1.0-176.0","0","0","59125","","700","","","68","19","","","1","19","training","adjacent","GF","7","6","M.jpg","R.jpg","0","0","1","",""
"","feedback","","html-keyboard-response","131","218509","0.0-1.0-177.0-0.0","0","0","59125","","null","","","null","19","","","","","","","","","","","","","","","",""
"","ITI","","html-keyboard-response","132","219511","0.0-1.0-180.0","0","0","59125","","null","","","null","19","","","","","","","","","","","","","","","NaN",""
"","S1","","html-keyboard-response","133","219763","0.0-1.0-182.0","0","0","59125","","null","","","null","20","","","","","","","","","","","","","","","",""
"","ISI","","html-keyboard-response","134","221765","0.0-1.0-183.0","0","0","59125","","null","","","null","20","NaN","","","","","","","","","","","","","","",""
"","S2","","html-keyboard-response","135","222018","0.0-1.0-184.0","0","0","59125","","null","","","null","20","","NaN","","","","","","","","","","","","","",""
"","response","","html-keyboard-response","136","222675","0.0-1.0-185.0","0","0","59125","","654","","","68","20","","","1","20","training","adjacent","CB","3","2","Q.jpg","N.jpg","0","0","1","",""
"","feedback","","html-keyboard-response","137","223677","0.0-1.0-186.0-0.0","0","0","59125","","null","","","null","20","","","","","","","","","","","","","","","",""
"","ITI","","html-keyboard-response","138","224679","0.0-1.0-189.0","0","0","59125","","null","","","null","20","","","","","","","","","","","","","","","NaN",""
"","S1","","html-keyboard-response","139","224932","0.0-1.0-191.0","0","0","59125","","null","","","null","21","","","","","","","","","","","","","","","",""
"","ISI","","html-keyboard-response","140","226934","0.0-1.0-192.0","0","0","59125","","null","","","null","21","NaN","","","","","","","","","","","","","","",""
"","S2","","html-keyboard-response","141","227187","0.0-1.0-193.0","0","0","59125","","null","","","null","21","","NaN","","","","","","","","","","","","","",""
"","response","","html-keyboard-response","142","227921","0.0-1.0-194.0","0","0","59125","","732","","","75","21","","","1","21","training","adjacent","BC","2","3","N.jpg","Q.jpg","1","1","1","",""
"","feedback","","html-keyboard-response","143","228923","0.0-1.0-195.0-0.0","0","0","59125","","null","","","null","21","","","","","","","","","","","","","","","",""
"","ITI","","html-keyboard-response","144","229925","0.0-1.0-198.0","0","0","59125","","null","","","null","21","","","","","","","","","","","","","","","NaN",""
"","S1","","html-keyboard-response","145","230177","0.0-1.0-200.0","0","0","59125","","null","","","null","22","","","","","","","","","","","","","","","",""
"","ISI","","html-keyboard-response","146","232180","0.0-1.0-201.0","0","0","59125","","null","","","null","22","NaN","","","","","","","","","","","","","","",""
"","S2","","html-keyboard-response","147","232433","0.0-1.0-202.0","0","0","59125","","null","","","null","22","","NaN","","","","","","","","","","","","","",""
"","response","","html-keyboard-response","148","232929","0.0-1.0-203.0","0","0","59125","","493","","","68","22","","","1","22","training","adjacent","FG","6","7","R.jpg","M.jpg","0","1","0","",""
"","feedback","","html-keyboard-response","149","233931","0.0-1.0-204.0-0.0","0","0","59125","","null","","","null","22","","","","","","","","","","","","","","","",""
"","time_out","","html-keyboard-response","150","235933","0.0-1.0-206.0-0.0","0","0","59125","","null","","","null","22","","","","","","","","","","","","","","","",""
"","ITI","","html-keyboard-response","151","236936","0.0-1.0-207.0","0","0","59125","","null","","","null","22","","","","","","","","","","","","","","","NaN",""
"","S1","","html-keyboard-response","152","237190","0.0-1.0-209.0","0","0","59125","","null","","","null","23","","","","","","","","","","","","","","","",""
"","ISI","","html-keyboard-response","153","239193","0.0-1.0-210.0","0","0","59125","","null","","","null","23","NaN","","","","","","","","","","","","","","",""
"","S2","","html-keyboard-response","154","239445","0.0-1.0-211.0","0","0","59125","","null","","","null","23","","NaN","","","","","","","","","","","","","",""
"","response","","html-keyboard-response","155","240354","0.0-1.0-212.0","0","0","59125","","907","","","75","23","","","1","23","training","adjacent","DE","4","5","L.jpg","P.jpg","1","1","1","",""
"","feedback","","html-keyboard-response","156","241357","0.0-1.0-213.0-0.0","0","0","59125","","null","","","null","23","","","","","","","","","","","","","","","",""
"","ITI","","html-keyboard-response","157","242364","0.0-1.0-216.0","0","0","59125","","null","","","null","23","","","","","","","","","","","","","","","NaN",""
"","S1","","html-keyboard-response","158","242618","0.0-1.0-218.0","0","0","59125","","null","","","null","24","","","","","","","","","","","","","","","",""
"","ISI","","html-keyboard-response","159","244620","0.0-1.0-219.0","0","0","59125","","null","","","null","24","NaN","","","","","","","","","","","","","","",""
"","S2","","html-keyboard-response","160","244874","0.0-1.0-220.0","0","0","59125","","null","","","null","24","","NaN","","","","","","","","","","","","","",""
"","response","","html-keyboard-response","161","245761","0.0-1.0-221.0","0","0","59125","","885","","","68","24","","","1","24","training","adjacent","FE","6","5","R.jpg","P.jpg","0","0","1","",""
"","feedback","","html-keyboard-response","162","246763","0.0-1.0-222.0-0.0","0","0","59125","","null","","","null","24","","","","","","","","","","","","","","","",""
"","ITI","","html-keyboard-response","163","247764","0.0-1.0-225.0","0","0","59125","","null","","","null","24","","","","","","","","","","","","","","","NaN",""
"","S1","","html-keyboard-response","164","248018","0.0-1.0-227.0","0","0","59125","","null","","","null","25","","","","","","","","","","","","","","","",""
"","ISI","","html-keyboard-response","165","250020","0.0-1.0-228.0","0","0","59125","","null","","","null","25","NaN","","","","","","","","","","","","","","",""
"","S2","","html-keyboard-response","166","250273","0.0-1.0-229.0","0","0","59125","","null","","","null","25","","NaN","","","","","","","","","","","","","",""
"","response","","html-keyboard-response","167","250801","0.0-1.0-230.0","0","0","59125","","525","","","75","25","","","1","25","training","adjacent","BA","2","1","N.jpg","O.jpg","1","0","0","",""
"","feedback","","html-keyboard-response","168","251803","0.0-1.0-231.0-0.0","0","0","59125","","null","","","null","25","","","","","","","","","","","","","","","",""
"","time_out","","html-keyboard-response","169","253806","0.0-1.0-233.0-0.0","0","0","59125","","null","","","null","25","","","","","","","","","","","","","","","",""
"","ITI","","html-keyboard-response","170","254812","0.0-1.0-234.0","0","0","59125","","null","","","null","25","","","","","","","","","","","","","","","NaN",""
"","S1","","html-keyboard-response","171","255066","0.0-1.0-236.0","0","0","59125","","null","","","null","26","","","","","","","","","","","","","","","",""
"","ISI","","html-keyboard-response","172","257068","0.0-1.0-237.0","0","0","59125","","null","","","null","26","NaN","","","","","","","","","","","","","","",""
"","S2","","html-keyboard-response","173","257320","0.0-1.0-238.0","0","0","59125","","null","","","null","26","","NaN","","","","","","","","","","","","","",""
"","response","","html-keyboard-response","174","257797","0.0-1.0-239.0","0","0","59125","","475","","","75","26","","","1","26","training","adjacent","DC","4","3","L.jpg","Q.jpg","1","0","0","",""
"","feedback","","html-keyboard-response","175","258800","0.0-1.0-240.0-0.0","0","0","59125","","null","","","null","26","","","","","","","","","","","","","","","",""
"","time_out","","html-keyboard-response","176","260805","0.0-1.0-242.0-0.0","0","0","59125","","null","","","null","26","","","","","","","","","","","","","","","",""
"","ITI","","html-keyboard-response","177","261806","0.0-1.0-243.0","0","0","59125","","null","","","null","26","","","","","","","","","","","","","","","NaN",""
"","S1","","html-keyboard-response","178","262059","0.0-1.0-245.0","0","0","59125","","null","","","null","27","","","","","","","","","","","","","","","",""
"","ISI","","html-keyboard-response","179","264062","0.0-1.0-246.0","0","0","59125","","null","","","null","27","NaN","","","","","","","","","","","","","","",""
"","S2","","html-keyboard-response","180","264315","0.0-1.0-247.0","0","0","59125","","null","","","null","27","","NaN","","","","","","","","","","","","","",""
"","response","","html-keyboard-response","181","264770","0.0-1.0-248.0","0","0","59125","","452","","","75","27","","","1","27","training","adjacent","EF","5","6","P.jpg","R.jpg","1","1","1","",""
"","feedback","","html-keyboard-response","182","265775","0.0-1.0-249.0-0.0","0","0","59125","","null","","","null","27","","","","","","","","","","","","","","","",""
"","ITI","","html-keyboard-response","183","266779","0.0-1.0-252.0","0","0","59125","","null","","","null","27","","","","","","","","","","","","","","","NaN",""
"","S1","","html-keyboard-response","184","267032","0.0-1.0-254.0","0","0","59125","","null","","","null","28","","","","","","","","","","","","","","","",""
"","ISI","","html-keyboard-response","185","269036","0.0-1.0-255.0","0","0","59125","","null","","","null","28","NaN","","","","","","","","","","","","","","",""
"","S2","","html-keyboard-response","186","269293","0.0-1.0-256.0","0","0","59125","","null","","","null","28","","NaN","","","","","","","","","","","","","",""
"","response","","html-keyboard-response","187","269879","0.0-1.0-257.0","0","0","59125","","582","","","75","28","","","1","28","training","adjacent","AB","1","2","O.jpg","N.jpg","1","1","1","",""
"","feedback","","html-keyboard-response","188","270882","0.0-1.0-258.0-0.0","0","0","59125","","null","","","null","28","","","","","","","","","","","","","","","",""
"","ITI","","html-keyboard-response","189","271886","0.0-1.0-261.0","0","0","59125","","null","","","null","28","","","","","","","","","","","","","","","NaN",""
"","S1","","html-keyboard-response","190","272139","0.0-1.0-263.0","0","0","59125","","null","","","null","29","","","","","","","","","","","","","","","",""
"","ISI","","html-keyboard-response","191","274141","0.0-1.0-264.0","0","0","59125","","null","","","null","29","NaN","","","","","","","","","","","","","","",""
"","S2","","html-keyboard-response","192","274397","0.0-1.0-265.0","0","0","59125","","null","","","null","29","","NaN","","","","","","","","","","","","","",""
"","response","","html-keyboard-response","193","275059","0.0-1.0-266.0","0","0","59125","","658","","","75","29","","","1","29","training","adjacent","CD","3","4","Q.jpg","L.jpg","1","1","1","",""
"","feedback","","html-keyboard-response","194","276063","0.0-1.0-267.0-0.0","0","0","59125","","null","","","null","29","","","","","","","","","","","","","","","",""
"","ITI","","html-keyboard-response","195","277065","0.0-1.0-270.0","0","0","59125","","null","","","null","29","","","","","","","","","","","","","","","NaN",""
"","S1","","html-keyboard-response","196","277319","0.0-1.0-272.0","0","0","59125","","null","","","null","30","","","","","","","","","","","","","","","",""
"","ISI","","html-keyboard-response","197","279321","0.0-1.0-273.0","0","0","59125","","null","","","null","30","NaN","","","","","","","","","","","","","","",""
"","S2","","html-keyboard-response","198","279573","0.0-1.0-274.0","0","0","59125","","null","","","null","30","","NaN","","","","","","","","","","","","","",""
"","response","","html-keyboard-response","199","280306","0.0-1.0-275.0","0","0","59125","","731","","","68","30","","","1","30","training","adjacent","ED","5","4","P.jpg","L.jpg","0","0","1","",""
"","feedback","","html-keyboard-response","200","281308","0.0-1.0-276.0-0.0","0","0","59125","","null","","","null","30","","","","","","","","","","","","","","","",""
"","ITI","","html-keyboard-response","201","282311","0.0-1.0-279.0","0","0","59125","","null","","","null","30","","","","","","","","","","","","","","","NaN",""
"","S1","","html-keyboard-response","202","282566","0.0-1.0-281.0","0","0","59125","","null","","","null","31","","","","","","","","","","","","","","","",""
"","ISI","","html-keyboard-response","203","284570","0.0-1.0-282.0","0","0","59125","","null","","","null","31","NaN","","","","","","","","","","","","","","",""
"","S2","","html-keyboard-response","204","284823","0.0-1.0-283.0","0","0","59125","","null","","","null","31","","NaN","","","","","","","","","","","","","",""
"","response","","html-keyboard-response","205","285281","0.0-1.0-284.0","0","0","59125","","457","","","68","31","","","1","31","training","adjacent","DC","4","3","L.jpg","Q.jpg","0","0","1","",""
"","feedback","","html-keyboard-response","206","286283","0.0-1.0-285.0-0.0","0","0","59125","","null","","","null","31","","","","","","","","","","","","","","","",""
"","ITI","","html-keyboard-response","207","287286","0.0-1.0-288.0","0","0","59125","","null","","","null","31","","","","","","","","","","","","","","","NaN",""
"","S1","","html-keyboard-response","208","287538","0.0-1.0-290.0","0","0","59125","","null","","","null","32","","","","","","","","","","","","","","","",""
"","ISI","","html-keyboard-response","209","289540","0.0-1.0-291.0","0","0","59125","","null","","","null","32","NaN","","","","","","","","","","","","","","",""
"","S2","","html-keyboard-response","210","289792","0.0-1.0-292.0","0","0","59125","","null","","","null","32","","NaN","","","","","","","","","","","","","",""
"","response","","html-keyboard-response","211","290385","0.0-1.0-293.0","0","0","59125","","592","","","75","32","","","1","32","training","adjacent","BA","2","1","N.jpg","O.jpg","1","0","0","",""
"","feedback","","html-keyboard-response","212","291389","0.0-1.0-294.0-0.0","0","0","59125","","null","","","null","32","","","","","","","","","","","","","","","",""
"","time_out","","html-keyboard-response","213","293392","0.0-1.0-296.0-0.0","0","0","59125","","null","","","null","32","","","","","","","","","","","","","","","",""
"","ITI","","html-keyboard-response","214","294394","0.0-1.0-297.0","0","0","59125","","null","","","null","32","","","","","","","","","","","","","","","NaN",""
"","S1","","html-keyboard-response","215","294646","0.0-1.0-299.0","0","0","59125","","null","","","null","33","","","","","","","","","","","","","","","",""
"","ISI","","html-keyboard-response","216","296649","0.0-1.0-300.0","0","0","59125","","null","","","null","33","NaN","","","","","","","","","","","","","","",""
"","S2","","html-keyboard-response","217","296901","0.0-1.0-301.0","0","0","59125","","null","","","null","33","","NaN","","","","","","","","","","","","","",""
"","response","","html-keyboard-response","218","297715","0.0-1.0-302.0","0","0","59125","","811","","","68","33","","","1","33","training","adjacent","BA","2","1","N.jpg","O.jpg","0","0","1","",""
"","feedback","","html-keyboard-response","219","298717","0.0-1.0-303.0-0.0","0","0","59125","","null","","","null","33","","","","","","","","","","","","","","","",""
"","ITI","","html-keyboard-response","220","299720","0.0-1.0-306.0","0","0","59125","","null","","","null","33","","","","","","","","","","","","","","","NaN",""
"","S1","","html-keyboard-response","221","299971","0.0-1.0-308.0","0","0","59125","","null","","","null","34","","","","","","","","","","","","","","","",""
"","ISI","","html-keyboard-response","222","301973","0.0-1.0-309.0","0","0","59125","","null","","","null","34","NaN","","","","","","","","","","","","","","",""
"","S2","","html-keyboard-response","223","302226","0.0-1.0-310.0","0","0","59125","","null","","","null","34","","NaN","","","","","","","","","","","","","",""
"","response","","html-keyboard-response","224","302785","0.0-1.0-311.0","0","0","59125","","556","","","75","34","","","1","34","training","adjacent","BC","2","3","N.jpg","Q.jpg","1","1","1","",""
"","feedback","","html-keyboard-response","225","303787","0.0-1.0-312.0-0.0","0","0","59125","","null","","","null","34","","","","","","","","","","","","","","","",""
"","ITI","","html-keyboard-response","226","304790","0.0-1.0-315.0","0","0","59125","","null","","","null","34","","","","","","","","","","","","","","","NaN",""
"","S1","","html-keyboard-response","227","305043","0.0-1.0-317.0","0","0","59125","","null","","","null","35","","","","","","","","","","","","","","","",""
"","ISI","","html-keyboard-response","228","307045","0.0-1.0-318.0","0","0","59125","","null","","","null","35","NaN","","","","","","","","","","","","","","",""
"","S2","","html-keyboard-response","229","307297","0.0-1.0-319.0","0","0","59125","","null","","","null","35","","NaN","","","","","","","","","","","","","",""
"","response","","html-keyboard-response","230","308035","0.0-1.0-320.0","0","0","59125","","735","","","68","35","","","1","35","training","adjacent","DE","4","5","L.jpg","P.jpg","0","1","0","",""
"","feedback","","html-keyboard-response","231","309039","0.0-1.0-321.0-0.0","0","0","59125","","null","","","null","35","","","","","","","","","","","","","","","",""
"","time_out","","html-keyboard-response","232","311042","0.0-1.0-323.0-0.0","0","0","59125","","null","","","null","35","","","","","","","","","","","","","","","",""
"","ITI","","html-keyboard-response","233","312045","0.0-1.0-324.0","0","0","59125","","null","","","null","35","","","","","","","","","","","","","","","NaN",""
"","S1","","html-keyboard-response","234","312297","0.0-1.0-326.0","0","0","59125","","null","","","null","36","","","","","","","","","","","","","","","",""
"","ISI","","html-keyboard-response","235","314300","0.0-1.0-327.0","0","0","59125","","null","","","null","36","NaN","","","","","","","","","","","","","","",""
"","S2","","html-keyboard-response","236","314555","0.0-1.0-328.0","0","0","59125","","null","","","null","36","","NaN","","","","","","","","","","","","","",""
"","response","","html-keyboard-response","237","315410","0.0-1.0-329.0","0","0","59125","","852","","","68","36","","","1","36","training","adjacent","FG","6","7","R.jpg","M.jpg","0","1","0","",""
"","feedback","","html-keyboard-response","238","316414","0.0-1.0-330.0-0.0","0","0","59125","","null","","","null","36","","","","","","","","","","","","","","","",""
"","time_out","","html-keyboard-response","239","318416","0.0-1.0-332.0-0.0","0","0","59125","","null","","","null","36","","","","","","","","","","","","","","","",""
"","ITI","","html-keyboard-response","240","319419","0.0-1.0-333.0","0","0","59125","","null","","","null","36","","","","","","","","","","","","","","","NaN",""
"","S1","","html-keyboard-response","241","319672","0.0-1.0-335.0","0","0","59125","","null","","","null","37","","","","","","","","","","","","","","","",""
"","ISI","","html-keyboard-response","242","321676","0.0-1.0-336.0","0","0","59125","","null","","","null","37","NaN","","","","","","","","","","","","","","",""
"","S2","","html-keyboard-response","243","321931","0.0-1.0-337.0","0","0","59125","","null","","","null","37","","NaN","","","","","","","","","","","","","",""
"","response","","html-keyboard-response","244","322819","0.0-1.0-338.0","0","0","59125","","884","","","68","37","","","1","37","training","adjacent","ED","5","4","P.jpg","L.jpg","0","0","1","",""
"","feedback","","html-keyboard-response","245","323824","0.0-1.0-339.0-0.0","0","0","59125","","null","","","null","37","","","","","","","","","","","","","","","",""
"","ITI","","html-keyboard-response","246","324829","0.0-1.0-342.0","0","0","59125","","null","","","null","37","","","","","","","","","","","","","","","NaN",""
"","S1","","html-keyboard-response","247","325082","0.0-1.0-344.0","0","0","59125","","null","","","null","38","","","","","","","","","","","","","","","",""
"","ISI","","html-keyboard-response","248","327084","0.0-1.0-345.0","0","0","59125","","null","","","null","38","NaN","","","","","","","","","","","","","","",""
"","S2","","html-keyboard-response","249","327337","0.0-1.0-346.0","0","0","59125","","null","","","null","38","","NaN","","","","","","","","","","","","","",""
"","response","","html-keyboard-response","250","327938","0.0-1.0-347.0","0","0","59125","","599","","","75","38","","","1","38","training","adjacent","AB","1","2","O.jpg","N.jpg","1","1","1","",""
"","feedback","","html-keyboard-response","251","328940","0.0-1.0-348.0-0.0","0","0","59125","","null","","","null","38","","","","","","","","","","","","","","","",""
"","ITI","","html-keyboard-response","252","329943","0.0-1.0-351.0","0","0","59125","","null","","","null","38","","","","","","","","","","","","","","","NaN",""
"","S1","","html-keyboard-response","253","330196","0.0-1.0-353.0","0","0","59125","","null","","","null","39","","","","","","","","","","","","","","","",""
"","ISI","","html-keyboard-response","254","332198","0.0-1.0-354.0","0","0","59125","","null","","","null","39","NaN","","","","","","","","","","","","","","",""
"","S2","","html-keyboard-response","255","332452","0.0-1.0-355.0","0","0","59125","","null","","","null","39","","NaN","","","","","","","","","","","","","",""
"","response","","html-keyboard-response","256","333045","0.0-1.0-356.0","0","0","59125","","588","","","75","39","","","1","39","training","adjacent","GF","7","6","M.jpg","R.jpg","1","0","0","",""
"","feedback","","html-keyboard-response","257","334053","0.0-1.0-357.0-0.0","0","0","59125","","null","","","null","39","","","","","","","","","","","","","","","",""
"","time_out","","html-keyboard-response","258","336055","0.0-1.0-359.0-0.0","0","0","59125","","null","","","null","39","","","","","","","","","","","","","","","",""
"","ITI","","html-keyboard-response","259","337058","0.0-1.0-360.0","0","0","59125","","null","","","null","39","","","","","","","","","","","","","","","NaN",""
"","S1","","html-keyboard-response","260","337311","0.0-1.0-362.0","0","0","59125","","null","","","null","40","","","","","","","","","","","","","","","",""
"","ISI","","html-keyboard-response","261","339315","0.0-1.0-363.0","0","0","59125","","null","","","null","40","NaN","","","","","","","","","","","","","","",""
"","S2","","html-keyboard-response","262","339569","0.0-1.0-364.0","0","0","59125","","null","","","null","40","","NaN","","","","","","","","","","","","","",""
"","response","","html-keyboard-response","263","339889","0.0-1.0-365.0","0","0","59125","","317","","","68","40","","","1","40","training","adjacent","FE","6","5","R.jpg","P.jpg","0","0","1","",""
"","feedback","","html-keyboard-response","264","340892","0.0-1.0-366.0-0.0","0","0","59125","","null","","","null","40","","","","","","","","","","","","","","","",""
"","ITI","","html-keyboard-response","265","341895","0.0-1.0-369.0","0","0","59125","","null","","","null","40","","","","","","","","","","","","","","","NaN",""
"","S1","","html-keyboard-response","266","342149","0.0-1.0-371.0","0","0","59125","","null","","","null","41","","","","","","","","","","","","","","","",""
"","ISI","","html-keyboard-response","267","344150","0.0-1.0-372.0","0","0","59125","","null","","","null","41","NaN","","","","","","","","","","","","","","",""
"","S2","","html-keyboard-response","268","344403","0.0-1.0-373.0","0","0","59125","","null","","","null","41","","NaN","","","","","","","","","","","","","",""
"","response","","html-keyboard-response","269","345138","0.0-1.0-374.0","0","0","59125","","732","","","75","41","","","1","41","training","adjacent","ED","5","4","P.jpg","L.jpg","1","0","0","",""
"","feedback","","html-keyboard-response","270","346142","0.0-1.0-375.0-0.0","0","0","59125","","null","","","null","41","","","","","","","","","","","","","","","",""
"","time_out","","html-keyboard-response","271","348145","0.0-1.0-377.0-0.0","0","0","59125","","null","","","null","41","","","","","","","","","","","","","","","",""
"","ITI","","html-keyboard-response","272","349147","0.0-1.0-378.0","0","0","59125","","null","","","null","41","","","","","","","","","","","","","","","NaN",""
"","S1","","html-keyboard-response","273","349400","0.0-1.0-380.0","0","0","59125","","null","","","null","42","","","","","","","","","","","","","","","",""
"","ISI","","html-keyboard-response","274","351402","0.0-1.0-381.0","0","0","59125","","null","","","null","42","NaN","","","","","","","","","","","","","","",""
"","S2","","html-keyboard-response","275","351655","0.0-1.0-382.0","0","0","59125","","null","","","null","42","","NaN","","","","","","","","","","","","","",""
"","response","","html-keyboard-response","276","351889","0.0-1.0-383.0","0","0","59125","","232","","","75","42","","","1","42","training","adjacent","CD","3","4","Q.jpg","L.jpg","1","1","1","",""
"","feedback","","html-keyboard-response","277","352891","0.0-1.0-384.0-0.0","0","0","59125","","null","","","null","42","","","","","","","","","","","","","","","",""
"","ITI","","html-keyboard-response","278","353893","0.0-1.0-387.0","0","0","59125","","null","","","null","42","","","","","","","","","","","","","","","NaN",""
"","S1","","html-keyboard-response","279","354146","0.0-1.0-389.0","0","0","59125","","null","","","null","43","","","","","","","","","","","","","","","",""
"","ISI","","html-keyboard-response","280","356149","0.0-1.0-390.0","0","0","59125","","null","","","null","43","NaN","","","","","","","","","","","","","","",""
"","S2","","html-keyboard-response","281","356400","0.0-1.0-391.0","0","0","59125","","null","","","null","43","","NaN","","","","","","","","","","","","","",""
"","response","","html-keyboard-response","282","356948","0.0-1.0-392.0","0","0","59125","","544","","","75","43","","","1","43","training","adjacent","BC","2","3","N.jpg","Q.jpg","1","1","1","",""
"","feedback","","html-keyboard-response","283","357951","0.0-1.0-393.0-0.0","0","0","59125","","null","","","null","43","","","","","","","","","","","","","","","",""
"","ITI","","html-keyboard-response","284","358953","0.0-1.0-396.0","0","0","59125","","null","","","null","43","","","","","","","","","","","","","","","NaN",""
"","S1","","html-keyboard-response","285","359210","0.0-1.0-398.0","0","0","59125","","null","","","null","44","","","","","","","","","","","","","","","",""
"","ISI","","html-keyboard-response","286","361211","0.0-1.0-399.0","0","0","59125","","null","","","null","44","NaN","","","","","","","","","","","","","","",""
"","S2","","html-keyboard-response","287","361464","0.0-1.0-400.0","0","0","59125","","null","","","null","44","","NaN","","","","","","","","","","","","","",""
"","response","","html-keyboard-response","288","362017","0.0-1.0-401.0","0","0","59125","","552","","","75","44","","","1","44","training","adjacent","FG","6","7","R.jpg","M.jpg","1","1","1","",""
"","feedback","","html-keyboard-response","289","363019","0.0-1.0-402.0-0.0","0","0","59125","","null","","","null","44","","","","","","","","","","","","","","","",""
"","ITI","","html-keyboard-response","290","364021","0.0-1.0-405.0","0","0","59125","","null","","","null","44","","","","","","","","","","","","","","","NaN",""
"","S1","","html-keyboard-response","291","364274","0.0-1.0-407.0","0","0","59125","","null","","","null","45","","","","","","","","","","","","","","","",""
"","ISI","","html-keyboard-response","292","366279","0.0-1.0-408.0","0","0","59125","","null","","","null","45","NaN","","","","","","","","","","","","","","",""
"","S2","","html-keyboard-response","293","366534","0.0-1.0-409.0","0","0","59125","","null","","","null","45","","NaN","","","","","","","","","","","","","",""
"","response","","html-keyboard-response","294","366896","0.0-1.0-410.0","0","0","59125","","360","","","75","45","","","1","45","training","adjacent","EF","5","6","P.jpg","R.jpg","1","1","1","",""
"","feedback","","html-keyboard-response","295","367899","0.0-1.0-411.0-0.0","0","0","59125","","null","","","null","45","","","","","","","","","","","","","","","",""
"","ITI","","html-keyboard-response","296","368902","0.0-1.0-414.0","0","0","59125","","null","","","null","45","","","","","","","","","","","","","","","NaN",""
"","S1","","html-keyboard-response","297","369155","0.0-1.0-416.0","0","0","59125","","null","","","null","46","","","","","","","","","","","","","","","",""
"","ISI","","html-keyboard-response","298","371158","0.0-1.0-417.0","0","0","59125","","null","","","null","46","NaN","","","","","","","","","","","","","","",""
"","S2","","html-keyboard-response","299","371410","0.0-1.0-418.0","0","0","59125","","null","","","null","46","","NaN","","","","","","","","","","","","","",""
"","response","","html-keyboard-response","300","371779","0.0-1.0-419.0","0","0","59125","","365","","","75","46","","","1","46","training","adjacent","EF","5","6","P.jpg","R.jpg","1","1","1","",""
"","feedback","","html-keyboard-response","301","372785","0.0-1.0-420.0-0.0","0","0","59125","","null","","","null","46","","","","","","","","","","","","","","","",""
"","ITI","","html-keyboard-response","302","373788","0.0-1.0-423.0","0","0","59125","","null","","","null","46","","","","","","","","","","","","","","","NaN",""
"","S1","","html-keyboard-response","303","374041","0.0-1.0-425.0","0","0","59125","","null","","","null","47","","","","","","","","","","","","","","","",""
"","ISI","","html-keyboard-response","304","376043","0.0-1.0-426.0","0","0","59125","","null","","","null","47","NaN","","","","","","","","","","","","","","",""
"","S2","","html-keyboard-response","305","376297","0.0-1.0-427.0","0","0","59125","","null","","","null","47","","NaN","","","","","","","","","","","","","",""
"","response","","html-keyboard-response","306","376963","0.0-1.0-428.0","0","0","59125","","662","","","68","47","","","1","47","training","adjacent","AB","1","2","O.jpg","N.jpg","0","1","0","",""
"","feedback","","html-keyboard-response","307","377966","0.0-1.0-429.0-0.0","0","0","59125","","null","","","null","47","","","","","","","","","","","","","","","",""
"","time_out","","html-keyboard-response","308","379968","0.0-1.0-431.0-0.0","0","0","59125","","null","","","null","47","","","","","","","","","","","","","","","",""
"","ITI","","html-keyboard-response","309","380972","0.0-1.0-432.0","0","0","59125","","null","","","null","47","","","","","","","","","","","","","","","NaN",""
"","block_over","","html-keyboard-response","310","383809","0.0-1.0-433.0-0.0","0","0","59125","","2833","","","32","47","","","","","","","","","","","","","","","",""
"","S1","","html-keyboard-response","311","384062","0.0-1.0-434.0","0","0","59125","","null","","","null","48","","","","","","","","","","","","","","","",""
"","ISI","","html-keyboard-response","312","386065","0.0-1.0-435.0","0","0","59125","","null","","","null","48","NaN","","","","","","","","","","","","","","",""
"","S2","","html-keyboard-response","313","386317","0.0-1.0-436.0","0","0","59125","","null","","","null","48","","NaN","","","","","","","","","","","","","",""
"","response","","html-keyboard-response","314","386690","0.0-1.0-437.0","0","0","59125","","369","","","75","48","","","2","48","training","adjacent","CD","3","4","Q.jpg","L.jpg","1","1","1","",""
"","feedback","","html-keyboard-response","315","387698","0.0-1.0-438.0-0.0","0","0","59125","","null","","","null","48","","","","","","","","","","","","","","","",""
"","ITI","","html-keyboard-response","316","388701","0.0-1.0-441.0","0","0","59125","","null","","","null","48","","","","","","","","","","","","","","","NaN",""
"","S1","","html-keyboard-response","317","388953","0.0-1.0-443.0","0","0","59125","","null","","","null","49","","","","","","","","","","","","","","","",""
"","ISI","","html-keyboard-response","318","390955","0.0-1.0-444.0","0","0","59125","","null","","","null","49","NaN","","","","","","","","","","","","","","",""
"","S2","","html-keyboard-response","319","391211","0.0-1.0-445.0","0","0","59125","","null","","","null","49","","NaN","","","","","","","","","","","","","",""
"","response","","html-keyboard-response","320","391761","0.0-1.0-446.0","0","0","59125","","549","","","75","49","","","2","49","training","adjacent","GF","7","6","M.jpg","R.jpg","1","0","0","",""
"","feedback","","html-keyboard-response","321","392764","0.0-1.0-447.0-0.0","0","0","59125","","null","","","null","49","","","","","","","","","","","","","","","",""
"","time_out","","html-keyboard-response","322","394765","0.0-1.0-449.0-0.0","0","0","59125","","null","","","null","49","","","","","","","","","","","","","","","",""
"","ITI","","html-keyboard-response","323","395768","0.0-1.0-450.0","0","0","59125","","null","","","null","49","","","","","","","","","","","","","","","NaN",""
"","S1","","html-keyboard-response","324","396020","0.0-1.0-452.0","0","0","59125","","null","","","null","50","","","","","","","","","","","","","","","",""
"","ISI","","html-keyboard-response","325","398022","0.0-1.0-453.0","0","0","59125","","null","","","null","50","NaN","","","","","","","","","","","","","","",""
"","S2","","html-keyboard-response","326","398275","0.0-1.0-454.0","0","0","59125","","null","","","null","50","","NaN","","","","","","","","","","","","","",""
"","response","","html-keyboard-response","327","398819","0.0-1.0-455.0","0","0","59125","","543","","","75","50","","","2","50","training","adjacent","CB","3","2","Q.jpg","N.jpg","1","0","0","",""
"","feedback","","html-keyboard-response","328","399823","0.0-1.0-456.0-0.0","0","0","59125","","null","","","null","50","","","","","","","","","","","","","","","",""
"","time_out","","html-keyboard-response","329","401826","0.0-1.0-458.0-0.0","0","0","59125","","null","","","null","50","","","","","","","","","","","","","","","",""
"","ITI","","html-keyboard-response","330","402829","0.0-1.0-459.0","0","0","59125","","null","","","null","50","","","","","","","","","","","","","","","NaN",""
"","S1","","html-keyboard-response","331","403082","0.0-1.0-461.0","0","0","59125","","null","","","null","51","","","","","","","","","","","","","","","",""
"","ISI","","html-keyboard-response","332","405083","0.0-1.0-462.0","0","0","59125","","null","","","null","51","NaN","","","","","","","","","","","","","","",""
"","S2","","html-keyboard-response","333","405339","0.0-1.0-463.0","0","0","59125","","null","","","null","51","","NaN","","","","","","","","","","","","","",""
"","response","","html-keyboard-response","334","405953","0.0-1.0-464.0","0","0","59125","","612","","","75","51","","","2","51","training","adjacent","BA","2","1","N.jpg","O.jpg","1","0","0","",""
"","feedback","","html-keyboard-response","335","406956","0.0-1.0-465.0-0.0","0","0","59125","","null","","","null","51","","","","","","","","","","","","","","","",""
"","time_out","","html-keyboard-response","336","408959","0.0-1.0-467.0-0.0","0","0","59125","","null","","","null","51","","","","","","","","","","","","","","","",""
"","ITI","","html-keyboard-response","337","409962","0.0-1.0-468.0","0","0","59125","","null","","","null","51","","","","","","","","","","","","","","","NaN",""
"","S1","","html-keyboard-response","338","410217","0.0-1.0-470.0","0","0","59125","","null","","","null","52","","","","","","","","","","","","","","","",""
"","ISI","","html-keyboard-response","339","412219","0.0-1.0-471.0","0","0","59125","","null","","","null","52","NaN","","","","","","","","","","","","","","",""
"","S2","","html-keyboard-response","340","412472","0.0-1.0-472.0","0","0","59125","","null","","","null","52","","NaN","","","","","","","","","","","","","",""
"","response","","html-keyboard-response","341","413138","0.0-1.0-473.0","0","0","59125","","663","","","68","52","","","2","52","training","adjacent","CB","3","2","Q.jpg","N.jpg","0","0","1","",""
"","feedback","","html-keyboard-response","342","414141","0.0-1.0-474.0-0.0","0","0","59125","","null","","","null","52","","","","","","","","","","","","","","","",""
"","ITI","","html-keyboard-response","343","415145","0.0-1.0-477.0","0","0","59125","","null","","","null","52","","","","","","","","","","","","","","","NaN",""
"","S1","","html-keyboard-response","344","415398","0.0-1.0-479.0","0","0","59125","","null","","","null","53","","","","","","","","","","","","","","","",""
"","ISI","","html-keyboard-response","345","417401","0.0-1.0-480.0","0","0","59125","","null","","","null","53","NaN","","","","","","","","","","","","","","",""
"","S2","","html-keyboard-response","346","417657","0.0-1.0-481.0","0","0","59125","","null","","","null","53","","NaN","","","","","","","","","","","","","",""
"","response","","html-keyboard-response","347","419282","0.0-1.0-482.0","0","0","59125","","1621","","","75","53","","","2","53","training","adjacent","BA","2","1","N.jpg","O.jpg","1","0","0","",""
"","feedback","","html-keyboard-response","348","420284","0.0-1.0-483.0-0.0","0","0","59125","","null","","","null","53","","","","","","","","","","","","","","","",""
"","time_out","","html-keyboard-response","349","422286","0.0-1.0-485.0-0.0","0","0","59125","","null","","","null","53","","","","","","","","","","","","","","","",""
"","ITI","","html-keyboard-response","350","423288","0.0-1.0-486.0","0","0","59125","","null","","","null","53","","","","","","","","","","","","","","","NaN",""
"","S1","","html-keyboard-response","351","423542","0.0-1.0-488.0","0","0","59125","","null","","","null","54","","","","","","","","","","","","","","","",""
"","ISI","","html-keyboard-response","352","425544","0.0-1.0-489.0","0","0","59125","","null","","","null","54","NaN","","","","","","","","","","","","","","",""
"","S2","","html-keyboard-response","353","425797","0.0-1.0-490.0","0","0","59125","","null","","","null","54","","NaN","","","","","","","","","","","","","",""
"","response","","html-keyboard-response","354","426454","0.0-1.0-491.0","0","0","59125","","652","","","75","54","","","2","54","training","adjacent","EF","5","6","P.jpg","R.jpg","1","1","1","",""
"","feedback","","html-keyboard-response","355","427458","0.0-1.0-492.0-0.0","0","0","59125","","null","","","null","54","","","","","","","","","","","","","","","",""
"","ITI","","html-keyboard-response","356","428460","0.0-1.0-495.0","0","0","59125","","null","","","null","54","","","","","","","","","","","","","","","NaN",""
"","S1","","html-keyboard-response","357","428714","0.0-1.0-497.0","0","0","59125","","null","","","null","55","","","","","","","","","","","","","","","",""
"","ISI","","html-keyboard-response","358","430716","0.0-1.0-498.0","0","0","59125","","null","","","null","55","NaN","","","","","","","","","","","","","","",""
"","S2","","html-keyboard-response","359","430969","0.0-1.0-499.0","0","0","59125","","null","","","null","55","","NaN","","","","","","","","","","","","","",""
"","response","","html-keyboard-response","360","431602","0.0-1.0-500.0","0","0","59125","","630","","","75","55","","","2","55","training","adjacent","FG","6","7","R.jpg","M.jpg","1","1","1","",""
"","feedback","","html-keyboard-response","361","432605","0.0-1.0-501.0-0.0","0","0","59125","","null","","","null","55","","","","","","","","","","","","","","","",""
"","ITI","","html-keyboard-response","362","433609","0.0-1.0-504.0","0","0","59125","","null","","","null","55","","","","","","","","","","","","","","","NaN",""
"","S1","","html-keyboard-response","363","433862","0.0-1.0-506.0","0","0","59125","","null","","","null","56","","","","","","","","","","","","","","","",""
"","ISI","","html-keyboard-response","364","435865","0.0-1.0-507.0","0","0","59125","","null","","","null","56","NaN","","","","","","","","","","","","","","",""
"","S2","","html-keyboard-response","365","436118","0.0-1.0-508.0","0","0","59125","","null","","","null","56","","NaN","","","","","","","","","","","","","",""
"","response","","html-keyboard-response","366","436691","0.0-1.0-509.0","0","0","59125","","571","","","75","56","","","2","56","training","adjacent","EF","5","6","P.jpg","R.jpg","1","1","1","",""
"","feedback","","html-keyboard-response","367","437694","0.0-1.0-510.0-0.0","0","0","59125","","null","","","null","56","","","","","","","","","","","","","","","",""
"","ITI","","html-keyboard-response","368","438700","0.0-1.0-513.0","0","0","59125","","null","","","null","56","","","","","","","","","","","","","","","NaN",""
"","S1","","html-keyboard-response","369","438953","0.0-1.0-515.0","0","0","59125","","null","","","null","57","","","","","","","","","","","","","","","",""
"","ISI","","html-keyboard-response","370","440955","0.0-1.0-516.0","0","0","59125","","null","","","null","57","NaN","","","","","","","","","","","","","","",""
"","S2","","html-keyboard-response","371","441208","0.0-1.0-517.0","0","0","59125","","null","","","null","57","","NaN","","","","","","","","","","","","","",""
"","response","","html-keyboard-response","372","441651","0.0-1.0-518.0","0","0","59125","","439","","","68","57","","","2","57","training","adjacent","AB","1","2","O.jpg","N.jpg","0","1","0","",""
"","feedback","","html-keyboard-response","373","442653","0.0-1.0-519.0-0.0","0","0","59125","","null","","","null","57","","","","","","","","","","","","","","","",""
"","time_out","","html-keyboard-response","374","444655","0.0-1.0-521.0-0.0","0","0","59125","","null","","","null","57","","","","","","","","","","","","","","","",""
"","ITI","","html-keyboard-response","375","445657","0.0-1.0-522.0","0","0","59125","","null","","","null","57","","","","","","","","","","","","","","","NaN",""
"","S1","","html-keyboard-response","376","445910","0.0-1.0-524.0","0","0","59125","","null","","","null","58","","","","","","","","","","","","","","","",""
"","ISI","","html-keyboard-response","377","447913","0.0-1.0-525.0","0","0","59125","","null","","","null","58","NaN","","","","","","","","","","","","","","",""
"","S2","","html-keyboard-response","378","448170","0.0-1.0-526.0","0","0","59125","","null","","","null","58","","NaN","","","","","","","","","","","","","",""
"","response","","html-keyboard-response","379","448661","0.0-1.0-527.0","0","0","59125","","489","","","75","58","","","2","58","training","adjacent","BC","2","3","N.jpg","Q.jpg","1","1","1","",""
"","feedback","","html-keyboard-response","380","449669","0.0-1.0-528.0-0.0","0","0","59125","","null","","","null","58","","","","","","","","","","","","","","","",""
"","ITI","","html-keyboard-response","381","450672","0.0-1.0-531.0","0","0","59125","","null","","","null","58","","","","","","","","","","","","","","","NaN",""
"","S1","","html-keyboard-response","382","450925","0.0-1.0-533.0","0","0","59125","","null","","","null","59","","","","","","","","","","","","","","","",""
"","ISI","","html-keyboard-response","383","452928","0.0-1.0-534.0","0","0","59125","","null","","","null","59","NaN","","","","","","","","","","","","","","",""
"","S2","","html-keyboard-response","384","453182","0.0-1.0-535.0","0","0","59125","","null","","","null","59","","NaN","","","","","","","","","","","","","",""
"","response","","html-keyboard-response","385","454048","0.0-1.0-536.0","0","0","59125","","865","","","75","59","","","2","59","training","adjacent","EF","5","6","P.jpg","R.jpg","1","1","1","",""
"","feedback","","html-keyboard-response","386","455051","0.0-1.0-537.0-0.0","0","0","59125","","null","","","null","59","","","","","","","","","","","","","","","",""
"","ITI","","html-keyboard-response","387","456054","0.0-1.0-540.0","0","0","59125","","null","","","null","59","","","","","","","","","","","","","","","NaN",""
"","S1","","html-keyboard-response","388","456305","0.0-1.0-542.0","0","0","59125","","null","","","null","60","","","","","","","","","","","","","","","",""
"","ISI","","html-keyboard-response","389","458307","0.0-1.0-543.0","0","0","59125","","null","","","null","60","NaN","","","","","","","","","","","","","","",""
"","S2","","html-keyboard-response","390","458562","0.0-1.0-544.0","0","0","59125","","null","","","null","60","","NaN","","","","","","","","","","","","","",""
"","response","","html-keyboard-response","391","459282","0.0-1.0-545.0","0","0","59125","","717","","","75","60","","","2","60","training","adjacent","DE","4","5","L.jpg","P.jpg","1","1","1","",""
"","feedback","","html-keyboard-response","392","460289","0.0-1.0-546.0-0.0","0","0","59125","","null","","","null","60","","","","","","","","","","","","","","","",""
"","ITI","","html-keyboard-response","393","461291","0.0-1.0-549.0","0","0","59125","","null","","","null","60","","","","","","","","","","","","","","","NaN",""
"","S1","","html-keyboard-response","394","461544","0.0-1.0-551.0","0","0","59125","","null","","","null","61","","","","","","","","","","","","","","","",""
"","ISI","","html-keyboard-response","395","463547","0.0-1.0-552.0","0","0","59125","","null","","","null","61","NaN","","","","","","","","","","","","","","",""
"","S2","","html-keyboard-response","396","463799","0.0-1.0-553.0","0","0","59125","","null","","","null","61","","NaN","","","","","","","","","","","","","",""
"","response","","html-keyboard-response","397","464514","0.0-1.0-554.0","0","0","59125","","713","","","68","61","","","2","61","training","adjacent","CD","3","4","Q.jpg","L.jpg","0","1","0","",""
"","feedback","","html-keyboard-response","398","465517","0.0-1.0-555.0-0.0","0","0","59125","","null","","","null","61","","","","","","","","","","","","","","","",""
"","time_out","","html-keyboard-response","399","467521","0.0-1.0-557.0-0.0","0","0","59125","","null","","","null","61","","","","","","","","","","","","","","","",""
"","ITI","","html-keyboard-response","400","468522","0.0-1.0-558.0","0","0","59125","","null","","","null","61","","","","","","","","","","","","","","","NaN",""
"","S1","","html-keyboard-response","401","468777","0.0-1.0-560.0","0","0","59125","","null","","","null","62","","","","","","","","","","","","","","","",""
"","ISI","","html-keyboard-response","402","470778","0.0-1.0-561.0","0","0","59125","","null","","","null","62","NaN","","","","","","","","","","","","","","",""
"","S2","","html-keyboard-response","403","471034","0.0-1.0-562.0","0","0","59125","","null","","","null","62","","NaN","","","","","","","","","","","","","",""
"","response","","html-keyboard-response","404","471570","0.0-1.0-563.0","0","0","59125","","534","","","75","62","","","2","62","training","adjacent","DE","4","5","L.jpg","P.jpg","1","1","1","",""
"","feedback","","html-keyboard-response","405","472575","0.0-1.0-564.0-0.0","0","0","59125","","null","","","null","62","","","","","","","","","","","","","","","",""
"","ITI","","html-keyboard-response","406","473577","0.0-1.0-567.0","0","0","59125","","null","","","null","62","","","","","","","","","","","","","","","NaN",""
"","S1","","html-keyboard-response","407","473839","0.0-1.0-569.0","0","0","59125","","null","","","null","63","","","","","","","","","","","","","","","",""
"","ISI","","html-keyboard-response","408","475845","0.0-1.0-570.0","0","0","59125","","null","","","null","63","NaN","","","","","","","","","","","","","","",""
"","S2","","html-keyboard-response","409","476098","0.0-1.0-571.0","0","0","59125","","null","","","null","63","","NaN","","","","","","","","","","","","","",""
"","response","","html-keyboard-response","410","476625","0.0-1.0-572.0","0","0","59125","","526","","","75","63","","","2","63","training","adjacent","BC","2","3","N.jpg","Q.jpg","1","1","1","",""
"","feedback","","html-keyboard-response","411","477629","0.0-1.0-573.0-0.0","0","0","59125","","null","","","null","63","","","","","","","","","","","","","","","",""
"","ITI","","html-keyboard-response","412","478632","0.0-1.0-576.0","0","0","59125","","null","","","null","63","","","","","","","","","","","","","","","NaN",""
"","S1","","html-keyboard-response","413","478883","0.0-1.0-578.0","0","0","59125","","null","","","null","64","","","","","","","","","","","","","","","",""
"","ISI","","html-keyboard-response","414","480885","0.0-1.0-579.0","0","0","59125","","null","","","null","64","NaN","","","","","","","","","","","","","","",""
"","S2","","html-keyboard-response","415","481138","0.0-1.0-580.0","0","0","59125","","null","","","null","64","","NaN","","","","","","","","","","","","","",""
"","response","","html-keyboard-response","416","481459","0.0-1.0-581.0","0","0","59125","","319","","","68","64","","","2","64","training","adjacent","DC","4","3","L.jpg","Q.jpg","0","0","1","",""
"","feedback","","html-keyboard-response","417","482463","0.0-1.0-582.0-0.0","0","0","59125","","null","","","null","64","","","","","","","","","","","","","","","",""
"","ITI","","html-keyboard-response","418","483466","0.0-1.0-585.0","0","0","59125","","null","","","null","64","","","","","","","","","","","","","","","NaN",""
"","S1","","html-keyboard-response","419","483720","0.0-1.0-587.0","0","0","59125","","null","","","null","65","","","","","","","","","","","","","","","",""
"","ISI","","html-keyboard-response","420","485721","0.0-1.0-588.0","0","0","59125","","null","","","null","65","NaN","","","","","","","","","","","","","","",""
"","S2","","html-keyboard-response","421","485979","0.0-1.0-589.0","0","0","59125","","null","","","null","65","","NaN","","","","","","","","","","","","","",""
"","response","","html-keyboard-response","422","486421","0.0-1.0-590.0","0","0","59125","","438","","","75","65","","","2","65","training","adjacent","DE","4","5","L.jpg","P.jpg","1","1","1","",""
"","feedback","","html-keyboard-response","423","487430","0.0-1.0-591.0-0.0","0","0","59125","","null","","","null","65","","","","","","","","","","","","","","","",""
"","ITI","","html-keyboard-response","424","488433","0.0-1.0-594.0","0","0","59125","","null","","","null","65","","","","","","","","","","","","","","","NaN",""
"","S1","","html-keyboard-response","425","488686","0.0-1.0-596.0","0","0","59125","","null","","","null","66","","","","","","","","","","","","","","","",""
"","ISI","","html-keyboard-response","426","490688","0.0-1.0-597.0","0","0","59125","","null","","","null","66","NaN","","","","","","","","","","","","","","",""
"","S2","","html-keyboard-response","427","490941","0.0-1.0-598.0","0","0","59125","","null","","","null","66","","NaN","","","","","","","","","","","","","",""
"","response","","html-keyboard-response","428","491378","0.0-1.0-599.0","0","0","59125","","435","","","75","66","","","2","66","training","adjacent","EF","5","6","P.jpg","R.jpg","1","1","1","",""
"","feedback","","html-keyboard-response","429","492382","0.0-1.0-600.0-0.0","0","0","59125","","null","","","null","66","","","","","","","","","","","","","","","",""
"","ITI","","html-keyboard-response","430","493384","0.0-1.0-603.0","0","0","59125","","null","","","null","66","","","","","","","","","","","","","","","NaN",""
"","S1","","html-keyboard-response","431","493637","0.0-1.0-605.0","0","0","59125","","null","","","null","67","","","","","","","","","","","","","","","",""
"","ISI","","html-keyboard-response","432","495640","0.0-1.0-606.0","0","0","59125","","null","","","null","67","NaN","","","","","","","","","","","","","","",""
"","S2","","html-keyboard-response","433","495894","0.0-1.0-607.0","0","0","59125","","null","","","null","67","","NaN","","","","","","","","","","","","","",""
"","response","","html-keyboard-response","434","496340","0.0-1.0-608.0","0","0","59125","","442","","","68","67","","","2","67","training","adjacent","FE","6","5","R.jpg","P.jpg","0","0","1","",""
"","feedback","","html-keyboard-response","435","497345","0.0-1.0-609.0-0.0","0","0","59125","","null","","","null","67","","","","","","","","","","","","","","","",""
"","ITI","","html-keyboard-response","436","498348","0.0-1.0-612.0","0","0","59125","","null","","","null","67","","","","","","","","","","","","","","","NaN",""
"","S1","","html-keyboard-response","437","498602","0.0-1.0-614.0","0","0","59125","","null","","","null","68","","","","","","","","","","","","","","","",""
"","ISI","","html-keyboard-response","438","500605","0.0-1.0-615.0","0","0","59125","","null","","","null","68","NaN","","","","","","","","","","","","","","",""
"","S2","","html-keyboard-response","439","500857","0.0-1.0-616.0","0","0","59125","","null","","","null","68","","NaN","","","","","","","","","","","","","",""
"","response","","html-keyboard-response","440","501715","0.0-1.0-617.0","0","0","59125","","854","","","68","68","","","2","68","training","adjacent","DE","4","5","L.jpg","P.jpg","0","1","0","",""
"","feedback","","html-keyboard-response","441","502719","0.0-1.0-618.0-0.0","0","0","59125","","null","","","null","68","","","","","","","","","","","","","","","",""
"","time_out","","html-keyboard-response","442","504721","0.0-1.0-620.0-0.0","0","0","59125","","null","","","null","68","","","","","","","","","","","","","","","",""
"","ITI","","html-keyboard-response","443","505723","0.0-1.0-621.0","0","0","59125","","null","","","null","68","","","","","","","","","","","","","","","NaN",""
"","S1","","html-keyboard-response","444","505977","0.0-1.0-623.0","0","0","59125","","null","","","null","69","","","","","","","","","","","","","","","",""
"","ISI","","html-keyboard-response","445","507978","0.0-1.0-624.0","0","0","59125","","null","","","null","69","NaN","","","","","","","","","","","","","","",""
"","S2","","html-keyboard-response","446","508231","0.0-1.0-625.0","0","0","59125","","null","","","null","69","","NaN","","","","","","","","","","","","","",""
"","response","","html-keyboard-response","447","509138","0.0-1.0-626.0","0","0","59125","","906","","","68","69","","","2","69","training","adjacent","ED","5","4","P.jpg","L.jpg","0","0","1","",""
"","feedback","","html-keyboard-response","448","510142","0.0-1.0-627.0-0.0","0","0","59125","","null","","","null","69","","","","","","","","","","","","","","","",""
"","ITI","","html-keyboard-response","449","511146","0.0-1.0-630.0","0","0","59125","","null","","","null","69","","","","","","","","","","","","","","","NaN",""
"","S1","","html-keyboard-response","450","511400","0.0-1.0-632.0","0","0","59125","","null","","","null","70","","","","","","","","","","","","","","","",""
"","ISI","","html-keyboard-response","451","513403","0.0-1.0-633.0","0","0","59125","","null","","","null","70","NaN","","","","","","","","","","","","","","",""
"","S2","","html-keyboard-response","452","513656","0.0-1.0-634.0","0","0","59125","","null","","","null","70","","NaN","","","","","","","","","","","","","",""
"","response","","html-keyboard-response","453","514227","0.0-1.0-635.0","0","0","59125","","569","","","75","70","","","2","70","training","adjacent","BA","2","1","N.jpg","O.jpg","1","0","0","",""
"","feedback","","html-keyboard-response","454","515232","0.0-1.0-636.0-0.0","0","0","59125","","null","","","null","70","","","","","","","","","","","","","","","",""
"","time_out","","html-keyboard-response","455","517238","0.0-1.0-638.0-0.0","0","0","59125","","null","","","null","70","","","","","","","","","","","","","","","",""
"","ITI","","html-keyboard-response","456","518241","0.0-1.0-639.0","0","0","59125","","null","","","null","70","","","","","","","","","","","","","","","NaN",""
"","S1","","html-keyboard-response","457","518494","0.0-1.0-641.0","0","0","59125","","null","","","null","71","","","","","","","","","","","","","","","",""
"","ISI","","html-keyboard-response","458","520497","0.0-1.0-642.0","0","0","59125","","null","","","null","71","NaN","","","","","","","","","","","","","","",""
"","S2","","html-keyboard-response","459","520750","0.0-1.0-643.0","0","0","59125","","null","","","null","71","","NaN","","","","","","","","","","","","","",""
"","response","","html-keyboard-response","460","521298","0.0-1.0-644.0","0","0","59125","","545","","","68","71","","","2","71","training","adjacent","FE","6","5","R.jpg","P.jpg","0","0","1","",""
"","feedback","","html-keyboard-response","461","522301","0.0-1.0-645.0-0.0","0","0","59125","","null","","","null","71","","","","","","","","","","","","","","","",""
"","ITI","","html-keyboard-response","462","523303","0.0-1.0-648.0","0","0","59125","","null","","","null","71","","","","","","","","","","","","","","","NaN",""
"","S1","","html-keyboard-response","463","523557","0.0-1.0-650.0","0","0","59125","","null","","","null","72","","","","","","","","","","","","","","","",""
"","ISI","","html-keyboard-response","464","525559","0.0-1.0-651.0","0","0","59125","","null","","","null","72","NaN","","","","","","","","","","","","","","",""
"","S2","","html-keyboard-response","465","525812","0.0-1.0-652.0","0","0","59125","","null","","","null","72","","NaN","","","","","","","","","","","","","",""
"","response","","html-keyboard-response","466","526436","0.0-1.0-653.0","0","0","59125","","621","","","68","72","","","2","72","training","adjacent","AB","1","2","O.jpg","N.jpg","0","1","0","",""
"","feedback","","html-keyboard-response","467","527441","0.0-1.0-654.0-0.0","0","0","59125","","null","","","null","72","","","","","","","","","","","","","","","",""
"","time_out","","html-keyboard-response","468","529444","0.0-1.0-656.0-0.0","0","0","59125","","null","","","null","72","","","","","","","","","","","","","","","",""
"","ITI","","html-keyboard-response","469","530447","0.0-1.0-657.0","0","0","59125","","null","","","null","72","","","","","","","","","","","","","","","NaN",""
"","S1","","html-keyboard-response","470","530700","0.0-1.0-659.0","0","0","59125","","null","","","null","73","","","","","","","","","","","","","","","",""
"","ISI","","html-keyboard-response","471","532709","0.0-1.0-660.0","0","0","59125","","null","","","null","73","NaN","","","","","","","","","","","","","","",""
"","S2","","html-keyboard-response","472","532963","0.0-1.0-661.0","0","0","59125","","null","","","null","73","","NaN","","","","","","","","","","","","","",""
"","response","","html-keyboard-response","473","533352","0.0-1.0-662.0","0","0","59125","","380","","","75","73","","","2","73","training","adjacent","ED","5","4","P.jpg","L.jpg","1","0","0","",""
"","feedback","","html-keyboard-response","474","534356","0.0-1.0-663.0-0.0","0","0","59125","","null","","","null","73","","","","","","","","","","","","","","","",""
"","time_out","","html-keyboard-response","475","536360","0.0-1.0-665.0-0.0","0","0","59125","","null","","","null","73","","","","","","","","","","","","","","","",""
"","ITI","","html-keyboard-response","476","537363","0.0-1.0-666.0","0","0","59125","","null","","","null","73","","","","","","","","","","","","","","","NaN",""
"","S1","","html-keyboard-response","477","537616","0.0-1.0-668.0","0","0","59125","","null","","","null","74","","","","","","","","","","","","","","","",""
"","ISI","","html-keyboard-response","478","539618","0.0-1.0-669.0","0","0","59125","","null","","","null","74","NaN","","","","","","","","","","","","","","",""
"","S2","","html-keyboard-response","479","539872","0.0-1.0-670.0","0","0","59125","","null","","","null","74","","NaN","","","","","","","","","","","","","",""
"","response","","html-keyboard-response","480","541081","0.0-1.0-671.0","0","0","59125","","1205","","","68","74","","","2","74","training","adjacent","FG","6","7","R.jpg","M.jpg","0","1","0","",""
"","feedback","","html-keyboard-response","481","542089","0.0-1.0-672.0-0.0","0","0","59125","","null","","","null","74","","","","","","","","","","","","","","","",""
"","time_out","","html-keyboard-response","482","544091","0.0-1.0-674.0-0.0","0","0","59125","","null","","","null","74","","","","","","","","","","","","","","","",""
"","ITI","","html-keyboard-response","483","545096","0.0-1.0-675.0","0","0","59125","","null","","","null","74","","","","","","","","","","","","","","","NaN",""
"","S1","","html-keyboard-response","484","545351","0.0-1.0-677.0","0","0","59125","","null","","","null","75","","","","","","","","","","","","","","","",""
"","ISI","","html-keyboard-response","485","547353","0.0-1.0-678.0","0","0","59125","","null","","","null","75","NaN","","","","","","","","","","","","","","",""
"","S2","","html-keyboard-response","486","547606","0.0-1.0-679.0","0","0","59125","","null","","","null","75","","NaN","","","","","","","","","","","","","",""
"","response","","html-keyboard-response","487","548083","0.0-1.0-680.0","0","0","59125","","474","","","75","75","","","2","75","training","adjacent","GF","7","6","M.jpg","R.jpg","1","0","0","",""
"","feedback","","html-keyboard-response","488","549087","0.0-1.0-681.0-0.0","0","0","59125","","null","","","null","75","","","","","","","","","","","","","","","",""
"","time_out","","html-keyboard-response","489","551089","0.0-1.0-683.0-0.0","0","0","59125","","null","","","null","75","","","","","","","","","","","","","","","",""
"","ITI","","html-keyboard-response","490","552094","0.0-1.0-684.0","0","0","59125","","null","","","null","75","","","","","","","","","","","","","","","NaN",""
"","S1","","html-keyboard-response","491","552349","0.0-1.0-686.0","0","0","59125","","null","","","null","76","","","","","","","","","","","","","","","",""
"","ISI","","html-keyboard-response","492","554352","0.0-1.0-687.0","0","0","59125","","null","","","null","76","NaN","","","","","","","","","","","","","","",""
"","S2","","html-keyboard-response","493","554606","0.0-1.0-688.0","0","0","59125","","null","","","null","76","","NaN","","","","","","","","","","","","","",""
"","response","","html-keyboard-response","494","554915","0.0-1.0-689.0","0","0","59125","","305","","","68","76","","","2","76","training","adjacent","CD","3","4","Q.jpg","L.jpg","0","1","0","",""
"","feedback","","html-keyboard-response","495","555923","0.0-1.0-690.0-0.0","0","0","59125","","null","","","null","76","","","","","","","","","","","","","","","",""
"","time_out","","html-keyboard-response","496","557927","0.0-1.0-692.0-0.0","0","0","59125","","null","","","null","76","","","","","","","","","","","","","","","",""
"","ITI","","html-keyboard-response","497","558930","0.0-1.0-693.0","0","0","59125","","null","","","null","76","","","","","","","","","","","","","","","NaN",""
"","S1","","html-keyboard-response","498","559183","0.0-1.0-695.0","0","0","59125","","null","","","null","77","","","","","","","","","","","","","","","",""
"","ISI","","html-keyboard-response","499","561186","0.0-1.0-696.0","0","0","59125","","null","","","null","77","NaN","","","","","","","","","","","","","","",""
"","S2","","html-keyboard-response","500","561441","0.0-1.0-697.0","0","0","59125","","null","","","null","77","","NaN","","","","","","","","","","","","","",""
"","response","","html-keyboard-response","501","561992","0.0-1.0-698.0","0","0","59125","","544","","","68","77","","","2","77","training","adjacent","FG","6","7","R.jpg","M.jpg","0","1","0","",""
"","feedback","","html-keyboard-response","502","562994","0.0-1.0-699.0-0.0","0","0","59125","","null","","","null","77","","","","","","","","","","","","","","","",""
"","time_out","","html-keyboard-response","503","564997","0.0-1.0-701.0-0.0","0","0","59125","","null","","","null","77","","","","","","","","","","","","","","","",""
"","ITI","","html-keyboard-response","504","565999","0.0-1.0-702.0","0","0","59125","","null","","","null","77","","","","","","","","","","","","","","","NaN",""
"","S1","","html-keyboard-response","505","566251","0.0-1.0-704.0","0","0","59125","","null","","","null","78","","","","","","","","","","","","","","","",""
"","ISI","","html-keyboard-response","506","568253","0.0-1.0-705.0","0","0","59125","","null","","","null","78","NaN","","","","","","","","","","","","","","",""
"","S2","","html-keyboard-response","507","568506","0.0-1.0-706.0","0","0","59125","","null","","","null","78","","NaN","","","","","","","","","","","","","",""
"","response","","html-keyboard-response","508","569205","0.0-1.0-707.0","0","0","59125","","696","","","68","78","","","2","78","training","adjacent","DC","4","3","L.jpg","Q.jpg","0","0","1","",""
"","feedback","","html-keyboard-response","509","570210","0.0-1.0-708.0-0.0","0","0","59125","","null","","","null","78","","","","","","","","","","","","","","","",""
"","ITI","","html-keyboard-response","510","571214","0.0-1.0-711.0","0","0","59125","","null","","","null","78","","","","","","","","","","","","","","","NaN",""
"","S1","","html-keyboard-response","511","571466","0.0-1.0-713.0","0","0","59125","","null","","","null","79","","","","","","","","","","","","","","","",""
"","ISI","","html-keyboard-response","512","573469","0.0-1.0-714.0","0","0","59125","","null","","","null","79","NaN","","","","","","","","","","","","","","",""
"","S2","","html-keyboard-response","513","573722","0.0-1.0-715.0","0","0","59125","","null","","","null","79","","NaN","","","","","","","","","","","","","",""
"","response","","html-keyboard-response","514","574195","0.0-1.0-716.0","0","0","59125","","471","","","75","79","","","2","79","training","adjacent","BA","2","1","N.jpg","O.jpg","1","0","0","",""
"","feedback","","html-keyboard-response","515","575198","0.0-1.0-717.0-0.0","0","0","59125","","null","","","null","79","","","","","","","","","","","","","","","",""
"","time_out","","html-keyboard-response","516","577201","0.0-1.0-719.0-0.0","0","0","59125","","null","","","null","79","","","","","","","","","","","","","","","",""
"","ITI","","html-keyboard-response","517","578204","0.0-1.0-720.0","0","0","59125","","null","","","null","79","","","","","","","","","","","","","","","NaN",""
"","S1","","html-keyboard-response","518","578458","0.0-1.0-722.0","0","0","59125","","null","","","null","80","","","","","","","","","","","","","","","",""
"","ISI","","html-keyboard-response","519","580461","0.0-1.0-723.0","0","0","59125","","null","","","null","80","NaN","","","","","","","","","","","","","","",""
"","S2","","html-keyboard-response","520","580714","0.0-1.0-724.0","0","0","59125","","null","","","null","80","","NaN","","","","","","","","","","","","","",""
"","response","","html-keyboard-response","521","582392","0.0-1.0-725.0","0","0","59125","","1675","","","68","80","","","2","80","training","adjacent","FE","6","5","R.jpg","P.jpg","0","0","1","",""
"","feedback","","html-keyboard-response","522","583395","0.0-1.0-726.0-0.0","0","0","59125","","null","","","null","80","","","","","","","","","","","","","","","",""
"","ITI","","html-keyboard-response","523","584397","0.0-1.0-729.0","0","0","59125","","null","","","null","80","","","","","","","","","","","","","","","NaN",""
"","S1","","html-keyboard-response","524","584650","0.0-1.0-731.0","0","0","59125","","null","","","null","81","","","","","","","","","","","","","","","",""
"","ISI","","html-keyboard-response","525","586656","0.0-1.0-732.0","0","0","59125","","null","","","null","81","NaN","","","","","","","","","","","","","","",""
"","S2","","html-keyboard-response","526","586910","0.0-1.0-733.0","0","0","59125","","null","","","null","81","","NaN","","","","","","","","","","","","","",""
"","response","","html-keyboard-response","527","587346","0.0-1.0-734.0","0","0","59125","","434","","","75","81","","","2","81","training","adjacent","CD","3","4","Q.jpg","L.jpg","1","1","1","",""
"","feedback","","html-keyboard-response","528","588350","0.0-1.0-735.0-0.0","0","0","59125","","null","","","null","81","","","","","","","","","","","","","","","",""
"","ITI","","html-keyboard-response","529","589354","0.0-1.0-738.0","0","0","59125","","null","","","null","81","","","","","","","","","","","","","","","NaN",""
"","S1","","html-keyboard-response","530","589609","0.0-1.0-740.0","0","0","59125","","null","","","null","82","","","","","","","","","","","","","","","",""
"","ISI","","html-keyboard-response","531","591611","0.0-1.0-741.0","0","0","59125","","null","","","null","82","NaN","","","","","","","","","","","","","","",""
"","S2","","html-keyboard-response","532","591865","0.0-1.0-742.0","0","0","59125","","null","","","null","82","","NaN","","","","","","","","","","","","","",""
"","response","","html-keyboard-response","533","592340","0.0-1.0-743.0","0","0","59125","","471","","","75","82","","","2","82","training","adjacent","AB","1","2","O.jpg","N.jpg","1","1","1","",""
"","feedback","","html-keyboard-response","534","593344","0.0-1.0-744.0-0.0","0","0","59125","","null","","","null","82","","","","","","","","","","","","","","","",""
"","ITI","","html-keyboard-response","535","594348","0.0-1.0-747.0","0","0","59125","","null","","","null","82","","","","","","","","","","","","","","","NaN",""
"","S1","","html-keyboard-response","536","594603","0.0-1.0-749.0","0","0","59125","","null","","","null","83","","","","","","","","","","","","","","","",""
"","ISI","","html-keyboard-response","537","596606","0.0-1.0-750.0","0","0","59125","","null","","","null","83","NaN","","","","","","","","","","","","","","",""
"","S2","","html-keyboard-response","538","596859","0.0-1.0-751.0","0","0","59125","","null","","","null","83","","NaN","","","","","","","","","","","","","",""
"","response","","html-keyboard-response","539","597875","0.0-1.0-752.0","0","0","59125","","1014","","","75","83","","","2","83","training","adjacent","FG","6","7","R.jpg","M.jpg","1","1","1","",""
"","feedback","","html-keyboard-response","540","598878","0.0-1.0-753.0-0.0","0","0","59125","","null","","","null","83","","","","","","","","","","","","","","","",""
"","ITI","","html-keyboard-response","541","599881","0.0-1.0-756.0","0","0","59125","","null","","","null","83","","","","","","","","","","","","","","","NaN",""
"","S1","","html-keyboard-response","542","600134","0.0-1.0-758.0","0","0","59125","","null","","","null","84","","","","","","","","","","","","","","","",""
"","ISI","","html-keyboard-response","543","602137","0.0-1.0-759.0","0","0","59125","","null","","","null","84","NaN","","","","","","","","","","","","","","",""
"","S2","","html-keyboard-response","544","602391","0.0-1.0-760.0","0","0","59125","","null","","","null","84","","NaN","","","","","","","","","","","","","",""
"","response","","html-keyboard-response","545","602881","0.0-1.0-761.0","0","0","59125","","488","","","68","84","","","2","84","training","adjacent","FE","6","5","R.jpg","P.jpg","0","0","1","",""
"","feedback","","html-keyboard-response","546","603885","0.0-1.0-762.0-0.0","0","0","59125","","null","","","null","84","","","","","","","","","","","","","","","",""
"","ITI","","html-keyboard-response","547","604887","0.0-1.0-765.0","0","0","59125","","null","","","null","84","","","","","","","","","","","","","","","NaN",""
"","S1","","html-keyboard-response","548","605141","0.0-1.0-767.0","0","0","59125","","null","","","null","85","","","","","","","","","","","","","","","",""
"","ISI","","html-keyboard-response","549","607146","0.0-1.0-768.0","0","0","59125","","null","","","null","85","NaN","","","","","","","","","","","","","","",""
"","S2","","html-keyboard-response","550","607401","0.0-1.0-769.0","0","0","59125","","null","","","null","85","","NaN","","","","","","","","","","","","","",""
"","response","","html-keyboard-response","551","608097","0.0-1.0-770.0","0","0","59125","","694","","","68","85","","","2","85","training","adjacent","CB","3","2","Q.jpg","N.jpg","0","0","1","",""
"","feedback","","html-keyboard-response","552","609100","0.0-1.0-771.0-0.0","0","0","59125","","null","","","null","85","","","","","","","","","","","","","","","",""
"","ITI","","html-keyboard-response","553","610102","0.0-1.0-774.0","0","0","59125","","null","","","null","85","","","","","","","","","","","","","","","NaN",""
"","S1","","html-keyboard-response","554","610355","0.0-1.0-776.0","0","0","59125","","null","","","null","86","","","","","","","","","","","","","","","",""
"","ISI","","html-keyboard-response","555","612358","0.0-1.0-777.0","0","0","59125","","null","","","null","86","NaN","","","","","","","","","","","","","","",""
"","S2","","html-keyboard-response","556","612611","0.0-1.0-778.0","0","0","59125","","null","","","null","86","","NaN","","","","","","","","","","","","","",""
"","response","","html-keyboard-response","557","613362","0.0-1.0-779.0","0","0","59125","","749","","","68","86","","","2","86","training","adjacent","DC","4","3","L.jpg","Q.jpg","0","0","1","",""
"","feedback","","html-keyboard-response","558","614365","0.0-1.0-780.0-0.0","0","0","59125","","null","","","null","86","","","","","","","","","","","","","","","",""
"","ITI","","html-keyboard-response","559","615369","0.0-1.0-783.0","0","0","59125","","null","","","null","86","","","","","","","","","","","","","","","NaN",""
"","S1","","html-keyboard-response","560","615621","0.0-1.0-785.0","0","0","59125","","null","","","null","87","","","","","","","","","","","","","","","",""
"","ISI","","html-keyboard-response","561","617624","0.0-1.0-786.0","0","0","59125","","null","","","null","87","NaN","","","","","","","","","","","","","","",""
"","S2","","html-keyboard-response","562","617877","0.0-1.0-787.0","0","0","59125","","null","","","null","87","","NaN","","","","","","","","","","","","","",""
"","response","","html-keyboard-response","563","618755","0.0-1.0-788.0","0","0","59125","","876","","","75","87","","","2","87","training","adjacent","ED","5","4","P.jpg","L.jpg","1","0","0","",""
"","feedback","","html-keyboard-response","564","619757","0.0-1.0-789.0-0.0","0","0","59125","","null","","","null","87","","","","","","","","","","","","","","","",""
"","time_out","","html-keyboard-response","565","621761","0.0-1.0-791.0-0.0","0","0","59125","","null","","","null","87","","","","","","","","","","","","","","","",""
"","ITI","","html-keyboard-response","566","622764","0.0-1.0-792.0","0","0","59125","","null","","","null","87","","","","","","","","","","","","","","","NaN",""
"","S1","","html-keyboard-response","567","623017","0.0-1.0-794.0","0","0","59125","","null","","","null","88","","","","","","","","","","","","","","","",""
"","ISI","","html-keyboard-response","568","625019","0.0-1.0-795.0","0","0","59125","","null","","","null","88","NaN","","","","","","","","","","","","","","",""
"","S2","","html-keyboard-response","569","625271","0.0-1.0-796.0","0","0","59125","","null","","","null","88","","NaN","","","","","","","","","","","","","",""
"","response","","html-keyboard-response","570","626675","0.0-1.0-797.0","0","0","59125","","1399","","","75","88","","","2","88","training","adjacent","GF","7","6","M.jpg","R.jpg","1","0","0","",""
"","feedback","","html-keyboard-response","571","627678","0.0-1.0-798.0-0.0","0","0","59125","","null","","","null","88","","","","","","","","","","","","","","","",""
"","time_out","","html-keyboard-response","572","629681","0.0-1.0-800.0-0.0","0","0","59125","","null","","","null","88","","","","","","","","","","","","","","","",""
"","ITI","","html-keyboard-response","573","630686","0.0-1.0-801.0","0","0","59125","","null","","","null","88","","","","","","","","","","","","","","","NaN",""
"","S1","","html-keyboard-response","574","630940","0.0-1.0-803.0","0","0","59125","","null","","","null","89","","","","","","","","","","","","","","","",""
"","ISI","","html-keyboard-response","575","632942","0.0-1.0-804.0","0","0","59125","","null","","","null","89","NaN","","","","","","","","","","","","","","",""
"","S2","","html-keyboard-response","576","633195","0.0-1.0-805.0","0","0","59125","","null","","","null","89","","NaN","","","","","","","","","","","","","",""
"","response","","html-keyboard-response","577","633699","0.0-1.0-806.0","0","0","59125","","501","","","68","89","","","2","89","training","adjacent","AB","1","2","O.jpg","N.jpg","0","1","0","",""
"","feedback","","html-keyboard-response","578","634703","0.0-1.0-807.0-0.0","0","0","59125","","null","","","null","89","","","","","","","","","","","","","","","",""
"","time_out","","html-keyboard-response","579","636710","0.0-1.0-809.0-0.0","0","0","59125","","null","","","null","89","","","","","","","","","","","","","","","",""
"","ITI","","html-keyboard-response","580","637712","0.0-1.0-810.0","0","0","59125","","null","","","null","89","","","","","","","","","","","","","","","NaN",""
"","S1","","html-keyboard-response","581","637967","0.0-1.0-812.0","0","0","59125","","null","","","null","90","","","","","","","","","","","","","","","",""
"","ISI","","html-keyboard-response","582","639969","0.0-1.0-813.0","0","0","59125","","null","","","null","90","NaN","","","","","","","","","","","","","","",""
"","S2","","html-keyboard-response","583","640222","0.0-1.0-814.0","0","0","59125","","null","","","null","90","","NaN","","","","","","","","","","","","","",""
"","response","","html-keyboard-response","584","640881","0.0-1.0-815.0","0","0","59125","","657","","","75","90","","","2","90","training","adjacent","ED","5","4","P.jpg","L.jpg","1","0","0","",""
