"success","ttype","start_time","trial_type","trial_index","time_elapsed","internal_node_id","warning","missed_checkup","PID","view_history","rt","responses","repeat_instructions","key_press","index","keypress_isi","keypress_S2","block","trial_num","phase","group_type","pair_type","S1_stim","S2_stim","S1_img","S2_img","S1_chosen","S1_higher","accuracy","keypress_iti","total_bonus_tally"
"true","full_screen","d04062023hr1718","fullscreen","0","23256","0.0-0.0","0","0","27939","","","","","","","","","","","","","","","","","","","","","",""
"","instructions","","instructions","1","48559","0.0-1.0-0.0-0.0","0","0","27939","[{""page_index"":0,""viewing_time"":8082},{""page_index"":1,""viewing_time"":10567},{""page_index"":2,""viewing_time"":5114},{""page_index"":3,""viewing_time"":1537}]","25301","","","","","","","","","","","","","","","","","","","",""
"","comprehension_check","","survey-multi-choice","2","61898","0.0-1.0-0.0-1.0","0","0","27939","","13332","{""Q0"":""True"",""Q1"":""K"",""Q2"":"""",""Q3"":""Green mark"",""Q4"":""either D or K""}","1","","","","","","","","","","","","","","","","","",""
"","missed_instruction_checkup","","html-keyboard-response","3","63655","0.0-1.0-0.0-2.0-0.0","0","1","27939","","1754","","","32","","","","","","","","","","","","","","","","",""
"","instructions","","instructions","4","71679","0.0-1.0-0.1-0.1","0","0","27939","[{""page_index"":0,""viewing_time"":3695},{""page_index"":1,""viewing_time"":1012},{""page_index"":2,""viewing_time"":2567},{""page_index"":3,""viewing_time"":748}]","8022","","","","","","","","","","","","","","","","","","","",""
"","comprehension_check","","survey-multi-choice","5","94108","0.0-1.0-0.1-1.1","0","0","27939","","22421","{""Q0"":""True"",""Q1"":""K"",""Q2"":""Only when the screen 'MAKE A CHOICE' is shown"",""Q3"":""Green mark"",""Q4"":""either D or K""}","1","","","","","","","","","","","","","","","","","",""
"","missed_instruction_checkup","","html-keyboard-response","6","95078","0.0-1.0-0.1-2.1-0.1","0","1","27939","","968","","","32","","","","","","","","","","","","","","","","",""
"","instructions","","instructions","7","120591","0.0-1.0-0.2-0.2","0","0","27939","[{""page_index"":0,""viewing_time"":3358},{""page_index"":1,""viewing_time"":8722},{""page_index"":2,""viewing_time"":3465},{""page_index"":1,""viewing_time"":5310},{""page_index"":2,""viewing_time"":3928},{""page_index"":3,""viewing_time"":727}]","25510","","","","","","","","","","","","","","","","","","","",""
"","comprehension_check","","survey-multi-choice","8","134316","0.0-1.0-0.2-1.2","0","0","27939","","13716","{""Q0"":""True"",""Q1"":""K"",""Q2"":""Once the second image appears and while the screen 'MAKE A CHOICE' is shown"",""Q3"":""Green mark"",""Q4"":""either D or K""}","0","","","","","","","","","","","","","","","","","",""
"","start_exp","","html-keyboard-response","9","135518","0.0-1.0-1.0","0","0","27939","","1200","","","32","","","","","","","","","","","","","","","","",""
"","S1","","html-keyboard-response","10","135675","0.0-1.0-2.0","0","0","27939","","null","","","null","0","","","","","","","","","","","","","","","",""
"","ISI","","html-keyboard-response","11","137682","0.0-1.0-3.0","0","0","27939","","1570","","","75","0","k","","","","","","","","","","","","","","",""
"","S2","","html-keyboard-response","12","137842","0.0-1.0-4.0","0","0","27939","","null","","","null","0","","NaN","","","","","","","","","","","","","",""
"","response","","html-keyboard-response","13","138518","0.0-1.0-5.0-0.0","0","0","27939","","674","","","75","0","","","1","0","training","adjacent","BC","2","3","R.jpg","N.jpg","1","1","1","",""
"","feedback","","html-keyboard-response","14","139522","0.0-1.0-6.0-0.0","0","0","27939","","null","","","null","0","","","","","","","","","","","","","","","",""
"","ITI","","html-keyboard-response","15","140530","0.0-1.0-9.0","0","0","27939","","null","","","null","0","","","","","","","","","","","","","","","NaN",""
"","S1","","html-keyboard-response","16","140690","0.0-1.0-11.0","0","0","27939","","null","","","null","1","","","","","","","","","","","","","","","",""
"","ISI","","html-keyboard-response","17","142698","0.0-1.0-12.0","0","0","27939","","null","","","null","1","NaN","","","","","","","","","","","","","","",""
"","S2","","html-keyboard-response","18","142858","0.0-1.0-13.0","0","0","27939","","null","","","null","1","","NaN","","","","","","","","","","","","","",""
"","response","","html-keyboard-response","19","143559","0.0-1.0-14.0-0.0","0","0","27939","","698","","","68","1","","","1","1","training","adjacent","FE","6","5","L.jpg","Q.jpg","0","0","1","",""
"","feedback","","html-keyboard-response","20","144562","0.0-1.0-15.0-0.0","0","0","27939","","null","","","null","1","","","","","","","","","","","","","","","",""
"","ITI","","html-keyboard-response","21","145570","0.0-1.0-18.0","0","0","27939","","null","","","null","1","","","","","","","","","","","","","","","NaN",""
"","S1","","html-keyboard-response","22","145730","0.0-1.0-20.0","0","0","27939","","null","","","null","2","","","","","","","","","","","","","","","",""
"","ISI","","html-keyboard-response","23","147739","0.0-1.0-21.0","0","0","27939","","null","","","null","2","NaN","","","","","","","","","","","","","","",""
"","S2","","html-keyboard-response","24","147898","0.0-1.0-22.0","0","0","27939","","null","","","null","2","","NaN","","","","","","","","","","","","","",""
"","response","","html-keyboard-response","25","148318","0.0-1.0-23.0-0.0","0","0","27939","","418","","","68","2","","","1","2","training","adjacent","BC","2","3","R.jpg","N.jpg","0","1","0","",""
"","feedback","","html-keyboard-response","26","149322","0.0-1.0-24.0-0.0","0","0","27939","","null","","","null","2","","","","","","","","","","","","","","","",""
"","time_out","","html-keyboard-response","27","151331","0.0-1.0-26.0-0.0","0","0","27939","","null","","","null","2","","","","","","","","","","","","","","","",""
"","ITI","","html-keyboard-response","28","152338","0.0-1.0-27.0","0","0","27939","","null","","","null","2","","","","","","","","","","","","","","","NaN",""
"","S1","","html-keyboard-response","29","152498","0.0-1.0-29.0","0","0","27939","","null","","","null","3","","","","","","","","","","","","","","","",""
"","ISI","","html-keyboard-response","30","154506","0.0-1.0-30.0","0","0","27939","","null","","","null","3","NaN","","","","","","","","","","","","","","",""
"","S2","","html-keyboard-response","31","154667","0.0-1.0-31.0","0","0","27939","","null","","","null","3","","NaN","","","","","","","","","","","","","",""
"","response","","html-keyboard-response","32","155191","0.0-1.0-32.0-0.0","0","0","27939","","522","","","75","3","","","1","3","training","adjacent","AB","1","2","M.jpg","R.jpg","1","1","1","",""
"","feedback","","html-keyboard-response","33","156194","0.0-1.0-33.0-0.0","0","0","27939","","null","","","null","3","","","","","","","","","","","","","","","",""
"","ITI","","html-keyboard-response","34","157202","0.0-1.0-36.0","0","0","27939","","null","","","null","3","","","","","","","","","","","","","","","NaN",""
"","S1","","html-keyboard-response","35","157362","0.0-1.0-38.0","0","0","27939","","null","","","null","4","","","","","","","","","","","","","","","",""
"","ISI","","html-keyboard-response","36","159370","0.0-1.0-39.0","0","0","27939","","null","","","null","4","NaN","","","","","","","","","","","","","","",""
"","S2","","html-keyboard-response","37","159531","0.0-1.0-40.0","0","0","27939","","null","","","null","4","","NaN","","","","","","","","","","","","","",""
"","response","","html-keyboard-response","38","160126","0.0-1.0-41.0-0.0","0","0","27939","","594","","","68","4","","","1","4","training","adjacent","BA","2","1","R.jpg","M.jpg","0","0","1","",""
"","feedback","","html-keyboard-response","39","161131","0.0-1.0-42.0-0.0","0","0","27939","","null","","","null","4","","","","","","","","","","","","","","","",""
"","ITI","","html-keyboard-response","40","162138","0.0-1.0-45.0","0","0","27939","","null","","","null","4","","","","","","","","","","","","","","","NaN",""
"","S1","","html-keyboard-response","41","162299","0.0-1.0-47.0","0","0","27939","","null","","","null","5","","","","","","","","","","","","","","","",""
"","ISI","","html-keyboard-response","42","164307","0.0-1.0-48.0","0","0","27939","","null","","","null","5","NaN","","","","","","","","","","","","","","",""
"","S2","","html-keyboard-response","43","164466","0.0-1.0-49.0","0","0","27939","","null","","","null","5","","NaN","","","","","","","","","","","","","",""
"","response","","html-keyboard-response","44","164694","0.0-1.0-50.0-0.0","0","0","27939","","226","","","75","5","","","1","5","training","adjacent","AB","1","2","M.jpg","R.jpg","1","1","1","",""
"","feedback","","html-keyboard-response","45","165698","0.0-1.0-51.0-0.0","0","0","27939","","null","","","null","5","","","","","","","","","","","","","","","",""
"","ITI","","html-keyboard-response","46","166707","0.0-1.0-54.0","0","0","27939","","null","","","null","5","","","","","","","","","","","","","","","NaN",""
"","S1","","html-keyboard-response","47","166867","0.0-1.0-56.0","0","0","27939","","null","","","null","6","","","","","","","","","","","","","","","",""
"","ISI","","html-keyboard-response","48","168874","0.0-1.0-57.0","0","0","27939","","null","","","null","6","NaN","","","","","","","","","","","","","","",""
"","S2","","html-keyboard-response","49","169034","0.0-1.0-58.0","0","0","27939","","null","","","null","6","","NaN","","","","","","","","","","","","","",""
"","response","","html-keyboard-response","50","169135","0.0-1.0-59.0-0.0","0","0","27939","","98","","","75","6","","","1","6","training","adjacent","ED","5","4","Q.jpg","O.jpg","1","0","0","",""
"","feedback","","html-keyboard-response","51","170138","0.0-1.0-60.0-0.0","0","0","27939","","null","","","null","6","","","","","","","","","","","","","","","",""
"","time_out","","html-keyboard-response","52","172147","0.0-1.0-62.0-0.0","0","0","27939","","null","","","null","6","","","","","","","","","","","","","","","",""
"","ITI","","html-keyboard-response","53","173154","0.0-1.0-63.0","0","0","27939","","null","","","null","6","","","","","","","","","","","","","","","NaN",""
"","S1","","html-keyboard-response","54","173314","0.0-1.0-65.0","0","0","27939","","null","","","null","7","","","","","","","","","","","","","","","",""
"","ISI","","html-keyboard-response","55","175322","0.0-1.0-66.0","0","0","27939","","null","","","null","7","NaN","","","","","","","","","","","","","","",""
"","S2","","html-keyboard-response","56","175483","0.0-1.0-67.0","0","0","27939","","null","","","null","7","","NaN","","","","","","","","","","","","","",""
"","response","","html-keyboard-response","57","176663","0.0-1.0-68.0-0.0","0","0","27939","","1178","","","68","7","","","1","7","training","adjacent","ED","5","4","Q.jpg","O.jpg","0","0","1","",""
"","feedback","","html-keyboard-response","58","177666","0.0-1.0-69.0-0.0","0","0","27939","","null","","","null","7","","","","","","","","","","","","","","","",""
"","ITI","","html-keyboard-response","59","178674","0.0-1.0-72.0","0","0","27939","","null","","","null","7","","","","","","","","","","","","","","","NaN",""
"","S1","","html-keyboard-response","60","178835","0.0-1.0-74.0","0","0","27939","","null","","","null","8","","","","","","","","","","","","","","","",""
"","ISI","","html-keyboard-response","61","180843","0.0-1.0-75.0","0","0","27939","","null","","","null","8","NaN","","","","","","","","","","","","","","",""
"","S2","","html-keyboard-response","62","181003","0.0-1.0-76.0","0","0","27939","","null","","","null","8","","NaN","","","","","","","","","","","","","",""
"","response","","html-keyboard-response","63","182015","0.0-1.0-77.0-0.0","0","0","27939","","1010","","","75","8","","","1","8","training","adjacent","FG","6","7","L.jpg","P.jpg","1","1","1","",""
"","feedback","","html-keyboard-response","64","183018","0.0-1.0-78.0-0.0","0","0","27939","","null","","","null","8","","","","","","","","","","","","","","","",""
"","ITI","","html-keyboard-response","65","184026","0.0-1.0-81.0","0","0","27939","","null","","","null","8","","","","","","","","","","","","","","","NaN",""
"","S1","","html-keyboard-response","66","184186","0.0-1.0-83.0","0","0","27939","","null","","","null","9","","","","","","","","","","","","","","","",""
"","ISI","","html-keyboard-response","67","186194","0.0-1.0-84.0","0","0","27939","","null","","","null","9","NaN","","","","","","","","","","","","","","",""
"","S2","","html-keyboard-response","68","186354","0.0-1.0-85.0","0","0","27939","","null","","","null","9","","NaN","","","","","","","","","","","","","",""
"","response","","html-keyboard-response","69","187967","0.0-1.0-86.0-0.0","0","0","27939","","1610","","","75","9","","","1","9","training","adjacent","CB","3","2","N.jpg","R.jpg","1","0","0","",""
"","feedback","","html-keyboard-response","70","188970","0.0-1.0-87.0-0.0","0","0","27939","","null","","","null","9","","","","","","","","","","","","","","","",""
"","time_out","","html-keyboard-response","71","190978","0.0-1.0-89.0-0.0","0","0","27939","","null","","","null","9","","","","","","","","","","","","","","","",""
"","ITI","","html-keyboard-response","72","191986","0.0-1.0-90.0","0","0","27939","","null","","","null","9","","","","","","","","","","","","","","","NaN",""
"","S1","","html-keyboard-response","73","192146","0.0-1.0-92.0","0","0","27939","","null","","","null","10","","","","","","","","","","","","","","","",""
"","ISI","","html-keyboard-response","74","194154","0.0-1.0-93.0","0","0","27939","","null","","","null","10","NaN","","","","","","","","","","","","","","",""
"","S2","","html-keyboard-response","75","194315","0.0-1.0-94.0","0","0","27939","","null","","","null","10","","NaN","","","","","","","","","","","","","",""
"","response","","html-keyboard-response","76","194911","0.0-1.0-95.0-0.0","0","0","27939","","594","","","75","10","","","1","10","training","adjacent","EF","5","6","Q.jpg","L.jpg","1","1","1","",""
"","feedback","","html-keyboard-response","77","195914","0.0-1.0-96.0-0.0","0","0","27939","","null","","","null","10","","","","","","","","","","","","","","","",""
"","ITI","","html-keyboard-response","78","196922","0.0-1.0-99.0","0","0","27939","","null","","","null","10","","","","","","","","","","","","","","","NaN",""
"","S1","","html-keyboard-response","79","197082","0.0-1.0-101.0","0","0","27939","","null","","","null","11","","","","","","","","","","","","","","","",""
"","ISI","","html-keyboard-response","80","199090","0.0-1.0-102.0","0","0","27939","","null","","","null","11","NaN","","","","","","","","","","","","","","",""
"","S2","","html-keyboard-response","81","199250","0.0-1.0-103.0","0","0","27939","","null","","","null","11","","NaN","","","","","","","","","","","","","",""
"","response","","html-keyboard-response","82","199974","0.0-1.0-104.0-0.0","0","0","27939","","722","","","75","11","","","1","11","training","adjacent","CB","3","2","N.jpg","R.jpg","1","0","0","",""
"","feedback","","html-keyboard-response","83","200978","0.0-1.0-105.0-0.0","0","0","27939","","null","","","null","11","","","","","","","","","","","","","","","",""
"","time_out","","html-keyboard-response","84","202987","0.0-1.0-107.0-0.0","0","0","27939","","null","","","null","11","","","","","","","","","","","","","","","",""
"","ITI","","html-keyboard-response","85","203995","0.0-1.0-108.0","0","0","27939","","null","","","null","11","","","","","","","","","","","","","","","NaN",""
"","S1","","html-keyboard-response","86","204154","0.0-1.0-110.0","0","0","27939","","null","","","null","12","","","","","","","","","","","","","","","",""
"","ISI","","html-keyboard-response","87","206163","0.0-1.0-111.0","0","0","27939","","null","","","null","12","NaN","","","","","","","","","","","","","","",""
"","S2","","html-keyboard-response","88","206322","0.0-1.0-112.0","0","0","27939","","null","","","null","12","","NaN","","","","","","","","","","","","","",""
"","response","","html-keyboard-response","89","206824","0.0-1.0-113.0-0.0","0","0","27939","","500","","","75","12","","","1","12","training","adjacent","CD","3","4","N.jpg","O.jpg","1","1","1","",""
"","feedback","","html-keyboard-response","90","207834","0.0-1.0-114.0-0.0","0","0","27939","","null","","","null","12","","","","","","","","","","","","","","","",""
"","ITI","","html-keyboard-response","91","208842","0.0-1.0-117.0","0","0","27939","","null","","","null","12","","","","","","","","","","","","","","","NaN",""
"","S1","","html-keyboard-response","92","209002","0.0-1.0-119.0","0","0","27939","","null","","","null","13","","","","","","","","","","","","","","","",""
"","ISI","","html-keyboard-response","93","211010","0.0-1.0-120.0","0","0","27939","","null","","","null","13","NaN","","","","","","","","","","","","","","",""
"","S2","","html-keyboard-response","94","211171","0.0-1.0-121.0","0","0","27939","","null","","","null","13","","NaN","","","","","","","","","","","","","",""
"","response","","html-keyboard-response","95","212055","0.0-1.0-122.0-0.0","0","0","27939","","882","","","68","13","","","1","13","training","adjacent","EF","5","6","Q.jpg","L.jpg","0","1","0","",""
"","feedback","","html-keyboard-response","96","213058","0.0-1.0-123.0-0.0","0","0","27939","","null","","","null","13","","","","","","","","","","","","","","","",""
"","time_out","","html-keyboard-response","97","215066","0.0-1.0-125.0-0.0","0","0","27939","","null","","","null","13","","","","","","","","","","","","","","","",""
"","ITI","","html-keyboard-response","98","216074","0.0-1.0-126.0","0","0","27939","","null","","","null","13","","","","","","","","","","","","","","","NaN",""
"","S1","","html-keyboard-response","99","216234","0.0-1.0-128.0","0","0","27939","","null","","","null","14","","","","","","","","","","","","","","","",""
"","ISI","","html-keyboard-response","100","218242","0.0-1.0-129.0","0","0","27939","","null","","","null","14","NaN","","","","","","","","","","","","","","",""
"","S2","","html-keyboard-response","101","218402","0.0-1.0-130.0","0","0","27939","","null","","","null","14","","NaN","","","","","","","","","","","","","",""
"","response","","html-keyboard-response","102","218983","0.0-1.0-131.0-0.0","0","0","27939","","578","","","68","14","","","1","14","training","adjacent","CD","3","4","N.jpg","O.jpg","0","1","0","",""
"","feedback","","html-keyboard-response","103","219986","0.0-1.0-132.0-0.0","0","0","27939","","null","","","null","14","","","","","","","","","","","","","","","",""
"","time_out","","html-keyboard-response","104","221994","0.0-1.0-134.0-0.0","0","0","27939","","null","","","null","14","","","","","","","","","","","","","","","",""
"","ITI","","html-keyboard-response","105","223003","0.0-1.0-135.0","0","0","27939","","null","","","null","14","","","","","","","","","","","","","","","NaN",""
"","S1","","html-keyboard-response","106","223163","0.0-1.0-137.0","0","0","27939","","null","","","null","15","","","","","","","","","","","","","","","",""
"","ISI","","html-keyboard-response","107","225171","0.0-1.0-138.0","0","0","27939","","null","","","null","15","NaN","","","","","","","","","","","","","","",""
"","S2","","html-keyboard-response","108","225330","0.0-1.0-139.0","0","0","27939","","null","","","null","15","","NaN","","","","","","","","","","","","","",""
"","response","","html-keyboard-response","109","225822","0.0-1.0-140.0-0.0","0","0","27939","","490","","","75","15","","","1","15","training","adjacent","FG","6","7","L.jpg","P.jpg","1","1","1","",""
"","feedback","","html-keyboard-response","110","226826","0.0-1.0-141.0-0.0","0","0","27939","","null","","","null","15","","","","","","","","","","","","","","","",""
"","ITI","","html-keyboard-response","111","227834","0.0-1.0-144.0","0","0","27939","","null","","","null","15","","","","","","","","","","","","","","","NaN",""
"","S1","","html-keyboard-response","112","227995","0.0-1.0-146.0","0","0","27939","","null","","","null","16","","","","","","","","","","","","","","","",""
"","ISI","","html-keyboard-response","113","230003","0.0-1.0-147.0","0","0","27939","","null","","","null","16","NaN","","","","","","","","","","","","","","",""
"","S2","","html-keyboard-response","114","230162","0.0-1.0-148.0","0","0","27939","","null","","","null","16","","NaN","","","","","","","","","","","","","",""
"","response","","html-keyboard-response","115","230759","0.0-1.0-149.0-0.0","0","0","27939","","594","","","68","16","","","1","16","training","adjacent","BC","2","3","R.jpg","N.jpg","0","1","0","",""
"","feedback","","html-keyboard-response","116","231762","0.0-1.0-150.0-0.0","0","0","27939","","null","","","null","16","","","","","","","","","","","","","","","",""
"","time_out","","html-keyboard-response","117","233770","0.0-1.0-152.0-0.0","0","0","27939","","null","","","null","16","","","","","","","","","","","","","","","",""
"","ITI","","html-keyboard-response","118","234778","0.0-1.0-153.0","0","0","27939","","null","","","null","16","","","","","","","","","","","","","","","NaN",""
"","S1","","html-keyboard-response","119","234938","0.0-1.0-155.0","0","0","27939","","null","","","null","17","","","","","","","","","","","","","","","",""
"","ISI","","html-keyboard-response","120","236946","0.0-1.0-156.0","0","0","27939","","null","","","null","17","NaN","","","","","","","","","","","","","","",""
"","S2","","html-keyboard-response","121","237107","0.0-1.0-157.0","0","0","27939","","null","","","null","17","","NaN","","","","","","","","","","","","","",""
"","response","","html-keyboard-response","122","237487","0.0-1.0-158.0-0.0","0","0","27939","","378","","","75","17","","","1","17","training","adjacent","CD","3","4","N.jpg","O.jpg","1","1","1","",""
"","feedback","","html-keyboard-response","123","238490","0.0-1.0-159.0-0.0","0","0","27939","","null","","","null","17","","","","","","","","","","","","","","","",""
"","ITI","","html-keyboard-response","124","239498","0.0-1.0-162.0","0","0","27939","","null","","","null","17","","","","","","","","","","","","","","","NaN",""
"","S1","","html-keyboard-response","125","239659","0.0-1.0-164.0","0","0","27939","","null","","","null","18","","","","","","","","","","","","","","","",""
"","ISI","","html-keyboard-response","126","241666","0.0-1.0-165.0","0","0","27939","","null","","","null","18","NaN","","","","","","","","","","","","","","",""
"","S2","","html-keyboard-response","127","241826","0.0-1.0-166.0","0","0","27939","","null","","","null","18","","NaN","","","","","","","","","","","","","",""
"","response","","html-keyboard-response","128","242071","0.0-1.0-167.0-0.0","0","0","27939","","242","","","75","18","","","1","18","training","adjacent","CD","3","4","N.jpg","O.jpg","1","1","1","",""
"","feedback","","html-keyboard-response","129","243074","0.0-1.0-168.0-0.0","0","0","27939","","null","","","null","18","","","","","","","","","","","","","","","",""
"","ITI","","html-keyboard-response","130","244082","0.0-1.0-171.0","0","0","27939","","null","","","null","18","","","","","","","","","","","","","","","NaN",""
"","S1","","html-keyboard-response","131","244242","0.0-1.0-173.0","0","0","27939","","null","","","null","19","","","","","","","","","","","","","","","",""
"","ISI","","html-keyboard-response","132","246250","0.0-1.0-174.0","0","0","27939","","null","","","null","19","NaN","","","","","","","","","","","","","","",""
"","S2","","html-keyboard-response","133","246410","0.0-1.0-175.0","0","0","27939","","null","","","null","19","","NaN","","","","","","","","","","","","","",""
"","response","","html-keyboard-response","134","246839","0.0-1.0-176.0-0.0","0","0","27939","","426","","","68","19","","","1","19","training","adjacent","DE","4","5","O.jpg","Q.jpg","0","1","0","",""
"","feedback","","html-keyboard-response","135","247842","0.0-1.0-177.0-0.0","0","0","27939","","null","","","null","19","","","","","","","","","","","","","","","",""
"","time_out","","html-keyboard-response","136","249851","0.0-1.0-179.0-0.0","0","0","27939","","null","","","null","19","","","","","","","","","","","","","","","",""
"","ITI","","html-keyboard-response","137","250858","0.0-1.0-180.0","0","0","27939","","null","","","null","19","","","","","","","","","","","","","","","NaN",""
"","S1","","html-keyboard-response","138","251011","0.0-1.0-182.0","0","0","27939","","null","","","null","20","","","","","","","","","","","","","","","",""
"","ISI","","html-keyboard-response","139","253018","0.0-1.0-183.0","0","0","27939","","null","","","null","20","NaN","","","","","","","","","","","","","","",""
"","S2","","html-keyboard-response","140","253178","0.0-1.0-184.0","0","0","27939","","null","","","null","20","","NaN","","","","","","","","","","","","","",""
"","response","","html-keyboard-response","141","253455","0.0-1.0-185.0-0.0","0","0","27939","","275","","","75","20","","","1","20","training","adjacent","EF","5","6","Q.jpg","L.jpg","1","1","1","",""
"","feedback","","html-keyboard-response","142","254458","0.0-1.0-186.0-0.0","0","0","27939","","null","","","null","20","","","","","","","","","","","","","","","",""
"","ITI","","html-keyboard-response","143","255466","0.0-1.0-189.0","0","0","27939","","null","","","null","20","","","","","","","","","","","","","","","NaN",""
"","S1","","html-keyboard-response","144","255627","0.0-1.0-191.0","0","0","27939","","null","","","null","21","","","","","","","","","","","","","","","",""
"","ISI","","html-keyboard-response","145","257634","0.0-1.0-192.0","0","0","27939","","null","","","null","21","NaN","","","","","","","","","","","","","","",""
"","S2","","html-keyboard-response","146","257795","0.0-1.0-193.0","0","0","27939","","null","","","null","21","","NaN","","","","","","","","","","","","","",""
"","response","","html-keyboard-response","147","258231","0.0-1.0-194.0-0.0","0","0","27939","","433","","","75","21","","","1","21","training","adjacent","DC","4","3","O.jpg","N.jpg","1","0","0","",""
"","feedback","","html-keyboard-response","148","259234","0.0-1.0-195.0-0.0","0","0","27939","","null","","","null","21","","","","","","","","","","","","","","","",""
"","time_out","","html-keyboard-response","149","261242","0.0-1.0-197.0-0.0","0","0","27939","","null","","","null","21","","","","","","","","","","","","","","","",""
"","ITI","","html-keyboard-response","150","262250","0.0-1.0-198.0","0","0","27939","","null","","","null","21","","","","","","","","","","","","","","","NaN",""
"","S1","","html-keyboard-response","151","262410","0.0-1.0-200.0","0","0","27939","","null","","","null","22","","","","","","","","","","","","","","","",""
"","ISI","","html-keyboard-response","152","264418","0.0-1.0-201.0","0","0","27939","","null","","","null","22","NaN","","","","","","","","","","","","","","",""
"","S2","","html-keyboard-response","153","264578","0.0-1.0-202.0","0","0","27939","","null","","","null","22","","NaN","","","","","","","","","","","","","",""
"","response","","html-keyboard-response","154","264911","0.0-1.0-203.0-0.0","0","0","27939","","331","","","68","22","","","1","22","training","adjacent","DC","4","3","O.jpg","N.jpg","0","0","1","",""
"","feedback","","html-keyboard-response","155","265914","0.0-1.0-204.0-0.0","0","0","27939","","null","","","null","22","","","","","","","","","","","","","","","",""
"","ITI","","html-keyboard-response","156","266922","0.0-1.0-207.0","0","0","27939","","null","","","null","22","","","","","","","","","","","","","","","NaN",""
"","S1","","html-keyboard-response","157","267083","0.0-1.0-209.0","0","0","27939","","null","","","null","23","","","","","","","","","","","","","","","",""
"","ISI","","html-keyboard-response","158","269090","0.0-1.0-210.0","0","0","27939","","null","","","null","23","NaN","","","","","","","","","","","","","","",""
"","S2","","html-keyboard-response","159","269250","0.0-1.0-211.0","0","0","27939","","null","","","null","23","","NaN","","","","","","","","","","","","","",""
"","response","","html-keyboard-response","160","269575","0.0-1.0-212.0-0.0","0","0","27939","","322","","","75","23","","","1","23","training","adjacent","BA","2","1","R.jpg","M.jpg","1","0","0","",""
"","feedback","","html-keyboard-response","161","270579","0.0-1.0-213.0-0.0","0","0","27939","","null","","","null","23","","","","","","","","","","","","","","","",""
"","time_out","","html-keyboard-response","162","272586","0.0-1.0-215.0-0.0","0","0","27939","","null","","","null","23","","","","","","","","","","","","","","","",""
"","ITI","","html-keyboard-response","163","273594","0.0-1.0-216.0","0","0","27939","","null","","","null","23","","","","","","","","","","","","","","","NaN",""
"","S1","","html-keyboard-response","164","273754","0.0-1.0-218.0","0","0","27939","","null","","","null","24","","","","","","","","","","","","","","","",""
"","ISI","","html-keyboard-response","165","275762","0.0-1.0-219.0","0","0","27939","","null","","","null","24","NaN","","","","","","","","","","","","","","",""
"","S2","","html-keyboard-response","166","275922","0.0-1.0-220.0","0","0","27939","","null","","","null","24","","NaN","","","","","","","","","","","","","",""
"","response","","html-keyboard-response","167","276383","0.0-1.0-221.0-0.0","0","0","27939","","459","","","68","24","","","1","24","training","adjacent","FG","6","7","L.jpg","P.jpg","0","1","0","",""
"","feedback","","html-keyboard-response","168","277387","0.0-1.0-222.0-0.0","0","0","27939","","null","","","null","24","","","","","","","","","","","","","","","",""
"","time_out","","html-keyboard-response","169","279394","0.0-1.0-224.0-0.0","0","0","27939","","null","","","null","24","","","","","","","","","","","","","","","",""
"","ITI","","html-keyboard-response","170","280402","0.0-1.0-225.0","0","0","27939","","null","","","null","24","","","","","","","","","","","","","","","NaN",""
"","S1","","html-keyboard-response","171","280563","0.0-1.0-227.0","0","0","27939","","null","","","null","25","","","","","","","","","","","","","","","",""
"","ISI","","html-keyboard-response","172","282571","0.0-1.0-228.0","0","0","27939","","null","","","null","25","NaN","","","","","","","","","","","","","","",""
"","S2","","html-keyboard-response","173","282731","0.0-1.0-229.0","0","0","27939","","null","","","null","25","","NaN","","","","","","","","","","","","","",""
"","response","","html-keyboard-response","174","283487","0.0-1.0-230.0-0.0","0","0","27939","","754","","","75","25","","","1","25","training","adjacent","GF","7","6","P.jpg","L.jpg","1","0","0","",""
"","feedback","","html-keyboard-response","175","284490","0.0-1.0-231.0-0.0","0","0","27939","","null","","","null","25","","","","","","","","","","","","","","","",""
"","time_out","","html-keyboard-response","176","286500","0.0-1.0-233.0-0.0","0","0","27939","","null","","","null","25","","","","","","","","","","","","","","","",""
"","ITI","","html-keyboard-response","177","287507","0.0-1.0-234.0","0","0","27939","","null","","","null","25","","","","","","","","","","","","","","","NaN",""
"","S1","","html-keyboard-response","178","287667","0.0-1.0-236.0","0","0","27939","","null","","","null","26","","","","","","","","","","","","","","","",""
"","ISI","","html-keyboard-response","179","289674","0.0-1.0-237.0","0","0","27939","","null","","","null","26","NaN","","","","","","","","","","","","","","",""
"","S2","","html-keyboard-response","180","289834","0.0-1.0-238.0","0","0","27939","","null","","","null","26","","NaN","","","","","","","","","","","","","",""
"","response","","html-keyboard-response","181","290423","0.0-1.0-239.0-0.0","0","0","27939","","586","","","75","26","","","1","26","training","adjacent","ED","5","4","Q.jpg","O.jpg","1","0","0","",""
"","feedback","","html-keyboard-response","182","291426","0.0-1.0-240.0-0.0","0","0","27939","","null","","","null","26","","","","","","","","","","","","","","","",""
"","time_out","","html-keyboard-response","183","293434","0.0-1.0-242.0-0.0","0","0","27939","","null","","","null","26","","","","","","","","","","","","","","","",""
"","ITI","","html-keyboard-response","184","294442","0.0-1.0-243.0","0","0","27939","","null","","","null","26","","","","","","","","","","","","","","","NaN",""
"","S1","","html-keyboard-response","185","294603","0.0-1.0-245.0","0","0","27939","","null","","","null","27","","","","","","","","","","","","","","","",""
"","ISI","","html-keyboard-response","186","296610","0.0-1.0-246.0","0","0","27939","","null","","","null","27","NaN","","","","","","","","","","","","","","",""
"","S2","","html-keyboard-response","187","296770","0.0-1.0-247.0","0","0","27939","","null","","","null","27","","NaN","","","","","","","","","","","","","",""
"","response","","html-keyboard-response","188","297327","0.0-1.0-248.0-0.0","0","0","27939","","554","","","75","27","","","1","27","training","adjacent","CB","3","2","N.jpg","R.jpg","1","0","0","",""
"","feedback","","html-keyboard-response","189","298331","0.0-1.0-249.0-0.0","0","0","27939","","null","","","null","27","","","","","","","","","","","","","","","",""
"","time_out","","html-keyboard-response","190","300338","0.0-1.0-251.0-0.0","0","0","27939","","null","","","null","27","","","","","","","","","","","","","","","",""
"","ITI","","html-keyboard-response","191","301346","0.0-1.0-252.0","0","0","27939","","null","","","null","27","","","","","","","","","","","","","","","NaN",""
"","S1","","html-keyboard-response","192","301506","0.0-1.0-254.0","0","0","27939","","null","","","null","28","","","","","","","","","","","","","","","",""
"","ISI","","html-keyboard-response","193","303515","0.0-1.0-255.0","0","0","27939","","null","","","null","28","NaN","","","","","","","","","","","","","","",""
"","S2","","html-keyboard-response","194","303674","0.0-1.0-256.0","0","0","27939","","null","","","null","28","","NaN","","","","","","","","","","","","","",""
"","response","","html-keyboard-response","195","304175","0.0-1.0-257.0-0.0","0","0","27939","","499","","","68","28","","","1","28","training","adjacent","FE","6","5","L.jpg","Q.jpg","0","0","1","",""
"","feedback","","html-keyboard-response","196","305178","0.0-1.0-258.0-0.0","0","0","27939","","null","","","null","28","","","","","","","","","","","","","","","",""
"","ITI","","html-keyboard-response","197","306187","0.0-1.0-261.0","0","0","27939","","null","","","null","28","","","","","","","","","","","","","","","NaN",""
"","S1","","html-keyboard-response","198","306347","0.0-1.0-263.0","0","0","27939","","null","","","null","29","","","","","","","","","","","","","","","",""
"","ISI","","html-keyboard-response","199","308354","0.0-1.0-264.0","0","0","27939","","null","","","null","29","NaN","","","","","","","","","","","","","","",""
"","S2","","html-keyboard-response","200","308515","0.0-1.0-265.0","0","0","27939","","null","","","null","29","","NaN","","","","","","","","","","","","","",""
"","response","","html-keyboard-response","201","309111","0.0-1.0-266.0-0.0","0","0","27939","","594","","","68","29","","","1","29","training","adjacent","DE","4","5","O.jpg","Q.jpg","0","1","0","",""
"","feedback","","html-keyboard-response","202","310115","0.0-1.0-267.0-0.0","0","0","27939","","null","","","null","29","","","","","","","","","","","","","","","",""
"","time_out","","html-keyboard-response","203","312122","0.0-1.0-269.0-0.0","0","0","27939","","null","","","null","29","","","","","","","","","","","","","","","",""
"","ITI","","html-keyboard-response","204","313130","0.0-1.0-270.0","0","0","27939","","null","","","null","29","","","","","","","","","","","","","","","NaN",""
"","S1","","html-keyboard-response","205","313290","0.0-1.0-272.0","0","0","27939","","null","","","null","30","","","","","","","","","","","","","","","",""
"","ISI","","html-keyboard-response","206","315299","0.0-1.0-273.0","0","0","27939","","null","","","null","30","NaN","","","","","","","","","","","","","","",""
"","S2","","html-keyboard-response","207","315458","0.0-1.0-274.0","0","0","27939","","null","","","null","30","","NaN","","","","","","","","","","","","","",""
"","response","","html-keyboard-response","208","316007","0.0-1.0-275.0-0.0","0","0","27939","","547","","","75","30","","","1","30","training","adjacent","FG","6","7","L.jpg","P.jpg","1","1","1","",""
"","feedback","","html-keyboard-response","209","317010","0.0-1.0-276.0-0.0","0","0","27939","","null","","","null","30","","","","","","","","","","","","","","","",""
"","ITI","","html-keyboard-response","210","318018","0.0-1.0-279.0","0","0","27939","","null","","","null","30","","","","","","","","","","","","","","","NaN",""
"","S1","","html-keyboard-response","211","318178","0.0-1.0-281.0","0","0","27939","","null","","","null","31","","","","","","","","","","","","","","","",""
"","ISI","","html-keyboard-response","212","320187","0.0-1.0-282.0","0","0","27939","","null","","","null","31","NaN","","","","","","","","","","","","","","",""
"","S2","","html-keyboard-response","213","320347","0.0-1.0-283.0","0","0","27939","","null","","","null","31","","NaN","","","","","","","","","","","","","",""
"","response","","html-keyboard-response","214","321103","0.0-1.0-284.0-0.0","0","0","27939","","753","","","75","31","","","1","31","training","adjacent","ED","5","4","Q.jpg","O.jpg","1","0","0","",""
"","feedback","","html-keyboard-response","215","322106","0.0-1.0-285.0-0.0","0","0","27939","","null","","","null","31","","","","","","","","","","","","","","","",""
"","time_out","","html-keyboard-response","216","324115","0.0-1.0-287.0-0.0","0","0","27939","","null","","","null","31","","","","","","","","","","","","","","","",""
"","ITI","","html-keyboard-response","217","325123","0.0-1.0-288.0","0","0","27939","","null","","","null","31","","","","","","","","","","","","","","","NaN",""
"","S1","","html-keyboard-response","218","325283","0.0-1.0-290.0","0","0","27939","","null","","","null","32","","","","","","","","","","","","","","","",""
"","ISI","","html-keyboard-response","219","327290","0.0-1.0-291.0","0","0","27939","","null","","","null","32","NaN","","","","","","","","","","","","","","",""
"","S2","","html-keyboard-response","220","327451","0.0-1.0-292.0","0","0","27939","","null","","","null","32","","NaN","","","","","","","","","","","","","",""
"","response","","html-keyboard-response","221","328239","0.0-1.0-293.0-0.0","0","0","27939","","786","","","68","32","","","1","32","training","adjacent","FE","6","5","L.jpg","Q.jpg","0","0","1","",""
"","feedback","","html-keyboard-response","222","329242","0.0-1.0-294.0-0.0","0","0","27939","","null","","","null","32","","","","","","","","","","","","","","","",""
"","ITI","","html-keyboard-response","223","330250","0.0-1.0-297.0","0","0","27939","","null","","","null","32","","","","","","","","","","","","","","","NaN",""
"","S1","","html-keyboard-response","224","330410","0.0-1.0-299.0","0","0","27939","","null","","","null","33","","","","","","","","","","","","","","","",""
"","ISI","","html-keyboard-response","225","332418","0.0-1.0-300.0","0","0","27939","","null","","","null","33","NaN","","","","","","","","","","","","","","",""
"","S2","","html-keyboard-response","226","332578","0.0-1.0-301.0","0","0","27939","","null","","","null","33","","NaN","","","","","","","","","","","","","",""
"","response","","html-keyboard-response","227","333255","0.0-1.0-302.0-0.0","0","0","27939","","674","","","68","33","","","1","33","training","adjacent","FE","6","5","L.jpg","Q.jpg","0","0","1","",""
"","feedback","","html-keyboard-response","228","334258","0.0-1.0-303.0-0.0","0","0","27939","","null","","","null","33","","","","","","","","","","","","","","","",""
"","ITI","","html-keyboard-response","229","335266","0.0-1.0-306.0","0","0","27939","","null","","","null","33","","","","","","","","","","","","","","","NaN",""
"","S1","","html-keyboard-response","230","335426","0.0-1.0-308.0","0","0","27939","","null","","","null","34","","","","","","","","","","","","","","","",""
"","ISI","","html-keyboard-response","231","337434","0.0-1.0-309.0","0","0","27939","","null","","","null","34","NaN","","","","","","","","","","","","","","",""
"","S2","","html-keyboard-response","232","337594","0.0-1.0-310.0","0","0","27939","","null","","","null","34","","NaN","","","","","","","","","","","","","",""
"","response","","html-keyboard-response","233","338159","0.0-1.0-311.0-0.0","0","0","27939","","562","","","75","34","","","1","34","training","adjacent","BA","2","1","R.jpg","M.jpg","1","0","0","",""
"","feedback","","html-keyboard-response","234","339162","0.0-1.0-312.0-0.0","0","0","27939","","null","","","null","34","","","","","","","","","","","","","","","",""
"","time_out","","html-keyboard-response","235","341170","0.0-1.0-314.0-0.0","0","0","27939","","null","","","null","34","","","","","","","","","","","","","","","",""
"","ITI","","html-keyboard-response","236","342178","0.0-1.0-315.0","0","0","27939","","null","","","null","34","","","","","","","","","","","","","","","NaN",""
"","S1","","html-keyboard-response","237","342338","0.0-1.0-317.0","0","0","27939","","null","","","null","35","","","","","","","","","","","","","","","",""
"","ISI","","html-keyboard-response","238","344347","0.0-1.0-318.0","0","0","27939","","null","","","null","35","NaN","","","","","","","","","","","","","","",""
"","S2","","html-keyboard-response","239","344506","0.0-1.0-319.0","0","0","27939","","null","","","null","35","","NaN","","","","","","","","","","","","","",""
"","response","","html-keyboard-response","240","344919","0.0-1.0-320.0-0.0","0","0","27939","","411","","","68","35","","","1","35","training","adjacent","BC","2","3","R.jpg","N.jpg","0","1","0","",""
"","feedback","","html-keyboard-response","241","345922","0.0-1.0-321.0-0.0","0","0","27939","","null","","","null","35","","","","","","","","","","","","","","","",""
"","time_out","","html-keyboard-response","242","347930","0.0-1.0-323.0-0.0","0","0","27939","","null","","","null","35","","","","","","","","","","","","","","","",""
"","ITI","","html-keyboard-response","243","348938","0.0-1.0-324.0","0","0","27939","","null","","","null","35","","","","","","","","","","","","","","","NaN",""
"","S1","","html-keyboard-response","244","349099","0.0-1.0-326.0","0","0","27939","","null","","","null","36","","","","","","","","","","","","","","","",""
"","ISI","","html-keyboard-response","245","351106","0.0-1.0-327.0","0","0","27939","","null","","","null","36","NaN","","","","","","","","","","","","","","",""
"","S2","","html-keyboard-response","246","351267","0.0-1.0-328.0","0","0","27939","","null","","","null","36","","NaN","","","","","","","","","","","","","",""
"","response","","html-keyboard-response","247","351471","0.0-1.0-329.0-0.0","0","0","27939","","202","","","75","36","","","1","36","training","adjacent","GF","7","6","P.jpg","L.jpg","1","0","0","",""
"","feedback","","html-keyboard-response","248","352475","0.0-1.0-330.0-0.0","0","0","27939","","null","","","null","36","","","","","","","","","","","","","","","",""
"","time_out","","html-keyboard-response","249","354483","0.0-1.0-332.0-0.0","0","0","27939","","null","","","null","36","","","","","","","","","","","","","","","",""
"","ITI","","html-keyboard-response","250","355490","0.0-1.0-333.0","0","0","27939","","null","","","null","36","","","","","","","","","","","","","","","NaN",""
"","S1","","html-keyboard-response","251","355650","0.0-1.0-335.0","0","0","27939","","null","","","null","37","","","","","","","","","","","","","","","",""
"","ISI","","html-keyboard-response","252","357658","0.0-1.0-336.0","0","0","27939","","null","","","null","37","NaN","","","","","","","","","","","","","","",""
"","S2","","html-keyboard-response","253","357818","0.0-1.0-337.0","0","0","27939","","null","","","null","37","","NaN","","","","","","","","","","","","","",""
"","response","","html-keyboard-response","254","358383","0.0-1.0-338.0-0.0","0","0","27939","","563","","","68","37","","","1","37","training","adjacent","DE","4","5","O.jpg","Q.jpg","0","1","0","",""
"","feedback","","html-keyboard-response","255","359386","0.0-1.0-339.0-0.0","0","0","27939","","null","","","null","37","","","","","","","","","","","","","","","",""
"","time_out","","html-keyboard-response","256","361394","0.0-1.0-341.0-0.0","0","0","27939","","null","","","null","37","","","","","","","","","","","","","","","",""
"","ITI","","html-keyboard-response","257","362402","0.0-1.0-342.0","0","0","27939","","null","","","null","37","","","","","","","","","","","","","","","NaN",""
"","S1","","html-keyboard-response","258","362563","0.0-1.0-344.0","0","0","27939","","null","","","null","38","","","","","","","","","","","","","","","",""
"","ISI","","html-keyboard-response","259","364570","0.0-1.0-345.0","0","0","27939","","null","","","null","38","NaN","","","","","","","","","","","","","","",""
"","S2","","html-keyboard-response","260","364731","0.0-1.0-346.0","0","0","27939","","null","","","null","38","","NaN","","","","","","","","","","","","","",""
"","response","","html-keyboard-response","261","365007","0.0-1.0-347.0-0.0","0","0","27939","","274","","","75","38","","","1","38","training","adjacent","BA","2","1","R.jpg","M.jpg","1","0","0","",""
"","feedback","","html-keyboard-response","262","366010","0.0-1.0-348.0-0.0","0","0","27939","","null","","","null","38","","","","","","","","","","","","","","","",""
"","time_out","","html-keyboard-response","263","368018","0.0-1.0-350.0-0.0","0","0","27939","","null","","","null","38","","","","","","","","","","","","","","","",""
"","ITI","","html-keyboard-response","264","369026","0.0-1.0-351.0","0","0","27939","","null","","","null","38","","","","","","","","","","","","","","","NaN",""
"","S1","","html-keyboard-response","265","369186","0.0-1.0-353.0","0","0","27939","","null","","","null","39","","","","","","","","","","","","","","","",""
"","ISI","","html-keyboard-response","266","371194","0.0-1.0-354.0","0","0","27939","","null","","","null","39","NaN","","","","","","","","","","","","","","",""
"","S2","","html-keyboard-response","267","371354","0.0-1.0-355.0","0","0","27939","","null","","","null","39","","NaN","","","","","","","","","","","","","",""
"","response","","html-keyboard-response","268","371855","0.0-1.0-356.0-0.0","0","0","27939","","499","","","75","39","","","1","39","training","adjacent","AB","1","2","M.jpg","R.jpg","1","1","1","",""
"","feedback","","html-keyboard-response","269","372858","0.0-1.0-357.0-0.0","0","0","27939","","null","","","null","39","","","","","","","","","","","","","","","",""
"","ITI","","html-keyboard-response","270","373866","0.0-1.0-360.0","0","0","27939","","null","","","null","39","","","","","","","","","","","","","","","NaN",""
"","S1","","html-keyboard-response","271","374026","0.0-1.0-362.0","0","0","27939","","null","","","null","40","","","","","","","","","","","","","","","",""
"","ISI","","html-keyboard-response","272","376034","0.0-1.0-363.0","0","0","27939","","null","","","null","40","NaN","","","","","","","","","","","","","","",""
"","S2","","html-keyboard-response","273","376195","0.0-1.0-364.0","0","0","27939","","null","","","null","40","","NaN","","","","","","","","","","","","","",""
"","response","","html-keyboard-response","274","376871","0.0-1.0-365.0-0.0","0","0","27939","","674","","","75","40","","","1","40","training","adjacent","CB","3","2","N.jpg","R.jpg","1","0","0","",""
"","feedback","","html-keyboard-response","275","377874","0.0-1.0-366.0-0.0","0","0","27939","","null","","","null","40","","","","","","","","","","","","","","","",""
"","time_out","","html-keyboard-response","276","379883","0.0-1.0-368.0-0.0","0","0","27939","","null","","","null","40","","","","","","","","","","","","","","","",""
"","ITI","","html-keyboard-response","277","380890","0.0-1.0-369.0","0","0","27939","","null","","","null","40","","","","","","","","","","","","","","","NaN",""
"","S1","","html-keyboard-response","278","381050","0.0-1.0-371.0","0","0","27939","","null","","","null","41","","","","","","","","","","","","","","","",""
"","ISI","","html-keyboard-response","279","383058","0.0-1.0-372.0","0","0","27939","","null","","","null","41","NaN","","","","","","","","","","","","","","",""
"","S2","","html-keyboard-response","280","383219","0.0-1.0-373.0","0","0","27939","","null","","","null","41","","NaN","","","","","","","","","","","","","",""
"","response","","html-keyboard-response","281","383447","0.0-1.0-374.0-0.0","0","0","27939","","227","","","75","41","","","1","41","training","adjacent","DC","4","3","O.jpg","N.jpg","1","0","0","",""
"","feedback","","html-keyboard-response","282","384451","0.0-1.0-375.0-0.0","0","0","27939","","null","","","null","41","","","","","","","","","","","","","","","",""
"","time_out","","html-keyboard-response","283","386458","0.0-1.0-377.0-0.0","0","0","27939","","null","","","null","41","","","","","","","","","","","","","","","",""
"","ITI","","html-keyboard-response","284","387466","0.0-1.0-378.0","0","0","27939","","null","","","null","41","","","","","","","","","","","","","","","NaN",""
"","S1","","html-keyboard-response","285","387627","0.0-1.0-380.0","0","0","27939","","null","","","null","42","","","","","","","","","","","","","","","",""
"","ISI","","html-keyboard-response","286","389635","0.0-1.0-381.0","0","0","27939","","null","","","null","42","NaN","","","","","","","","","","","","","","",""
"","S2","","html-keyboard-response","287","389794","0.0-1.0-382.0","0","0","27939","","null","","","null","42","","NaN","","","","","","","","","","","","","",""
"","response","","html-keyboard-response","288","390327","0.0-1.0-383.0-0.0","0","0","27939","","531","","","68","42","","","1","42","training","adjacent","GF","7","6","P.jpg","L.jpg","0","0","1","",""
"","feedback","","html-keyboard-response","289","391330","0.0-1.0-384.0-0.0","0","0","27939","","null","","","null","42","","","","","","","","","","","","","","","",""
"","ITI","","html-keyboard-response","290","392338","0.0-1.0-387.0","0","0","27939","","null","","","null","42","","","","","","","","","","","","","","","NaN",""
"","S1","","html-keyboard-response","291","392498","0.0-1.0-389.0","0","0","27939","","null","","","null","43","","","","","","","","","","","","","","","",""
"","ISI","","html-keyboard-response","292","394506","0.0-1.0-390.0","0","0","27939","","null","","","null","43","NaN","","","","","","","","","","","","","","",""
"","S2","","html-keyboard-response","293","394667","0.0-1.0-391.0","0","0","27939","","null","","","null","43","","NaN","","","","","","","","","","","","","",""
"","response","","html-keyboard-response","294","394911","0.0-1.0-392.0-0.0","0","0","27939","","243","","","68","43","","","1","43","training","adjacent","AB","1","2","M.jpg","R.jpg","0","1","0","",""
"","feedback","","html-keyboard-response","295","395915","0.0-1.0-393.0-0.0","0","0","27939","","null","","","null","43","","","","","","","","","","","","","","","",""
"","time_out","","html-keyboard-response","296","397922","0.0-1.0-395.0-0.0","0","0","27939","","null","","","null","43","","","","","","","","","","","","","","","",""
"","ITI","","html-keyboard-response","297","398930","0.0-1.0-396.0","0","0","27939","","null","","","null","43","","","","","","","","","","","","","","","NaN",""
"","S1","","html-keyboard-response","298","399090","0.0-1.0-398.0","0","0","27939","","null","","","null","44","","","","","","","","","","","","","","","",""
"","ISI","","html-keyboard-response","299","401099","0.0-1.0-399.0","0","0","27939","","null","","","null","44","NaN","","","","","","","","","","","","","","",""
"","S2","","html-keyboard-response","300","401258","0.0-1.0-400.0","0","0","27939","","null","","","null","44","","NaN","","","","","","","","","","","","","",""
"","response","","html-keyboard-response","301","401623","0.0-1.0-401.0-0.0","0","0","27939","","362","","","75","44","","","1","44","training","adjacent","DC","4","3","O.jpg","N.jpg","1","0","0","",""
"","feedback","","html-keyboard-response","302","402627","0.0-1.0-402.0-0.0","0","0","27939","","null","","","null","44","","","","","","","","","","","","","","","",""
"","time_out","","html-keyboard-response","303","404634","0.0-1.0-404.0-0.0","0","0","27939","","null","","","null","44","","","","","","","","","","","","","","","",""
"","ITI","","html-keyboard-response","304","405642","0.0-1.0-405.0","0","0","27939","","null","","","null","44","","","","","","","","","","","","","","","NaN",""
"","S1","","html-keyboard-response","305","405802","0.0-1.0-407.0","0","0","27939","","null","","","null","45","","","","","","","","","","","","","","","",""
"","ISI","","html-keyboard-response","306","407811","0.0-1.0-408.0","0","0","27939","","null","","","null","45","NaN","","","","","","","","","","","","","","",""
"","S2","","html-keyboard-response","307","407971","0.0-1.0-409.0","0","0","27939","","null","","","null","45","","NaN","","","","","","","","","","","","","",""
"","response","","html-keyboard-response","308","408511","0.0-1.0-410.0-0.0","0","0","27939","","537","","","68","45","","","1","45","training","adjacent","EF","5","6","Q.jpg","L.jpg","0","1","0","",""
"","feedback","","html-keyboard-response","309","409514","0.0-1.0-411.0-0.0","0","0","27939","","null","","","null","45","","","","","","","","","","","","","","","",""
"","time_out","","html-keyboard-response","310","411522","0.0-1.0-413.0-0.0","0","0","27939","","null","","","null","45","","","","","","","","","","","","","","","",""
"","ITI","","html-keyboard-response","311","412531","0.0-1.0-414.0","0","0","27939","","null","","","null","45","","","","","","","","","","","","","","","NaN",""
"","S1","","html-keyboard-response","312","412690","0.0-1.0-416.0","0","0","27939","","null","","","null","46","","","","","","","","","","","","","","","",""
"","ISI","","html-keyboard-response","313","414699","0.0-1.0-417.0","0","0","27939","","null","","","null","46","NaN","","","","","","","","","","","","","","",""
"","S2","","html-keyboard-response","314","414858","0.0-1.0-418.0","0","0","27939","","null","","","null","46","","NaN","","","","","","","","","","","","","",""
"","response","","html-keyboard-response","315","415471","0.0-1.0-419.0-0.0","0","0","27939","","611","","","75","46","","","1","46","training","adjacent","DE","4","5","O.jpg","Q.jpg","1","1","1","",""
"","feedback","","html-keyboard-response","316","416474","0.0-1.0-420.0-0.0","0","0","27939","","null","","","null","46","","","","","","","","","","","","","","","",""
"","ITI","","html-keyboard-response","317","417482","0.0-1.0-423.0","0","0","27939","","null","","","null","46","","","","","","","","","","","","","","","NaN",""
"","S1","","html-keyboard-response","318","417642","0.0-1.0-425.0","0","0","27939","","null","","","null","47","","","","","","","","","","","","","","","",""
"","ISI","","html-keyboard-response","319","419651","0.0-1.0-426.0","0","0","27939","","null","","","null","47","NaN","","","","","","","","","","","","","","",""
"","S2","","html-keyboard-response","320","419811","0.0-1.0-427.0","0","0","27939","","null","","","null","47","","NaN","","","","","","","","","","","","","",""
"","response","","html-keyboard-response","321","420431","0.0-1.0-428.0-0.0","0","0","27939","","619","","","75","47","","","1","47","training","adjacent","GF","7","6","P.jpg","L.jpg","1","0","0","",""
"","feedback","","html-keyboard-response","322","421434","0.0-1.0-429.0-0.0","0","0","27939","","null","","","null","47","","","","","","","","","","","","","","","",""
"","time_out","","html-keyboard-response","323","423442","0.0-1.0-431.0-0.0","0","0","27939","","null","","","null","47","","","","","","","","","","","","","","","",""
"","ITI","","html-keyboard-response","324","424451","0.0-1.0-432.0","0","0","27939","","null","","","null","47","","","","","","","","","","","","","","","NaN",""
"","block_over","","html-keyboard-response","325","429607","0.0-1.0-433.0-0.0","0","0","27939","","5154","","","32","47","","","","","","","","","","","","","","","",""
"","S1","","html-keyboard-response","326","429763","0.0-1.0-434.0","0","0","27939","","null","","","null","48","","","","","","","","","","","","","","","",""
"","ISI","","html-keyboard-response","327","431770","0.0-1.0-435.0","0","0","27939","","null","","","null","48","NaN","","","","","","","","","","","","","","",""
"","S2","","html-keyboard-response","328","431930","0.0-1.0-436.0","0","0","27939","","null","","","null","48","","NaN","","","","","","","","","","","","","",""
"","response","","html-keyboard-response","329","432543","0.0-1.0-437.0-0.0","0","0","27939","","611","","","75","48","","","2","48","training","adjacent","BC","2","3","R.jpg","N.jpg","1","1","1","",""
"","feedback","","html-keyboard-response","330","433546","0.0-1.0-438.0-0.0","0","0","27939","","null","","","null","48","","","","","","","","","","","","","","","",""
"","ITI","","html-keyboard-response","331","434554","0.0-1.0-441.0","0","0","27939","","null","","","null","48","","","","","","","","","","","","","","","NaN",""
"","S1","","html-keyboard-response","332","434714","0.0-1.0-443.0","0","0","27939","","null","","","null","49","","","","","","","","","","","","","","","",""
"","ISI","","html-keyboard-response","333","436722","0.0-1.0-444.0","0","0","27939","","null","","","null","49","NaN","","","","","","","","","","","","","","",""
"","S2","","html-keyboard-response","334","436882","0.0-1.0-445.0","0","0","27939","","null","","","null","49","","NaN","","","","","","","","","","","","","",""
"","response","","html-keyboard-response","335","437583","0.0-1.0-446.0-0.0","0","0","27939","","698","","","68","49","","","2","49","training","adjacent","CB","3","2","N.jpg","R.jpg","0","0","1","",""
"","feedback","","html-keyboard-response","336","438586","0.0-1.0-447.0-0.0","0","0","27939","","null","","","null","49","","","","","","","","","","","","","","","",""
"","ITI","","html-keyboard-response","337","439594","0.0-1.0-450.0","0","0","27939","","null","","","null","49","","","","","","","","","","","","","","","NaN",""
"","S1","","html-keyboard-response","338","439747","0.0-1.0-452.0","0","0","27939","","null","","","null","50","","","","","","","","","","","","","","","",""
"","ISI","","html-keyboard-response","339","441755","0.0-1.0-453.0","0","0","27939","","null","","","null","50","NaN","","","","","","","","","","","","","","",""
"","S2","","html-keyboard-response","340","441915","0.0-1.0-454.0","0","0","27939","","null","","","null","50","","NaN","","","","","","","","","","","","","",""
"","response","","html-keyboard-response","341","442583","0.0-1.0-455.0-0.0","0","0","27939","","667","","","75","50","","","2","50","training","adjacent","FE","6","5","L.jpg","Q.jpg","1","0","0","",""
"","feedback","","html-keyboard-response","342","443586","0.0-1.0-456.0-0.0","0","0","27939","","null","","","null","50","","","","","","","","","","","","","","","",""
"","time_out","","html-keyboard-response","343","445594","0.0-1.0-458.0-0.0","0","0","27939","","null","","","null","50","","","","","","","","","","","","","","","",""
"","ITI","","html-keyboard-response","344","446603","0.0-1.0-459.0","0","0","27939","","null","","","null","50","","","","","","","","","","","","","","","NaN",""
"","S1","","html-keyboard-response","345","446762","0.0-1.0-461.0","0","0","27939","","null","","","null","51","","","","","","","","","","","","","","","",""
"","ISI","","html-keyboard-response","346","448771","0.0-1.0-462.0","0","0","27939","","null","","","null","51","NaN","","","","","","","","","","","","","","",""
"","S2","","html-keyboard-response","347","448930","0.0-1.0-463.0","0","0","27939","","null","","","null","51","","NaN","","","","","","","","","","","","","",""
"","response","","html-keyboard-response","348","449767","0.0-1.0-464.0-0.0","0","0","27939","","834","","","75","51","","","2","51","training","adjacent","CD","3","4","N.jpg","O.jpg","1","1","1","",""
"","feedback","","html-keyboard-response","349","450770","0.0-1.0-465.0-0.0","0","0","27939","","null","","","null","51","","","","","","","","","","","","","","","",""
"","ITI","","html-keyboard-response","350","451778","0.0-1.0-468.0","0","0","27939","","null","","","null","51","","","","","","","","","","","","","","","NaN",""
"","S1","","html-keyboard-response","351","451938","0.0-1.0-470.0","0","0","27939","","null","","","null","52","","","","","","","","","","","","","","","",""
"","ISI","","html-keyboard-response","352","453947","0.0-1.0-471.0","0","0","27939","","null","","","null","52","NaN","","","","","","","","","","","","","","",""
"","S2","","html-keyboard-response","353","454106","0.0-1.0-472.0","0","0","27939","","null","","","null","52","","NaN","","","","","","","","","","","","","",""
"","response","","html-keyboard-response","354","454543","0.0-1.0-473.0-0.0","0","0","27939","","434","","","75","52","","","2","52","training","adjacent","DC","4","3","O.jpg","N.jpg","1","0","0","",""
"","feedback","","html-keyboard-response","355","455546","0.0-1.0-474.0-0.0","0","0","27939","","null","","","null","52","","","","","","","","","","","","","","","",""
"","time_out","","html-keyboard-response","356","457555","0.0-1.0-476.0-0.0","0","0","27939","","null","","","null","52","","","","","","","","","","","","","","","",""
"","ITI","","html-keyboard-response","357","458562","0.0-1.0-477.0","0","0","27939","","null","","","null","52","","","","","","","","","","","","","","","NaN",""
"","S1","","html-keyboard-response","358","458714","0.0-1.0-479.0","0","0","27939","","null","","","null","53","","","","","","","","","","","","","","","",""
"","ISI","","html-keyboard-response","359","460722","0.0-1.0-480.0","0","0","27939","","null","","","null","53","NaN","","","","","","","","","","","","","","",""
"","S2","","html-keyboard-response","360","460882","0.0-1.0-481.0","0","0","27939","","null","","","null","53","","NaN","","","","","","","","","","","","","",""
"","response","","html-keyboard-response","361","461462","0.0-1.0-482.0-0.0","0","0","27939","","578","","","68","53","","","2","53","training","adjacent","DC","4","3","O.jpg","N.jpg","0","0","1","",""
"","feedback","","html-keyboard-response","362","462466","0.0-1.0-483.0-0.0","0","0","27939","","null","","","null","53","","","","","","","","","","","","","","","",""
"","ITI","","html-keyboard-response","363","463474","0.0-1.0-486.0","0","0","27939","","null","","","null","53","","","","","","","","","","","","","","","NaN",""
"","S1","","html-keyboard-response","364","463634","0.0-1.0-488.0","0","0","27939","","null","","","null","54","","","","","","","","","","","","","","","",""
"","ISI","","html-keyboard-response","365","465642","0.0-1.0-489.0","0","0","27939","","null","","","null","54","NaN","","","","","","","","","","","","","","",""
"","S2","","html-keyboard-response","366","465794","0.0-1.0-490.0","0","0","27939","","null","","","null","54","","NaN","","","","","","","","","","","","","",""
"","response","","html-keyboard-response","367","466431","0.0-1.0-491.0-0.0","0","0","27939","","634","","","75","54","","","2","54","training","adjacent","FG","6","7","L.jpg","P.jpg","1","1","1","",""
"","feedback","","html-keyboard-response","368","467434","0.0-1.0-492.0-0.0","0","0","27939","","null","","","null","54","","","","","","","","","","","","","","","",""
"","ITI","","html-keyboard-response","369","468442","0.0-1.0-495.0","0","0","27939","","null","","","null","54","","","","","","","","","","","","","","","NaN",""
"","S1","","html-keyboard-response","370","468594","0.0-1.0-497.0","0","0","27939","","null","","","null","55","","","","","","","","","","","","","","","",""
"","ISI","","html-keyboard-response","371","470603","0.0-1.0-498.0","0","0","27939","","null","","","null","55","NaN","","","","","","","","","","","","","","",""
"","S2","","html-keyboard-response","372","470762","0.0-1.0-499.0","0","0","27939","","null","","","null","55","","NaN","","","","","","","","","","","","","",""
"","response","","html-keyboard-response","373","471390","0.0-1.0-500.0-0.0","0","0","27939","","626","","","68","55","","","2","55","training","adjacent","EF","5","6","Q.jpg","L.jpg","0","1","0","",""
"","feedback","","html-keyboard-response","374","472394","0.0-1.0-501.0-0.0","0","0","27939","","null","","","null","55","","","","","","","","","","","","","","","",""
"","time_out","","html-keyboard-response","375","474403","0.0-1.0-503.0-0.0","0","0","27939","","null","","","null","55","","","","","","","","","","","","","","","",""
"","ITI","","html-keyboard-response","376","475410","0.0-1.0-504.0","0","0","27939","","null","","","null","55","","","","","","","","","","","","","","","NaN",""
"","S1","","html-keyboard-response","377","475570","0.0-1.0-506.0","0","0","27939","","null","","","null","56","","","","","","","","","","","","","","","",""
"","ISI","","html-keyboard-response","378","477578","0.0-1.0-507.0","0","0","27939","","null","","","null","56","NaN","","","","","","","","","","","","","","",""
"","S2","","html-keyboard-response","379","477738","0.0-1.0-508.0","0","0","27939","","null","","","null","56","","NaN","","","","","","","","","","","","","",""
"","response","","html-keyboard-response","380","478295","0.0-1.0-509.0-0.0","0","0","27939","","555","","","75","56","","","2","56","training","adjacent","FE","6","5","L.jpg","Q.jpg","1","0","0","",""
"","feedback","","html-keyboard-response","381","479298","0.0-1.0-510.0-0.0","0","0","27939","","null","","","null","56","","","","","","","","","","","","","","","",""
"","time_out","","html-keyboard-response","382","481306","0.0-1.0-512.0-0.0","0","0","27939","","null","","","null","56","","","","","","","","","","","","","","","",""
"","ITI","","html-keyboard-response","383","482314","0.0-1.0-513.0","0","0","27939","","null","","","null","56","","","","","","","","","","","","","","","NaN",""
"","S1","","html-keyboard-response","384","482474","0.0-1.0-515.0","0","0","27939","","null","","","null","57","","","","","","","","","","","","","","","",""
"","ISI","","html-keyboard-response","385","484483","0.0-1.0-516.0","0","0","27939","","null","","","null","57","NaN","","","","","","","","","","","","","","",""
"","S2","","html-keyboard-response","386","484643","0.0-1.0-517.0","0","0","27939","","null","","","null","57","","NaN","","","","","","","","","","","","","",""
"","response","","html-keyboard-response","387","485286","0.0-1.0-518.0-0.0","0","0","27939","","642","","","75","57","","","2","57","training","adjacent","BA","2","1","R.jpg","M.jpg","1","0","0","",""
"","feedback","","html-keyboard-response","388","486290","0.0-1.0-519.0-0.0","0","0","27939","","null","","","null","57","","","","","","","","","","","","","","","",""
"","time_out","","html-keyboard-response","389","488299","0.0-1.0-521.0-0.0","0","0","27939","","null","","","null","57","","","","","","","","","","","","","","","",""
"","ITI","","html-keyboard-response","390","489306","0.0-1.0-522.0","0","0","27939","","null","","","null","57","","","","","","","","","","","","","","","NaN",""
"","S1","","html-keyboard-response","391","489466","0.0-1.0-524.0","0","0","27939","","null","","","null","58","","","","","","","","","","","","","","","",""
"","ISI","","html-keyboard-response","392","491474","0.0-1.0-525.0","0","0","27939","","null","","","null","58","NaN","","","","","","","","","","","","","","",""
"","S2","","html-keyboard-response","393","491634","0.0-1.0-526.0","0","0","27939","","null","","","null","58","","NaN","","","","","","","","","","","","","",""
"","response","","html-keyboard-response","394","492303","0.0-1.0-527.0-0.0","0","0","27939","","667","","","68","58","","","2","58","training","adjacent","FE","6","5","L.jpg","Q.jpg","0","0","1","",""
"","feedback","","html-keyboard-response","395","493306","0.0-1.0-528.0-0.0","0","0","27939","","null","","","null","58","","","","","","","","","","","","","","","",""
"","ITI","","html-keyboard-response","396","494314","0.0-1.0-531.0","0","0","27939","","null","","","null","58","","","","","","","","","","","","","","","NaN",""
"","S1","","html-keyboard-response","397","494474","0.0-1.0-533.0","0","0","27939","","null","","","null","59","","","","","","","","","","","","","","","",""
"","ISI","","html-keyboard-response","398","496482","0.0-1.0-534.0","0","0","27939","","null","","","null","59","NaN","","","","","","","","","","","","","","",""
"","S2","","html-keyboard-response","399","496642","0.0-1.0-535.0","0","0","27939","","null","","","null","59","","NaN","","","","","","","","","","","","","",""
"","response","","html-keyboard-response","400","497359","0.0-1.0-536.0-0.0","0","0","27939","","714","","","68","59","","","2","59","training","adjacent","CD","3","4","N.jpg","O.jpg","0","1","0","",""
"","feedback","","html-keyboard-response","401","498362","0.0-1.0-537.0-0.0","0","0","27939","","null","","","null","59","","","","","","","","","","","","","","","",""
"","time_out","","html-keyboard-response","402","500370","0.0-1.0-539.0-0.0","0","0","27939","","null","","","null","59","","","","","","","","","","","","","","","",""
"","ITI","","html-keyboard-response","403","501378","0.0-1.0-540.0","0","0","27939","","null","","","null","59","","","","","","","","","","","","","","","NaN",""
"","S1","","html-keyboard-response","404","501538","0.0-1.0-542.0","0","0","27939","","null","","","null","60","","","","","","","","","","","","","","","",""
"","ISI","","html-keyboard-response","405","503547","0.0-1.0-543.0","0","0","27939","","null","","","null","60","NaN","","","","","","","","","","","","","","",""
"","S2","","html-keyboard-response","406","503707","0.0-1.0-544.0","0","0","27939","","null","","","null","60","","NaN","","","","","","","","","","","","","",""
"","response","","html-keyboard-response","407","504247","0.0-1.0-545.0-0.0","0","0","27939","","539","","","68","60","","","2","60","training","adjacent","EF","5","6","Q.jpg","L.jpg","0","1","0","",""
"","feedback","","html-keyboard-response","408","505250","0.0-1.0-546.0-0.0","0","0","27939","","null","","","null","60","","","","","","","","","","","","","","","",""
"","time_out","","html-keyboard-response","409","507259","0.0-1.0-548.0-0.0","0","0","27939","","null","","","null","60","","","","","","","","","","","","","","","",""
"","ITI","","html-keyboard-response","410","508266","0.0-1.0-549.0","0","0","27939","","null","","","null","60","","","","","","","","","","","","","","","NaN",""
"","S1","","html-keyboard-response","411","508426","0.0-1.0-551.0","0","0","27939","","null","","","null","61","","","","","","","","","","","","","","","",""
"","ISI","","html-keyboard-response","412","510434","0.0-1.0-552.0","0","0","27939","","null","","","null","61","NaN","","","","","","","","","","","","","","",""
"","S2","","html-keyboard-response","413","510594","0.0-1.0-553.0","0","0","27939","","null","","","null","61","","NaN","","","","","","","","","","","","","",""
"","response","","html-keyboard-response","414","510839","0.0-1.0-554.0-0.0","0","0","27939","","243","","","75","61","","","2","61","training","adjacent","EF","5","6","Q.jpg","L.jpg","1","1","1","",""
"","feedback","","html-keyboard-response","415","511842","0.0-1.0-555.0-0.0","0","0","27939","","null","","","null","61","","","","","","","","","","","","","","","",""
"","ITI","","html-keyboard-response","416","512850","0.0-1.0-558.0","0","0","27939","","null","","","null","61","","","","","","","","","","","","","","","NaN",""
"","S1","","html-keyboard-response","417","513010","0.0-1.0-560.0","0","0","27939","","null","","","null","62","","","","","","","","","","","","","","","",""
"","ISI","","html-keyboard-response","418","515019","0.0-1.0-561.0","0","0","27939","","null","","","null","62","NaN","","","","","","","","","","","","","","",""
"","S2","","html-keyboard-response","419","515178","0.0-1.0-562.0","0","0","27939","","null","","","null","62","","NaN","","","","","","","","","","","","","",""
"","response","","html-keyboard-response","420","515951","0.0-1.0-563.0-0.0","0","0","27939","","771","","","75","62","","","2","62","training","adjacent","DC","4","3","O.jpg","N.jpg","1","0","0","",""
"","feedback","","html-keyboard-response","421","516955","0.0-1.0-564.0-0.0","0","0","27939","","null","","","null","62","","","","","","","","","","","","","","","",""
"","time_out","","html-keyboard-response","422","518963","0.0-1.0-566.0-0.0","0","0","27939","","null","","","null","62","","","","","","","","","","","","","","","",""
"","ITI","","html-keyboard-response","423","519970","0.0-1.0-567.0","0","0","27939","","null","","","null","62","","","","","","","","","","","","","","","NaN",""
"","S1","","html-keyboard-response","424","520130","0.0-1.0-569.0","0","0","27939","","null","","","null","63","","","","","","","","","","","","","","","",""
"","ISI","","html-keyboard-response","425","522138","0.0-1.0-570.0","0","0","27939","","null","","","null","63","NaN","","","","","","","","","","","","","","",""
"","S2","","html-keyboard-response","426","522298","0.0-1.0-571.0","0","0","27939","","null","","","null","63","","NaN","","","","","","","","","","","","","",""
"","response","","html-keyboard-response","427","522719","0.0-1.0-572.0-0.0","0","0","27939","","419","","","75","63","","","2","63","training","adjacent","FG","6","7","L.jpg","P.jpg","1","1","1","",""
"","feedback","","html-keyboard-response","428","523722","0.0-1.0-573.0-0.0","0","0","27939","","null","","","null","63","","","","","","","","","","","","","","","",""
"","ITI","","html-keyboard-response","429","524730","0.0-1.0-576.0","0","0","27939","","null","","","null","63","","","","","","","","","","","","","","","NaN",""
"","S1","","html-keyboard-response","430","524890","0.0-1.0-578.0","0","0","27939","","null","","","null","64","","","","","","","","","","","","","","","",""
"","ISI","","html-keyboard-response","431","526898","0.0-1.0-579.0","0","0","27939","","null","","","null","64","NaN","","","","","","","","","","","","","","",""
"","S2","","html-keyboard-response","432","527058","0.0-1.0-580.0","0","0","27939","","null","","","null","64","","NaN","","","","","","","","","","","","","",""
"","response","","html-keyboard-response","433","527519","0.0-1.0-581.0-0.0","0","0","27939","","459","","","68","64","","","2","64","training","adjacent","FG","6","7","L.jpg","P.jpg","0","1","0","",""
"","feedback","","html-keyboard-response","434","528522","0.0-1.0-582.0-0.0","0","0","27939","","null","","","null","64","","","","","","","","","","","","","","","",""
"","time_out","","html-keyboard-response","435","530530","0.0-1.0-584.0-0.0","0","0","27939","","null","","","null","64","","","","","","","","","","","","","","","",""
"","ITI","","html-keyboard-response","436","531539","0.0-1.0-585.0","0","0","27939","","null","","","null","64","","","","","","","","","","","","","","","NaN",""
"","S1","","html-keyboard-response","437","531699","0.0-1.0-587.0","0","0","27939","","null","","","null","65","","","","","","","","","","","","","","","",""
"","ISI","","html-keyboard-response","438","533706","0.0-1.0-588.0","0","0","27939","","null","","","null","65","NaN","","","","","","","","","","","","","","",""
"","S2","","html-keyboard-response","439","533866","0.0-1.0-589.0","0","0","27939","","null","","","null","65","","NaN","","","","","","","","","","","","","",""
"","response","","html-keyboard-response","440","534295","0.0-1.0-590.0-0.0","0","0","27939","","426","","","75","65","","","2","65","training","adjacent","GF","7","6","P.jpg","L.jpg","1","0","0","",""
"","feedback","","html-keyboard-response","441","535299","0.0-1.0-591.0-0.0","0","0","27939","","null","","","null","65","","","","","","","","","","","","","","","",""
"","time_out","","html-keyboard-response","442","537306","0.0-1.0-593.0-0.0","0","0","27939","","null","","","null","65","","","","","","","","","","","","","","","",""
"","ITI","","html-keyboard-response","443","538314","0.0-1.0-594.0","0","0","27939","","null","","","null","65","","","","","","","","","","","","","","","NaN",""
"","S1","","html-keyboard-response","444","538474","0.0-1.0-596.0","0","0","27939","","null","","","null","66","","","","","","","","","","","","","","","",""
"","ISI","","html-keyboard-response","445","540482","0.0-1.0-597.0","0","0","27939","","null","","","null","66","NaN","","","","","","","","","","","","","","",""
"","S2","","html-keyboard-response","446","540642","0.0-1.0-598.0","0","0","27939","","null","","","null","66","","NaN","","","","","","","","","","","","","",""
"","response","","html-keyboard-response","447","540775","0.0-1.0-599.0-0.0","0","0","27939","","131","","","75","66","","","2","66","training","adjacent","ED","5","4","Q.jpg","O.jpg","1","0","0","",""
"","feedback","","html-keyboard-response","448","541778","0.0-1.0-600.0-0.0","0","0","27939","","null","","","null","66","","","","","","","","","","","","","","","",""
"","time_out","","html-keyboard-response","449","543787","0.0-1.0-602.0-0.0","0","0","27939","","null","","","null","66","","","","","","","","","","","","","","","",""
"","ITI","","html-keyboard-response","450","544794","0.0-1.0-603.0","0","0","27939","","null","","","null","66","","","","","","","","","","","","","","","NaN",""
"","S1","","html-keyboard-response","451","544955","0.0-1.0-605.0","0","0","27939","","null","","","null","67","","","","","","","","","","","","","","","",""
"","ISI","","html-keyboard-response","452","546962","0.0-1.0-606.0","0","0","27939","","null","","","null","67","NaN","","","","","","","","","","","","","","",""
"","S2","","html-keyboard-response","453","547122","0.0-1.0-607.0","0","0","27939","","null","","","null","67","","NaN","","","","","","","","","","","","","",""
"","response","","html-keyboard-response","454","547887","0.0-1.0-608.0-0.0","0","0","27939","","762","","","68","67","","","2","67","training","adjacent","FG","6","7","L.jpg","P.jpg","0","1","0","",""
"","feedback","","html-keyboard-response","455","548890","0.0-1.0-609.0-0.0","0","0","27939","","null","","","null","67","","","","","","","","","","","","","","","",""
"","time_out","","html-keyboard-response","456","550898","0.0-1.0-611.0-0.0","0","0","27939","","null","","","null","67","","","","","","","","","","","","","","","",""
"","ITI","","html-keyboard-response","457","551906","0.0-1.0-612.0","0","0","27939","","null","","","null","67","","","","","","","","","","","","","","","NaN",""
"","S1","","html-keyboard-response","458","552066","0.0-1.0-614.0","0","0","27939","","null","","","null","68","","","","","","","","","","","","","","","",""
"","ISI","","html-keyboard-response","459","554074","0.0-1.0-615.0","0","0","27939","","null","","","null","68","NaN","","","","","","","","","","","","","","",""
"","S2","","html-keyboard-response","460","554235","0.0-1.0-616.0","0","0","27939","","null","","","null","68","","NaN","","","","","","","","","","","","","",""
"","response","","html-keyboard-response","461","555207","0.0-1.0-617.0-0.0","0","0","27939","","971","","","75","68","","","2","68","training","adjacent","FE","6","5","L.jpg","Q.jpg","1","0","0","",""
"","feedback","","html-keyboard-response","462","556210","0.0-1.0-618.0-0.0","0","0","27939","","null","","","null","68","","","","","","","","","","","","","","","",""
"","time_out","","html-keyboard-response","463","558218","0.0-1.0-620.0-0.0","0","0","27939","","null","","","null","68","","","","","","","","","","","","","","","",""
"","ITI","","html-keyboard-response","464","559226","0.0-1.0-621.0","0","0","27939","","null","","","null","68","","","","","","","","","","","","","","","NaN",""
"","S1","","html-keyboard-response","465","559386","0.0-1.0-623.0","0","0","27939","","null","","","null","69","","","","","","","","","","","","","","","",""
"","ISI","","html-keyboard-response","466","561395","0.0-1.0-624.0","0","0","27939","","null","","","null","69","NaN","","","","","","","","","","","","","","",""
"","S2","","html-keyboard-response","467","561554","0.0-1.0-625.0","0","0","27939","","null","","","null","69","","NaN","","","","","","","","","","","","","",""
"","response","","html-keyboard-response","468","561647","0.0-1.0-626.0-0.0","0","0","27939","","90","","","75","69","","","2","69","training","adjacent","EF","5","6","Q.jpg","L.jpg","1","1","1","",""
"","feedback","","html-keyboard-response","469","562651","0.0-1.0-627.0-0.0","0","0","27939","","null","","","null","69","","","","","","","","","","","","","","","",""
"","ITI","","html-keyboard-response","470","563658","0.0-1.0-630.0","0","0","27939","","null","","","null","69","","","","","","","","","","","","","","","NaN",""
"","S1","","html-keyboard-response","471","563818","0.0-1.0-632.0","0","0","27939","","null","","","null","70","","","","","","","","","","","","","","","",""
"","ISI","","html-keyboard-response","472","565826","0.0-1.0-633.0","0","0","27939","","null","","","null","70","NaN","","","","","","","","","","","","","","",""
"","S2","","html-keyboard-response","473","565986","0.0-1.0-634.0","0","0","27939","","null","","","null","70","","NaN","","","","","","","","","","","","","",""
"","response","","html-keyboard-response","474","566431","0.0-1.0-635.0-0.0","0","0","27939","","443","","","75","70","","","2","70","training","adjacent","DE","4","5","O.jpg","Q.jpg","1","1","1","",""
"","feedback","","html-keyboard-response","475","567434","0.0-1.0-636.0-0.0","0","0","27939","","null","","","null","70","","","","","","","","","","","","","","","",""
"","ITI","","html-keyboard-response","476","568442","0.0-1.0-639.0","0","0","27939","","null","","","null","70","","","","","","","","","","","","","","","NaN",""
"","S1","","html-keyboard-response","477","568603","0.0-1.0-641.0","0","0","27939","","null","","","null","71","","","","","","","","","","","","","","","",""
"","ISI","","html-keyboard-response","478","570611","0.0-1.0-642.0","0","0","27939","","null","","","null","71","NaN","","","","","","","","","","","","","","",""
"","S2","","html-keyboard-response","479","570770","0.0-1.0-643.0","0","0","27939","","null","","","null","71","","NaN","","","","","","","","","","","","","",""
"","response","","html-keyboard-response","480","570967","0.0-1.0-644.0-0.0","0","0","27939","","194","","","68","71","","","2","71","training","adjacent","ED","5","4","Q.jpg","O.jpg","0","0","1","",""
"","feedback","","html-keyboard-response","481","571970","0.0-1.0-645.0-0.0","0","0","27939","","null","","","null","71","","","","","","","","","","","","","","","",""
"","ITI","","html-keyboard-response","482","572978","0.0-1.0-648.0","0","0","27939","","null","","","null","71","","","","","","","","","","","","","","","NaN",""
"","S1","","html-keyboard-response","483","573138","0.0-1.0-650.0","0","0","27939","","null","","","null","72","","","","","","","","","","","","","","","",""
"","ISI","","html-keyboard-response","484","575146","0.0-1.0-651.0","0","0","27939","","null","","","null","72","NaN","","","","","","","","","","","","","","",""
"","S2","","html-keyboard-response","485","575306","0.0-1.0-652.0","0","0","27939","","null","","","null","72","","NaN","","","","","","","","","","","","","",""
"","response","","html-keyboard-response","486","575847","0.0-1.0-653.0-0.0","0","0","27939","","539","","","68","72","","","2","72","training","adjacent","DE","4","5","O.jpg","Q.jpg","0","1","0","",""
"","feedback","","html-keyboard-response","487","576850","0.0-1.0-654.0-0.0","0","0","27939","","null","","","null","72","","","","","","","","","","","","","","","",""
"","time_out","","html-keyboard-response","488","578858","0.0-1.0-656.0-0.0","0","0","27939","","null","","","null","72","","","","","","","","","","","","","","","",""
"","ITI","","html-keyboard-response","489","579866","0.0-1.0-657.0","0","0","27939","","null","","","null","72","","","","","","","","","","","","","","","NaN",""
"","S1","","html-keyboard-response","490","580026","0.0-1.0-659.0","0","0","27939","","null","","","null","73","","","","","","","","","","","","","","","",""
"","ISI","","html-keyboard-response","491","582035","0.0-1.0-660.0","0","0","27939","","null","","","null","73","NaN","","","","","","","","","","","","","","",""
"","S2","","html-keyboard-response","492","582194","0.0-1.0-661.0","0","0","27939","","null","","","null","73","","NaN","","","","","","","","","","","","","",""
"","response","","html-keyboard-response","493","582823","0.0-1.0-662.0-0.0","0","0","27939","","627","","","68","73","","","2","73","training","adjacent","CB","3","2","N.jpg","R.jpg","0","0","1","",""
"","feedback","","html-keyboard-response","494","583826","0.0-1.0-663.0-0.0","0","0","27939","","null","","","null","73","","","","","","","","","","","","","","","",""
"","ITI","","html-keyboard-response","495","584834","0.0-1.0-666.0","0","0","27939","","null","","","null","73","","","","","","","","","","","","","","","NaN",""
"","S1","","html-keyboard-response","496","584994","0.0-1.0-668.0","0","0","27939","","null","","","null","74","","","","","","","","","","","","","","","",""
"","ISI","","html-keyboard-response","497","587002","0.0-1.0-669.0","0","0","27939","","null","","","null","74","NaN","","","","","","","","","","","","","","",""
"","S2","","html-keyboard-response","498","587162","0.0-1.0-670.0","0","0","27939","","null","","","null","74","","NaN","","","","","","","","","","","","","",""
"","response","","html-keyboard-response","499","587759","0.0-1.0-671.0-0.0","0","0","27939","","595","","","68","74","","","2","74","training","adjacent","ED","5","4","Q.jpg","O.jpg","0","0","1","",""
"","feedback","","html-keyboard-response","500","588762","0.0-1.0-672.0-0.0","0","0","27939","","null","","","null","74","","","","","","","","","","","","","","","",""
"","ITI","","html-keyboard-response","501","589770","0.0-1.0-675.0","0","0","27939","","null","","","null","74","","","","","","","","","","","","","","","NaN",""
"","S1","","html-keyboard-response","502","589930","0.0-1.0-677.0","0","0","27939","","null","","","null","75","","","","","","","","","","","","","","","",""
"","ISI","","html-keyboard-response","503","591938","0.0-1.0-678.0","0","0","27939","","null","","","null","75","NaN","","","","","","","","","","","","","","",""
"","S2","","html-keyboard-response","504","592098","0.0-1.0-679.0","0","0","27939","","null","","","null","75","","NaN","","","","","","","","","","","","","",""
"","response","","html-keyboard-response","505","592719","0.0-1.0-680.0-0.0","0","0","27939","","619","","","75","75","","","2","75","training","adjacent","GF","7","6","P.jpg","L.jpg","1","0","0","",""
"","feedback","","html-keyboard-response","506","593722","0.0-1.0-681.0-0.0","0","0","27939","","null","","","null","75","","","","","","","","","","","","","","","",""
"","time_out","","html-keyboard-response","507","595730","0.0-1.0-683.0-0.0","0","0","27939","","null","","","null","75","","","","","","","","","","","","","","","",""
"","ITI","","html-keyboard-response","508","596738","0.0-1.0-684.0","0","0","27939","","null","","","null","75","","","","","","","","","","","","","","","NaN",""
"","S1","","html-keyboard-response","509","596898","0.0-1.0-686.0","0","0","27939","","null","","","null","76","","","","","","","","","","","","","","","",""
"","ISI","","html-keyboard-response","510","598906","0.0-1.0-687.0","0","0","27939","","null","","","null","76","NaN","","","","","","","","","","","","","","",""
"","S2","","html-keyboard-response","511","599066","0.0-1.0-688.0","0","0","27939","","null","","","null","76","","NaN","","","","","","","","","","","","","",""
"","response","","html-keyboard-response","512","599159","0.0-1.0-689.0-0.0","0","0","27939","","91","","","68","76","","","2","76","training","adjacent","ED","5","4","Q.jpg","O.jpg","0","0","1","",""
"","feedback","","html-keyboard-response","513","600162","0.0-1.0-690.0-0.0","0","0","27939","","null","","","null","76","","","","","","","","","","","","","","","",""
"","ITI","","html-keyboard-response","514","601170","0.0-1.0-693.0","0","0","27939","","null","","","null","76","","","","","","","","","","","","","","","NaN",""
"","S1","","html-keyboard-response","515","601330","0.0-1.0-695.0","0","0","27939","","null","","","null","77","","","","","","","","","","","","","","","",""
"","ISI","","html-keyboard-response","516","603338","0.0-1.0-696.0","0","0","27939","","null","","","null","77","NaN","","","","","","","","","","","","","","",""
"","S2","","html-keyboard-response","517","603498","0.0-1.0-697.0","0","0","27939","","null","","","null","77","","NaN","","","","","","","","","","","","","",""
"","response","","html-keyboard-response","518","603663","0.0-1.0-698.0-0.0","0","0","27939","","163","","","75","77","","","2","77","training","adjacent","DC","4","3","O.jpg","N.jpg","1","0","0","",""
"","feedback","","html-keyboard-response","519","604666","0.0-1.0-699.0-0.0","0","0","27939","","null","","","null","77","","","","","","","","","","","","","","","",""
"","time_out","","html-keyboard-response","520","606674","0.0-1.0-701.0-0.0","0","0","27939","","null","","","null","77","","","","","","","","","","","","","","","",""
"","ITI","","html-keyboard-response","521","607682","0.0-1.0-702.0","0","0","27939","","null","","","null","77","","","","","","","","","","","","","","","NaN",""
"","S1","","html-keyboard-response","522","607842","0.0-1.0-704.0","0","0","27939","","null","","","null","78","","","","","","","","","","","","","","","",""
"","ISI","","html-keyboard-response","523","609850","0.0-1.0-705.0","0","0","27939","","null","","","null","78","NaN","","","","","","","","","","","","","","",""
"","S2","","html-keyboard-response","524","610010","0.0-1.0-706.0","0","0","27939","","null","","","null","78","","NaN","","","","","","","","","","","","","",""
"","response","","html-keyboard-response","525","610063","0.0-1.0-707.0-0.0","0","0","27939","","51","","","68","78","","","2","78","training","adjacent","GF","7","6","P.jpg","L.jpg","0","0","1","",""
"","feedback","","html-keyboard-response","526","611066","0.0-1.0-708.0-0.0","0","0","27939","","null","","","null","78","","","","","","","","","","","","","","","",""
"","ITI","","html-keyboard-response","527","612074","0.0-1.0-711.0","0","0","27939","","null","","","null","78","","","","","","","","","","","","","","","NaN",""
"","S1","","html-keyboard-response","528","612234","0.0-1.0-713.0","0","0","27939","","null","","","null","79","","","","","","","","","","","","","","","",""
"","ISI","","html-keyboard-response","529","614242","0.0-1.0-714.0","0","0","27939","","null","","","null","79","NaN","","","","","","","","","","","","","","",""
"","S2","","html-keyboard-response","530","614402","0.0-1.0-715.0","0","0","27939","","null","","","null","79","","NaN","","","","","","","","","","","","","",""
"","response","","html-keyboard-response","531","614455","0.0-1.0-716.0-0.0","0","0","27939","","50","","","75","79","","","2","79","training","adjacent","BC","2","3","R.jpg","N.jpg","1","1","1","",""
"","feedback","","html-keyboard-response","532","615458","0.0-1.0-717.0-0.0","0","0","27939","","null","","","null","79","","","","","","","","","","","","","","","",""
"","ITI","","html-keyboard-response","533","616466","0.0-1.0-720.0","0","0","27939","","null","","","null","79","","","","","","","","","","","","","","","NaN",""
"","S1","","html-keyboard-response","534","616627","0.0-1.0-722.0","0","0","27939","","null","","","null","80","","","","","","","","","","","","","","","",""
"","ISI","","html-keyboard-response","535","618634","0.0-1.0-723.0","0","0","27939","","null","","","null","80","NaN","","","","","","","","","","","","","","",""
"","S2","","html-keyboard-response","536","618794","0.0-1.0-724.0","0","0","27939","","null","","","null","80","","NaN","","","","","","","","","","","","","",""
"","response","","html-keyboard-response","537","618911","0.0-1.0-725.0-0.0","0","0","27939","","115","","","75","80","","","2","80","training","adjacent","BA","2","1","R.jpg","M.jpg","1","0","0","",""
"","feedback","","html-keyboard-response","538","619914","0.0-1.0-726.0-0.0","0","0","27939","","null","","","null","80","","","","","","","","","","","","","","","",""
"","time_out","","html-keyboard-response","539","621922","0.0-1.0-728.0-0.0","0","0","27939","","null","","","null","80","","","","","","","","","","","","","","","",""
"","ITI","","html-keyboard-response","540","622930","0.0-1.0-729.0","0","0","27939","","null","","","null","80","","","","","","","","","","","","","","","NaN",""
"","S1","","html-keyboard-response","541","623090","0.0-1.0-731.0","0","0","27939","","null","","","null","81","","","","","","","","","","","","","","","",""
"","ISI","","html-keyboard-response","542","625099","0.0-1.0-732.0","0","0","27939","","null","","","null","81","NaN","","","","","","","","","","","","","","",""
"","S2","","html-keyboard-response","543","625258","0.0-1.0-733.0","0","0","27939","","null","","","null","81","","NaN","","","","","","","","","","","","","",""
"","response","","html-keyboard-response","544","625327","0.0-1.0-734.0-0.0","0","0","27939","","67","","","68","81","","","2","81","training","adjacent","CD","3","4","N.jpg","O.jpg","0","1","0","",""
"","feedback","","html-keyboard-response","545","626330","0.0-1.0-735.0-0.0","0","0","27939","","null","","","null","81","","","","","","","","","","","","","","","",""
"","time_out","","html-keyboard-response","546","628338","0.0-1.0-737.0-0.0","0","0","27939","","null","","","null","81","","","","","","","","","","","","","","","",""
"","ITI","","html-keyboard-response","547","629346","0.0-1.0-738.0","0","0","27939","","null","","","null","81","","","","","","","","","","","","","","","NaN",""
"","S1","","html-keyboard-response","548","629506","0.0-1.0-740.0","0","0","27939","","null","","","null","82","","","","","","","","","","","","","","","",""
"","ISI","","html-keyboard-response","549","631514","0.0-1.0-741.0","0","0","27939","","null","","","null","82","NaN","","","","","","","","","","","","","","",""
"","S2","","html-keyboard-response","550","631674","0.0-1.0-742.0","0","0","27939","","null","","","null","82","","NaN","","","","","","","","","","","","","",""
"","response","","html-keyboard-response","551","631783","0.0-1.0-743.0-0.0","0","0","27939","","106","","","75","82","","","2","82","training","adjacent","AB","1","2","M.jpg","R.jpg","1","1","1","",""
"","feedback","","html-keyboard-response","552","632786","0.0-1.0-744.0-0.0","0","0","27939","","null","","","null","82","","","","","","","","","","","","","","","",""
"","ITI","","html-keyboard-response","553","633794","0.0-1.0-747.0","0","0","27939","","null","","","null","82","","","","","","","","","","","","","","","NaN",""
"","S1","","html-keyboard-response","554","633954","0.0-1.0-749.0","0","0","27939","","null","","","null","83","","","","","","","","","","","","","","","",""
"","ISI","","html-keyboard-response","555","635962","0.0-1.0-750.0","0","0","27939","","null","","","null","83","NaN","","","","","","","","","","","","","","",""
"","S2","","html-keyboard-response","556","636122","0.0-1.0-751.0","0","0","27939","","null","","","null","83","","NaN","","","","","","","","","","","","","",""
"","response","","html-keyboard-response","557","636279","0.0-1.0-752.0-0.0","0","0","27939","","155","","","75","83","","","2","83","training","adjacent","CB","3","2","N.jpg","R.jpg","1","0","0","",""
"","feedback","","html-keyboard-response","558","637282","0.0-1.0-753.0-0.0","0","0","27939","","null","","","null","83","","","","","","","","","","","","","","","",""
"","time_out","","html-keyboard-response","559","639290","0.0-1.0-755.0-0.0","0","0","27939","","null","","","null","83","","","","","","","","","","","","","","","",""
"","ITI","","html-keyboard-response","560","640298","0.0-1.0-756.0","0","0","27939","","null","","","null","83","","","","","","","","","","","","","","","NaN",""
"","S1","","html-keyboard-response","561","640458","0.0-1.0-758.0","0","0","27939","","null","","","null","84","","","","","","","","","","","","","","","",""
"","ISI","","html-keyboard-response","562","642466","0.0-1.0-759.0","0","0","27939","","523","","","75","84","k","","","","","","","","","","","","","","",""
"","S2","","html-keyboard-response","563","642626","0.0-1.0-760.0","0","0","27939","","null","","","null","84","","NaN","","","","","","","","","","","","","",""
"","response","","html-keyboard-response","564","642727","0.0-1.0-761.0-0.0","0","0","27939","","98","","","75","84","","","2","84","training","adjacent","BA","2","1","R.jpg","M.jpg","1","0","0","",""
"","feedback","","html-keyboard-response","565","643730","0.0-1.0-762.0-0.0","0","0","27939","","null","","","null","84","","","","","","","","","","","","","","","",""
"","time_out","","html-keyboard-response","566","645738","0.0-1.0-764.0-0.0","0","0","27939","","null","","","null","84","","","","","","","","","","","","","","","",""
"","ITI","","html-keyboard-response","567","646746","0.0-1.0-765.0","0","0","27939","","null","","","null","84","","","","","","","","","","","","","","","NaN",""
"","S1","","html-keyboard-response","568","646906","0.0-1.0-767.0","0","0","27939","","null","","","null","85","","","","","","","","","","","","","","","",""
"","ISI","","html-keyboard-response","569","648914","0.0-1.0-768.0","0","0","27939","","null","","","null","85","NaN","","","","","","","","","","","","","","",""
"","S2","","html-keyboard-response","570","649074","0.0-1.0-769.0","0","0","27939","","null","","","null","85","","NaN","","","","","","","","","","","","","",""
"","response","","html-keyboard-response","571","649151","0.0-1.0-770.0-0.0","0","0","27939","","75","","","75","85","","","2","85","training","adjacent","BC","2","3","R.jpg","N.jpg","1","1","1","",""
"","feedback","","html-keyboard-response","572","650154","0.0-1.0-771.0-0.0","0","0","27939","","null","","","null","85","","","","","","","","","","","","","","","",""
"","ITI","","html-keyboard-response","573","651162","0.0-1.0-774.0","0","0","27939","","null","","","null","85","","","","","","","","","","","","","","","NaN",""
"","S1","","html-keyboard-response","574","651322","0.0-1.0-776.0","0","0","27939","","null","","","null","86","","","","","","","","","","","","","","","",""
"","ISI","","html-keyboard-response","575","653330","0.0-1.0-777.0","0","0","27939","","null","","","null","86","NaN","","","","","","","","","","","","","","",""
"","S2","","html-keyboard-response","576","653490","0.0-1.0-778.0","0","0","27939","","null","","","null","86","","NaN","","","","","","","","","","","","","",""
"","response","","html-keyboard-response","577","653687","0.0-1.0-779.0-0.0","0","0","27939","","195","","","75","86","","","2","86","training","adjacent","GF","7","6","P.jpg","L.jpg","1","0","0","",""
"","feedback","","html-keyboard-response","578","654690","0.0-1.0-780.0-0.0","0","0","27939","","null","","","null","86","","","","","","","","","","","","","","","",""
