"success","ttype","start_time","trial_type","trial_index","time_elapsed","internal_node_id","warning","missed_checkup","PID","view_history","rt","responses","repeat_instructions","key_press","index","keypress_isi","keypress_S2","block","trial_num","phase","group_type","pair_type","S1_stim","S2_stim","S1_img","S2_img","S1_chosen","S1_higher","accuracy","keypress_iti","total_bonus_tally"
"true","full_screen","d04132023hr2129","fullscreen","0","10154","0.0-0.0","0","0","92816","","","","","","","","","","","","","","","","","","","","","",""
"","instructions","","instructions","1","53297","0.0-1.0-0.0-0.0","0","0","92816","[{""page_index"":0,""viewing_time"":3412},{""page_index"":1,""viewing_time"":17851},{""page_index"":2,""viewing_time"":8316},{""page_index"":1,""viewing_time"":7138},{""page_index"":2,""viewing_time"":4313},{""page_index"":3,""viewing_time"":2109}]","43140","","","","","","","","","","","","","","","","","","","",""
"","comprehension_check","","survey-multi-choice","2","77735","0.0-1.0-0.0-1.0","0","0","92816","","24432","{""Q0"":""True"",""Q1"":""D"",""Q2"":""Only when the screen 'MAKE A CHOICE' is shown"",""Q3"":""Green mark"",""Q4"":""either D or K""}","1","","","","","","","","","","","","","","","","","",""
"","missed_instruction_checkup","","html-keyboard-response","3","79826","0.0-1.0-0.0-2.0-0.0","0","1","92816","","2084","","","32","","","","","","","","","","","","","","","","",""
"","instructions","","instructions","4","90139","0.0-1.0-0.1-0.1","0","0","92816","[{""page_index"":0,""viewing_time"":2188},{""page_index"":1,""viewing_time"":6654},{""page_index"":2,""viewing_time"":786},{""page_index"":3,""viewing_time"":680}]","10309","","","","","","","","","","","","","","","","","","","",""
"","comprehension_check","","survey-multi-choice","5","102819","0.0-1.0-0.1-1.1","0","0","92816","","12672","{""Q0"":""True"",""Q1"":""D"",""Q2"":""Once the second image appears and while the screen 'MAKE A CHOICE' is shown"",""Q3"":""Green mark"",""Q4"":""either D or K""}","0","","","","","","","","","","","","","","","","","",""
"","start_exp","","html-keyboard-response","6","104500","0.0-1.0-1.0","0","0","92816","","1677","","","32","","","","","","","","","","","","","","","","",""
"","S1","","html-keyboard-response","7","104768","0.0-1.0-2.0","0","0","92816","","null","","","null","0","","","","","","","","","","","","","","","",""
"","ISI","","html-keyboard-response","8","105786","0.0-1.0-3.0","0","0","92816","","null","","","null","0","NaN","","","","","","","","","","","","","","",""
"","S2","","html-keyboard-response","9","106050","0.0-1.0-4.0","0","0","92816","","null","","","null","0","","NaN","","","","","","","","","","","","","",""
"","response","","html-keyboard-response","10","106775","0.0-1.0-5.0-0.0","0","0","92816","","721","","","75","0","","","1","0","training","adjacent","GF","7","6","Q.jpg","O.jpg","0","0","1","",""
"","feedback","","html-keyboard-response","11","107794","0.0-1.0-6.0-0.0","0","0","92816","","null","","","null","0","","","","","","","","","","","","","","","",""
"","ITI","","html-keyboard-response","12","108811","0.0-1.0-9.0","0","0","92816","","null","","","null","0","","","","","","","","","","","","","","","NaN",""
"","S1","","html-keyboard-response","13","109073","0.0-1.0-11.0","0","0","92816","","null","","","null","1","","","","","","","","","","","","","","","",""
"","ISI","","html-keyboard-response","14","110086","0.0-1.0-12.0","0","0","92816","","null","","","null","1","NaN","","","","","","","","","","","","","","",""
"","S2","","html-keyboard-response","15","110353","0.0-1.0-13.0","0","0","92816","","null","","","null","1","","NaN","","","","","","","","","","","","","",""
"","response","","html-keyboard-response","16","110584","0.0-1.0-14.0-0.0","0","0","92816","","225","","","75","1","","","1","1","training","adjacent","BC","2","3","P.jpg","R.jpg","0","1","0","",""
"","feedback","","html-keyboard-response","17","111601","0.0-1.0-15.0-0.0","0","0","92816","","null","","","null","1","","","","","","","","","","","","","","","",""
"","time_out","","html-keyboard-response","18","113616","0.0-1.0-17.0-0.0","0","0","92816","","null","","","null","1","","","","","","","","","","","","","","","",""
"","ITI","","html-keyboard-response","19","114632","0.0-1.0-18.0","0","0","92816","","null","","","null","1","","","","","","","","","","","","","","","NaN",""
"","S1","","html-keyboard-response","20","114898","0.0-1.0-20.0","0","0","92816","","null","","","null","2","","","","","","","","","","","","","","","",""
"","ISI","","html-keyboard-response","21","115910","0.0-1.0-21.0","0","0","92816","","null","","","null","2","NaN","","","","","","","","","","","","","","",""
"","S2","","html-keyboard-response","22","116178","0.0-1.0-22.0","0","0","92816","","null","","","null","2","","NaN","","","","","","","","","","","","","",""
"","response","","html-keyboard-response","23","116678","0.0-1.0-23.0-0.0","0","0","92816","","497","","","75","2","","","1","2","training","adjacent","EF","5","6","L.jpg","O.jpg","0","1","0","",""
"","feedback","","html-keyboard-response","24","117690","0.0-1.0-24.0-0.0","0","0","92816","","null","","","null","2","","","","","","","","","","","","","","","",""
"","time_out","","html-keyboard-response","25","119704","0.0-1.0-26.0-0.0","0","0","92816","","null","","","null","2","","","","","","","","","","","","","","","",""
"","ITI","","html-keyboard-response","26","120724","0.0-1.0-27.0","0","0","92816","","null","","","null","2","","","","","","","","","","","","","","","NaN",""
"","S1","","html-keyboard-response","27","120984","0.0-1.0-29.0","0","0","92816","","null","","","null","3","","","","","","","","","","","","","","","",""
"","ISI","","html-keyboard-response","28","122001","0.0-1.0-30.0","0","0","92816","","null","","","null","3","NaN","","","","","","","","","","","","","","",""
"","S2","","html-keyboard-response","29","122265","0.0-1.0-31.0","0","0","92816","","null","","","null","3","","NaN","","","","","","","","","","","","","",""
"","response","","html-keyboard-response","30","122658","0.0-1.0-32.0-0.0","0","0","92816","","390","","","68","3","","","1","3","training","adjacent","BC","2","3","P.jpg","R.jpg","1","1","1","",""
"","feedback","","html-keyboard-response","31","123671","0.0-1.0-33.0-0.0","0","0","92816","","null","","","null","3","","","","","","","","","","","","","","","",""
"","ITI","","html-keyboard-response","32","124690","0.0-1.0-36.0","0","0","92816","","null","","","null","3","","","","","","","","","","","","","","","NaN",""
"","S1","","html-keyboard-response","33","124952","0.0-1.0-38.0","0","0","92816","","null","","","null","4","","","","","","","","","","","","","","","",""
"","ISI","","html-keyboard-response","34","125970","0.0-1.0-39.0","0","0","92816","","168","","","68","4","d","","","","","","","","","","","","","","",""
"","S2","","html-keyboard-response","35","126232","0.0-1.0-40.0","0","0","92816","","null","","","null","4","","NaN","","","","","","","","","","","","","",""
"","response","","html-keyboard-response","36","126590","0.0-1.0-41.0-0.0","0","0","92816","","356","","","68","4","","","1","4","training","adjacent","EF","5","6","L.jpg","O.jpg","1","1","1","",""
"","feedback","","html-keyboard-response","37","127600","0.0-1.0-42.0-0.0","0","0","92816","","null","","","null","4","","","","","","","","","","","","","","","",""
"","ITI","","html-keyboard-response","38","128610","0.0-1.0-45.0","0","0","92816","","null","","","null","4","","","","","","","","","","","","","","","NaN",""
"","S1","","html-keyboard-response","39","128874","0.0-1.0-47.0","0","0","92816","","null","","","null","5","","","","","","","","","","","","","","","",""
"","ISI","","html-keyboard-response","40","129890","0.0-1.0-48.0","0","0","92816","","null","","","null","5","NaN","","","","","","","","","","","","","","",""
"","S2","","html-keyboard-response","41","130151","0.0-1.0-49.0","0","0","92816","","null","","","null","5","","NaN","","","","","","","","","","","","","",""
"","response","","html-keyboard-response","42","130673","0.0-1.0-50.0-0.0","0","0","92816","","519","","","75","5","","","1","5","training","adjacent","ED","5","4","L.jpg","N.jpg","0","0","1","",""
"","feedback","","html-keyboard-response","43","131687","0.0-1.0-51.0-0.0","0","0","92816","","null","","","null","5","","","","","","","","","","","","","","","",""
"","ITI","","html-keyboard-response","44","132705","0.0-1.0-54.0","0","0","92816","","null","","","null","5","","","","","","","","","","","","","","","NaN",""
"","S1","","html-keyboard-response","45","132967","0.0-1.0-56.0","0","0","92816","","null","","","null","6","","","","","","","","","","","","","","","",""
"","ISI","","html-keyboard-response","46","133976","0.0-1.0-57.0","0","0","92816","","null","","","null","6","NaN","","","","","","","","","","","","","","",""
"","S2","","html-keyboard-response","47","134243","0.0-1.0-58.0","0","0","92816","","null","","","null","6","","NaN","","","","","","","","","","","","","",""
"","response","","html-keyboard-response","48","134579","0.0-1.0-59.0-0.0","0","0","92816","","331","","","75","6","","","1","6","training","adjacent","CB","3","2","R.jpg","P.jpg","0","0","1","",""
"","feedback","","html-keyboard-response","49","135593","0.0-1.0-60.0-0.0","0","0","92816","","null","","","null","6","","","","","","","","","","","","","","","",""
"","ITI","","html-keyboard-response","50","136610","0.0-1.0-63.0","0","0","92816","","null","","","null","6","","","","","","","","","","","","","","","NaN",""
"","S1","","html-keyboard-response","51","136871","0.0-1.0-65.0","0","0","92816","","null","","","null","7","","","","","","","","","","","","","","","",""
"","ISI","","html-keyboard-response","52","137882","0.0-1.0-66.0","0","0","92816","","null","","","null","7","NaN","","","","","","","","","","","","","","",""
"","S2","","html-keyboard-response","53","138145","0.0-1.0-67.0","0","0","92816","","null","","","null","7","","NaN","","","","","","","","","","","","","",""
"","response","","html-keyboard-response","54","138522","0.0-1.0-68.0-0.0","0","0","92816","","373","","","68","7","","","1","7","training","adjacent","GF","7","6","Q.jpg","O.jpg","1","0","0","",""
"","feedback","","html-keyboard-response","55","139539","0.0-1.0-69.0-0.0","0","0","92816","","null","","","null","7","","","","","","","","","","","","","","","",""
"","time_out","","html-keyboard-response","56","141552","0.0-1.0-71.0-0.0","0","0","92816","","null","","","null","7","","","","","","","","","","","","","","","",""
"","ITI","","html-keyboard-response","57","142568","0.0-1.0-72.0","0","0","92816","","null","","","null","7","","","","","","","","","","","","","","","NaN",""
"","S1","","html-keyboard-response","58","142834","0.0-1.0-74.0","0","0","92816","","null","","","null","8","","","","","","","","","","","","","","","",""
"","ISI","","html-keyboard-response","59","143848","0.0-1.0-75.0","0","0","92816","","null","","","null","8","NaN","","","","","","","","","","","","","","",""
"","S2","","html-keyboard-response","60","144113","0.0-1.0-76.0","0","0","92816","","null","","","null","8","","NaN","","","","","","","","","","","","","",""
"","response","","html-keyboard-response","61","144584","0.0-1.0-77.0-0.0","0","0","92816","","467","","","68","8","","","1","8","training","adjacent","DE","4","5","N.jpg","L.jpg","1","1","1","",""
"","feedback","","html-keyboard-response","62","145600","0.0-1.0-78.0-0.0","0","0","92816","","null","","","null","8","","","","","","","","","","","","","","","",""
"","ITI","","html-keyboard-response","63","146615","0.0-1.0-81.0","0","0","92816","","null","","","null","8","","","","","","","","","","","","","","","NaN",""
"","S1","","html-keyboard-response","64","146880","0.0-1.0-83.0","0","0","92816","","null","","","null","9","","","","","","","","","","","","","","","",""
"","ISI","","html-keyboard-response","65","147896","0.0-1.0-84.0","0","0","92816","","null","","","null","9","NaN","","","","","","","","","","","","","","",""
"","S2","","html-keyboard-response","66","148161","0.0-1.0-85.0","0","0","92816","","null","","","null","9","","NaN","","","","","","","","","","","","","",""
"","response","","html-keyboard-response","67","148674","0.0-1.0-86.0-0.0","0","0","92816","","509","","","68","9","","","1","9","training","adjacent","DE","4","5","N.jpg","L.jpg","1","1","1","",""
"","feedback","","html-keyboard-response","68","149691","0.0-1.0-87.0-0.0","0","0","92816","","null","","","null","9","","","","","","","","","","","","","","","",""
"","ITI","","html-keyboard-response","69","150704","0.0-1.0-90.0","0","0","92816","","null","","","null","9","","","","","","","","","","","","","","","NaN",""
"","S1","","html-keyboard-response","70","150968","0.0-1.0-92.0","0","0","92816","","null","","","null","10","","","","","","","","","","","","","","","",""
"","ISI","","html-keyboard-response","71","151984","0.0-1.0-93.0","0","0","92816","","null","","","null","10","NaN","","","","","","","","","","","","","","",""
"","S2","","html-keyboard-response","72","152248","0.0-1.0-94.0","0","0","92816","","null","","","null","10","","NaN","","","","","","","","","","","","","",""
"","response","","html-keyboard-response","73","152698","0.0-1.0-95.0-0.0","0","0","92816","","444","","","68","10","","","1","10","training","adjacent","DC","4","3","N.jpg","R.jpg","1","0","0","",""
"","feedback","","html-keyboard-response","74","153713","0.0-1.0-96.0-0.0","0","0","92816","","null","","","null","10","","","","","","","","","","","","","","","",""
"","time_out","","html-keyboard-response","75","155730","0.0-1.0-98.0-0.0","0","0","92816","","null","","","null","10","","","","","","","","","","","","","","","",""
"","ITI","","html-keyboard-response","76","156746","0.0-1.0-99.0","0","0","92816","","null","","","null","10","","","","","","","","","","","","","","","NaN",""
"","S1","","html-keyboard-response","77","157010","0.0-1.0-101.0","0","0","92816","","null","","","null","11","","","","","","","","","","","","","","","",""
"","ISI","","html-keyboard-response","78","158026","0.0-1.0-102.0","0","0","92816","","null","","","null","11","NaN","","","","","","","","","","","","","","",""
"","S2","","html-keyboard-response","79","158291","0.0-1.0-103.0","0","0","92816","","null","","","null","11","","NaN","","","","","","","","","","","","","",""
"","response","","html-keyboard-response","80","158890","0.0-1.0-104.0-0.0","0","0","92816","","596","","","75","11","","","1","11","training","adjacent","BC","2","3","P.jpg","R.jpg","0","1","0","",""
"","feedback","","html-keyboard-response","81","159906","0.0-1.0-105.0-0.0","0","0","92816","","null","","","null","11","","","","","","","","","","","","","","","",""
"","time_out","","html-keyboard-response","82","161922","0.0-1.0-107.0-0.0","0","0","92816","","null","","","null","11","","","","","","","","","","","","","","","",""
"","ITI","","html-keyboard-response","83","162936","0.0-1.0-108.0","0","0","92816","","null","","","null","11","","","","","","","","","","","","","","","NaN",""
"","S1","","html-keyboard-response","84","163201","0.0-1.0-110.0","0","0","92816","","null","","","null","12","","","","","","","","","","","","","","","",""
"","ISI","","html-keyboard-response","85","164216","0.0-1.0-111.0","0","0","92816","","null","","","null","12","NaN","","","","","","","","","","","","","","",""
"","S2","","html-keyboard-response","86","164483","0.0-1.0-112.0","0","0","92816","","null","","","null","12","","NaN","","","","","","","","","","","","","",""
"","response","","html-keyboard-response","87","164919","0.0-1.0-113.0-0.0","0","0","92816","","432","","","68","12","","","1","12","training","adjacent","CB","3","2","R.jpg","P.jpg","1","0","0","",""
"","feedback","","html-keyboard-response","88","165929","0.0-1.0-114.0-0.0","0","0","92816","","null","","","null","12","","","","","","","","","","","","","","","",""
"","time_out","","html-keyboard-response","89","167944","0.0-1.0-116.0-0.0","0","0","92816","","null","","","null","12","","","","","","","","","","","","","","","",""
"","ITI","","html-keyboard-response","90","168960","0.0-1.0-117.0","0","0","92816","","null","","","null","12","","","","","","","","","","","","","","","NaN",""
"","S1","","html-keyboard-response","91","169225","0.0-1.0-119.0","0","0","92816","","null","","","null","13","","","","","","","","","","","","","","","",""
"","ISI","","html-keyboard-response","92","170242","0.0-1.0-120.0","0","0","92816","","null","","","null","13","NaN","","","","","","","","","","","","","","",""
"","S2","","html-keyboard-response","93","170503","0.0-1.0-121.0","0","0","92816","","null","","","null","13","","NaN","","","","","","","","","","","","","",""
"","response","","html-keyboard-response","94","171019","0.0-1.0-122.0-0.0","0","0","92816","","513","","","75","13","","","1","13","training","adjacent","CD","3","4","R.jpg","N.jpg","0","1","0","",""
"","feedback","","html-keyboard-response","95","172032","0.0-1.0-123.0-0.0","0","0","92816","","null","","","null","13","","","","","","","","","","","","","","","",""
"","time_out","","html-keyboard-response","96","174049","0.0-1.0-125.0-0.0","0","0","92816","","null","","","null","13","","","","","","","","","","","","","","","",""
"","ITI","","html-keyboard-response","97","175066","0.0-1.0-126.0","0","0","92816","","null","","","null","13","","","","","","","","","","","","","","","NaN",""
"","S1","","html-keyboard-response","98","175331","0.0-1.0-128.0","0","0","92816","","null","","","null","14","","","","","","","","","","","","","","","",""
"","ISI","","html-keyboard-response","99","176344","0.0-1.0-129.0","0","0","92816","","null","","","null","14","NaN","","","","","","","","","","","","","","",""
"","S2","","html-keyboard-response","100","176611","0.0-1.0-130.0","0","0","92816","","null","","","null","14","","NaN","","","","","","","","","","","","","",""
"","response","","html-keyboard-response","101","177186","0.0-1.0-131.0-0.0","0","0","92816","","569","","","68","14","","","1","14","training","adjacent","BA","2","1","P.jpg","M.jpg","1","0","0","",""
"","feedback","","html-keyboard-response","102","178200","0.0-1.0-132.0-0.0","0","0","92816","","null","","","null","14","","","","","","","","","","","","","","","",""
"","time_out","","html-keyboard-response","103","180216","0.0-1.0-134.0-0.0","0","0","92816","","null","","","null","14","","","","","","","","","","","","","","","",""
"","ITI","","html-keyboard-response","104","181235","0.0-1.0-135.0","0","0","92816","","null","","","null","14","","","","","","","","","","","","","","","NaN",""
"","S1","","html-keyboard-response","105","181496","0.0-1.0-137.0","0","0","92816","","null","","","null","15","","","","","","","","","","","","","","","",""
"","ISI","","html-keyboard-response","106","182514","0.0-1.0-138.0","0","0","92816","","null","","","null","15","NaN","","","","","","","","","","","","","","",""
"","S2","","html-keyboard-response","107","182777","0.0-1.0-139.0","0","0","92816","","null","","","null","15","","NaN","","","","","","","","","","","","","",""
"","response","","html-keyboard-response","108","183374","0.0-1.0-140.0-0.0","0","0","92816","","593","","","68","15","","","1","15","training","adjacent","FG","6","7","O.jpg","Q.jpg","1","1","1","",""
"","feedback","","html-keyboard-response","109","184386","0.0-1.0-141.0-0.0","0","0","92816","","null","","","null","15","","","","","","","","","","","","","","","",""
"","ITI","","html-keyboard-response","110","185400","0.0-1.0-144.0","0","0","92816","","null","","","null","15","","","","","","","","","","","","","","","NaN",""
"","S1","","html-keyboard-response","111","185668","0.0-1.0-146.0","0","0","92816","","null","","","null","16","","","","","","","","","","","","","","","",""
"","ISI","","html-keyboard-response","112","186682","0.0-1.0-147.0","0","0","92816","","null","","","null","16","NaN","","","","","","","","","","","","","","",""
"","S2","","html-keyboard-response","113","186945","0.0-1.0-148.0","0","0","92816","","null","","","null","16","","NaN","","","","","","","","","","","","","",""
"","response","","html-keyboard-response","114","187424","0.0-1.0-149.0-0.0","0","0","92816","","474","","","75","16","","","1","16","training","adjacent","GF","7","6","Q.jpg","O.jpg","0","0","1","",""
"","feedback","","html-keyboard-response","115","188440","0.0-1.0-150.0-0.0","0","0","92816","","null","","","null","16","","","","","","","","","","","","","","","",""
"","ITI","","html-keyboard-response","116","189458","0.0-1.0-153.0","0","0","92816","","null","","","null","16","","","","","","","","","","","","","","","NaN",""
"","S1","","html-keyboard-response","117","189722","0.0-1.0-155.0","0","0","92816","","null","","","null","17","","","","","","","","","","","","","","","",""
"","ISI","","html-keyboard-response","118","190733","0.0-1.0-156.0","0","0","92816","","null","","","null","17","NaN","","","","","","","","","","","","","","",""
"","S2","","html-keyboard-response","119","190988","0.0-1.0-157.0","0","0","92816","","null","","","null","17","","NaN","","","","","","","","","","","","","",""
"","response","","html-keyboard-response","120","191397","0.0-1.0-158.0-0.0","0","0","92816","","408","","","68","17","","","1","17","training","adjacent","BA","2","1","P.jpg","M.jpg","1","0","0","",""
"","feedback","","html-keyboard-response","121","192408","0.0-1.0-159.0-0.0","0","0","92816","","null","","","null","17","","","","","","","","","","","","","","","",""
"","time_out","","html-keyboard-response","122","194423","0.0-1.0-161.0-0.0","0","0","92816","","null","","","null","17","","","","","","","","","","","","","","","",""
"","ITI","","html-keyboard-response","123","195432","0.0-1.0-162.0","0","0","92816","","null","","","null","17","","","","","","","","","","","","","","","NaN",""
"","S1","","html-keyboard-response","124","195699","0.0-1.0-164.0","0","0","92816","","null","","","null","18","","","","","","","","","","","","","","","",""
"","ISI","","html-keyboard-response","125","196711","0.0-1.0-165.0","0","0","92816","","null","","","null","18","NaN","","","","","","","","","","","","","","",""
"","S2","","html-keyboard-response","126","196977","0.0-1.0-166.0","0","0","92816","","null","","","null","18","","NaN","","","","","","","","","","","","","",""
"","response","","html-keyboard-response","127","197514","0.0-1.0-167.0-0.0","0","0","92816","","533","","","75","18","","","1","18","training","adjacent","AB","1","2","M.jpg","P.jpg","0","1","0","",""
"","feedback","","html-keyboard-response","128","198529","0.0-1.0-168.0-0.0","0","0","92816","","null","","","null","18","","","","","","","","","","","","","","","",""
"","time_out","","html-keyboard-response","129","200546","0.0-1.0-170.0-0.0","0","0","92816","","null","","","null","18","","","","","","","","","","","","","","","",""
"","ITI","","html-keyboard-response","130","201561","0.0-1.0-171.0","0","0","92816","","null","","","null","18","","","","","","","","","","","","","","","NaN",""
"","S1","","html-keyboard-response","131","201826","0.0-1.0-173.0","0","0","92816","","null","","","null","19","","","","","","","","","","","","","","","",""
"","ISI","","html-keyboard-response","132","202841","0.0-1.0-174.0","0","0","92816","","null","","","null","19","NaN","","","","","","","","","","","","","","",""
"","S2","","html-keyboard-response","133","203105","0.0-1.0-175.0","0","0","92816","","null","","","null","19","","NaN","","","","","","","","","","","","","",""
"","response","","html-keyboard-response","134","203626","0.0-1.0-176.0-0.0","0","0","92816","","517","","","68","19","","","1","19","training","adjacent","DE","4","5","N.jpg","L.jpg","1","1","1","",""
"","feedback","","html-keyboard-response","135","204641","0.0-1.0-177.0-0.0","0","0","92816","","null","","","null","19","","","","","","","","","","","","","","","",""
"","ITI","","html-keyboard-response","136","205658","0.0-1.0-180.0","0","0","92816","","null","","","null","19","","","","","","","","","","","","","","","NaN",""
"","S1","","html-keyboard-response","137","205922","0.0-1.0-182.0","0","0","92816","","null","","","null","20","","","","","","","","","","","","","","","",""
"","ISI","","html-keyboard-response","138","206935","0.0-1.0-183.0","0","0","92816","","null","","","null","20","NaN","","","","","","","","","","","","","","",""
"","S2","","html-keyboard-response","139","207202","0.0-1.0-184.0","0","0","92816","","null","","","null","20","","NaN","","","","","","","","","","","","","",""
"","response","","html-keyboard-response","140","207901","0.0-1.0-185.0-0.0","0","0","92816","","696","","","75","20","","","1","20","training","adjacent","EF","5","6","L.jpg","O.jpg","0","1","0","",""
"","feedback","","html-keyboard-response","141","208914","0.0-1.0-186.0-0.0","0","0","92816","","null","","","null","20","","","","","","","","","","","","","","","",""
"","time_out","","html-keyboard-response","142","210928","0.0-1.0-188.0-0.0","0","0","92816","","null","","","null","20","","","","","","","","","","","","","","","",""
"","ITI","","html-keyboard-response","143","211943","0.0-1.0-189.0","0","0","92816","","null","","","null","20","","","","","","","","","","","","","","","NaN",""
"","S1","","html-keyboard-response","144","212209","0.0-1.0-191.0","0","0","92816","","null","","","null","21","","","","","","","","","","","","","","","",""
"","ISI","","html-keyboard-response","145","213225","0.0-1.0-192.0","0","0","92816","","null","","","null","21","NaN","","","","","","","","","","","","","","",""
"","S2","","html-keyboard-response","146","213489","0.0-1.0-193.0","0","0","92816","","null","","","null","21","","NaN","","","","","","","","","","","","","",""
"","response","","html-keyboard-response","147","213993","0.0-1.0-194.0-0.0","0","0","92816","","501","","","68","21","","","1","21","training","adjacent","CB","3","2","R.jpg","P.jpg","1","0","0","",""
"","feedback","","html-keyboard-response","148","215008","0.0-1.0-195.0-0.0","0","0","92816","","null","","","null","21","","","","","","","","","","","","","","","",""
"","time_out","","html-keyboard-response","149","217026","0.0-1.0-197.0-0.0","0","0","92816","","null","","","null","21","","","","","","","","","","","","","","","",""
"","ITI","","html-keyboard-response","150","218040","0.0-1.0-198.0","0","0","92816","","null","","","null","21","","","","","","","","","","","","","","","NaN",""
"","S1","","html-keyboard-response","151","218306","0.0-1.0-200.0","0","0","92816","","null","","","null","22","","","","","","","","","","","","","","","",""
"","ISI","","html-keyboard-response","152","219320","0.0-1.0-201.0","0","0","92816","","null","","","null","22","NaN","","","","","","","","","","","","","","",""
"","S2","","html-keyboard-response","153","219588","0.0-1.0-202.0","0","0","92816","","null","","","null","22","","NaN","","","","","","","","","","","","","",""
"","response","","html-keyboard-response","154","220070","0.0-1.0-203.0-0.0","0","0","92816","","478","","","75","22","","","1","22","training","adjacent","FE","6","5","O.jpg","L.jpg","0","0","1","",""
"","feedback","","html-keyboard-response","155","221079","0.0-1.0-204.0-0.0","0","0","92816","","null","","","null","22","","","","","","","","","","","","","","","",""
"","ITI","","html-keyboard-response","156","222086","0.0-1.0-207.0","0","0","92816","","null","","","null","22","","","","","","","","","","","","","","","NaN",""
"","S1","","html-keyboard-response","157","222355","0.0-1.0-209.0","0","0","92816","","null","","","null","23","","","","","","","","","","","","","","","",""
"","ISI","","html-keyboard-response","158","223372","0.0-1.0-210.0","0","0","92816","","null","","","null","23","NaN","","","","","","","","","","","","","","",""
"","S2","","html-keyboard-response","159","223634","0.0-1.0-211.0","0","0","92816","","null","","","null","23","","NaN","","","","","","","","","","","","","",""
"","response","","html-keyboard-response","160","224561","0.0-1.0-212.0-0.0","0","0","92816","","924","","","68","23","","","1","23","training","adjacent","BC","2","3","P.jpg","R.jpg","1","1","1","",""
"","feedback","","html-keyboard-response","161","225576","0.0-1.0-213.0-0.0","0","0","92816","","null","","","null","23","","","","","","","","","","","","","","","",""
"","ITI","","html-keyboard-response","162","226594","0.0-1.0-216.0","0","0","92816","","null","","","null","23","","","","","","","","","","","","","","","NaN",""
"","S1","","html-keyboard-response","163","226858","0.0-1.0-218.0","0","0","92816","","null","","","null","24","","","","","","","","","","","","","","","",""
"","ISI","","html-keyboard-response","164","227875","0.0-1.0-219.0","0","0","92816","","null","","","null","24","NaN","","","","","","","","","","","","","","",""
"","S2","","html-keyboard-response","165","228135","0.0-1.0-220.0","0","0","92816","","null","","","null","24","","NaN","","","","","","","","","","","","","",""
"","response","","html-keyboard-response","166","228797","0.0-1.0-221.0-0.0","0","0","92816","","658","","","68","24","","","1","24","training","adjacent","ED","5","4","L.jpg","N.jpg","1","0","0","",""
"","feedback","","html-keyboard-response","167","229810","0.0-1.0-222.0-0.0","0","0","92816","","null","","","null","24","","","","","","","","","","","","","","","",""
"","time_out","","html-keyboard-response","168","231825","0.0-1.0-224.0-0.0","0","0","92816","","null","","","null","24","","","","","","","","","","","","","","","",""
"","ITI","","html-keyboard-response","169","232842","0.0-1.0-225.0","0","0","92816","","null","","","null","24","","","","","","","","","","","","","","","NaN",""
"","S1","","html-keyboard-response","170","233106","0.0-1.0-227.0","0","0","92816","","null","","","null","25","","","","","","","","","","","","","","","",""
"","ISI","","html-keyboard-response","171","234120","0.0-1.0-228.0","0","0","92816","","null","","","null","25","NaN","","","","","","","","","","","","","","",""
"","S2","","html-keyboard-response","172","234386","0.0-1.0-229.0","0","0","92816","","null","","","null","25","","NaN","","","","","","","","","","","","","",""
"","response","","html-keyboard-response","173","234841","0.0-1.0-230.0-0.0","0","0","92816","","452","","","75","25","","","1","25","training","adjacent","BA","2","1","P.jpg","M.jpg","0","0","1","",""
"","feedback","","html-keyboard-response","174","235858","0.0-1.0-231.0-0.0","0","0","92816","","null","","","null","25","","","","","","","","","","","","","","","",""
"","ITI","","html-keyboard-response","175","236875","0.0-1.0-234.0","0","0","92816","","null","","","null","25","","","","","","","","","","","","","","","NaN",""
"","S1","","html-keyboard-response","176","237136","0.0-1.0-236.0","0","0","92816","","null","","","null","26","","","","","","","","","","","","","","","",""
"","ISI","","html-keyboard-response","177","238154","0.0-1.0-237.0","0","0","92816","","null","","","null","26","NaN","","","","","","","","","","","","","","",""
"","S2","","html-keyboard-response","178","238417","0.0-1.0-238.0","0","0","92816","","null","","","null","26","","NaN","","","","","","","","","","","","","",""
"","response","","html-keyboard-response","179","238840","0.0-1.0-239.0-0.0","0","0","92816","","418","","","75","26","","","1","26","training","adjacent","ED","5","4","L.jpg","N.jpg","0","0","1","",""
"","feedback","","html-keyboard-response","180","239858","0.0-1.0-240.0-0.0","0","0","92816","","null","","","null","26","","","","","","","","","","","","","","","",""
"","ITI","","html-keyboard-response","181","240872","0.0-1.0-243.0","0","0","92816","","null","","","null","26","","","","","","","","","","","","","","","NaN",""
"","S1","","html-keyboard-response","182","241138","0.0-1.0-245.0","0","0","92816","","null","","","null","27","","","","","","","","","","","","","","","",""
"","ISI","","html-keyboard-response","183","242152","0.0-1.0-246.0","0","0","92816","","null","","","null","27","NaN","","","","","","","","","","","","","","",""
"","S2","","html-keyboard-response","184","242417","0.0-1.0-247.0","0","0","92816","","null","","","null","27","","NaN","","","","","","","","","","","","","",""
"","response","","html-keyboard-response","185","242893","0.0-1.0-248.0-0.0","0","0","92816","","471","","","68","27","","","1","27","training","adjacent","DE","4","5","N.jpg","L.jpg","1","1","1","",""
"","feedback","","html-keyboard-response","186","243905","0.0-1.0-249.0-0.0","0","0","92816","","null","","","null","27","","","","","","","","","","","","","","","",""
"","ITI","","html-keyboard-response","187","244922","0.0-1.0-252.0","0","0","92816","","null","","","null","27","","","","","","","","","","","","","","","NaN",""
"","S1","","html-keyboard-response","188","245186","0.0-1.0-254.0","0","0","92816","","null","","","null","28","","","","","","","","","","","","","","","",""
"","ISI","","html-keyboard-response","189","246203","0.0-1.0-255.0","0","0","92816","","null","","","null","28","NaN","","","","","","","","","","","","","","",""
"","S2","","html-keyboard-response","190","246467","0.0-1.0-256.0","0","0","92816","","null","","","null","28","","NaN","","","","","","","","","","","","","",""
"","response","","html-keyboard-response","191","246963","0.0-1.0-257.0-0.0","0","0","92816","","493","","","68","28","","","1","28","training","adjacent","DC","4","3","N.jpg","R.jpg","1","0","0","",""
"","feedback","","html-keyboard-response","192","247970","0.0-1.0-258.0-0.0","0","0","92816","","null","","","null","28","","","","","","","","","","","","","","","",""
"","time_out","","html-keyboard-response","193","249986","0.0-1.0-260.0-0.0","0","0","92816","","null","","","null","28","","","","","","","","","","","","","","","",""
"","ITI","","html-keyboard-response","194","251000","0.0-1.0-261.0","0","0","92816","","null","","","null","28","","","","","","","","","","","","","","","NaN",""
"","S1","","html-keyboard-response","195","251267","0.0-1.0-263.0","0","0","92816","","null","","","null","29","","","","","","","","","","","","","","","",""
"","ISI","","html-keyboard-response","196","252280","0.0-1.0-264.0","0","0","92816","","null","","","null","29","NaN","","","","","","","","","","","","","","",""
"","S2","","html-keyboard-response","197","252545","0.0-1.0-265.0","0","0","92816","","null","","","null","29","","NaN","","","","","","","","","","","","","",""
"","response","","html-keyboard-response","198","252881","0.0-1.0-266.0-0.0","0","0","92816","","332","","","75","29","","","1","29","training","adjacent","FG","6","7","O.jpg","Q.jpg","0","1","0","",""
"","feedback","","html-keyboard-response","199","253897","0.0-1.0-267.0-0.0","0","0","92816","","null","","","null","29","","","","","","","","","","","","","","","",""
"","time_out","","html-keyboard-response","200","255912","0.0-1.0-269.0-0.0","0","0","92816","","null","","","null","29","","","","","","","","","","","","","","","",""
"","ITI","","html-keyboard-response","201","256920","0.0-1.0-270.0","0","0","92816","","null","","","null","29","","","","","","","","","","","","","","","NaN",""
"","S1","","html-keyboard-response","202","257185","0.0-1.0-272.0","0","0","92816","","null","","","null","30","","","","","","","","","","","","","","","",""
"","ISI","","html-keyboard-response","203","258199","0.0-1.0-273.0","0","0","92816","","null","","","null","30","NaN","","","","","","","","","","","","","","",""
"","S2","","html-keyboard-response","204","258466","0.0-1.0-274.0","0","0","92816","","null","","","null","30","","NaN","","","","","","","","","","","","","",""
"","response","","html-keyboard-response","205","258790","0.0-1.0-275.0-0.0","0","0","92816","","319","","","75","30","","","1","30","training","adjacent","CD","3","4","R.jpg","N.jpg","0","1","0","",""
"","feedback","","html-keyboard-response","206","259800","0.0-1.0-276.0-0.0","0","0","92816","","null","","","null","30","","","","","","","","","","","","","","","",""
"","time_out","","html-keyboard-response","207","261818","0.0-1.0-278.0-0.0","0","0","92816","","null","","","null","30","","","","","","","","","","","","","","","",""
"","ITI","","html-keyboard-response","208","262835","0.0-1.0-279.0","0","0","92816","","null","","","null","30","","","","","","","","","","","","","","","NaN",""
"","S1","","html-keyboard-response","209","263096","0.0-1.0-281.0","0","0","92816","","null","","","null","31","","","","","","","","","","","","","","","",""
"","ISI","","html-keyboard-response","210","264113","0.0-1.0-282.0","0","0","92816","","null","","","null","31","NaN","","","","","","","","","","","","","","",""
"","S2","","html-keyboard-response","211","264376","0.0-1.0-283.0","0","0","92816","","null","","","null","31","","NaN","","","","","","","","","","","","","",""
"","response","","html-keyboard-response","212","264857","0.0-1.0-284.0-0.0","0","0","92816","","476","","","75","31","","","1","31","training","adjacent","AB","1","2","M.jpg","P.jpg","0","1","0","",""
"","feedback","","html-keyboard-response","213","265864","0.0-1.0-285.0-0.0","0","0","92816","","null","","","null","31","","","","","","","","","","","","","","","",""
"","time_out","","html-keyboard-response","214","267882","0.0-1.0-287.0-0.0","0","0","92816","","null","","","null","31","","","","","","","","","","","","","","","",""
"","ITI","","html-keyboard-response","215","268899","0.0-1.0-288.0","0","0","92816","","null","","","null","31","","","","","","","","","","","","","","","NaN",""
"","S1","","html-keyboard-response","216","269159","0.0-1.0-290.0","0","0","92816","","null","","","null","32","","","","","","","","","","","","","","","",""
"","ISI","","html-keyboard-response","217","270171","0.0-1.0-291.0","0","0","92816","","null","","","null","32","NaN","","","","","","","","","","","","","","",""
"","S2","","html-keyboard-response","218","270434","0.0-1.0-292.0","0","0","92816","","null","","","null","32","","NaN","","","","","","","","","","","","","",""
"","response","","html-keyboard-response","219","270905","0.0-1.0-293.0-0.0","0","0","92816","","467","","","75","32","","","1","32","training","adjacent","FE","6","5","O.jpg","L.jpg","0","0","1","",""
"","feedback","","html-keyboard-response","220","271923","0.0-1.0-294.0-0.0","0","0","92816","","null","","","null","32","","","","","","","","","","","","","","","",""
"","ITI","","html-keyboard-response","221","272937","0.0-1.0-297.0","0","0","92816","","null","","","null","32","","","","","","","","","","","","","","","NaN",""
"","S1","","html-keyboard-response","222","273202","0.0-1.0-299.0","0","0","92816","","null","","","null","33","","","","","","","","","","","","","","","",""
"","ISI","","html-keyboard-response","223","274218","0.0-1.0-300.0","0","0","92816","","null","","","null","33","NaN","","","","","","","","","","","","","","",""
"","S2","","html-keyboard-response","224","274483","0.0-1.0-301.0","0","0","92816","","null","","","null","33","","NaN","","","","","","","","","","","","","",""
"","response","","html-keyboard-response","225","274863","0.0-1.0-302.0-0.0","0","0","92816","","377","","","68","33","","","1","33","training","adjacent","EF","5","6","L.jpg","O.jpg","1","1","1","",""
"","feedback","","html-keyboard-response","226","275874","0.0-1.0-303.0-0.0","0","0","92816","","null","","","null","33","","","","","","","","","","","","","","","",""
"","ITI","","html-keyboard-response","227","276889","0.0-1.0-306.0","0","0","92816","","null","","","null","33","","","","","","","","","","","","","","","NaN",""
"","S1","","html-keyboard-response","228","277153","0.0-1.0-308.0","0","0","92816","","null","","","null","34","","","","","","","","","","","","","","","",""
"","ISI","","html-keyboard-response","229","278171","0.0-1.0-309.0","0","0","92816","","null","","","null","34","NaN","","","","","","","","","","","","","","",""
"","S2","","html-keyboard-response","230","278433","0.0-1.0-310.0","0","0","92816","","null","","","null","34","","NaN","","","","","","","","","","","","","",""
"","response","","html-keyboard-response","231","278873","0.0-1.0-311.0-0.0","0","0","92816","","437","","","75","34","","","1","34","training","adjacent","BA","2","1","P.jpg","M.jpg","0","0","1","",""
"","feedback","","html-keyboard-response","232","279889","0.0-1.0-312.0-0.0","0","0","92816","","null","","","null","34","","","","","","","","","","","","","","","",""
"","ITI","","html-keyboard-response","233","280905","0.0-1.0-315.0","0","0","92816","","null","","","null","34","","","","","","","","","","","","","","","NaN",""
"","S1","","html-keyboard-response","234","281171","0.0-1.0-317.0","0","0","92816","","null","","","null","35","","","","","","","","","","","","","","","",""
"","ISI","","html-keyboard-response","235","282187","0.0-1.0-318.0","0","0","92816","","null","","","null","35","NaN","","","","","","","","","","","","","","",""
"","S2","","html-keyboard-response","236","282451","0.0-1.0-319.0","0","0","92816","","null","","","null","35","","NaN","","","","","","","","","","","","","",""
"","response","","html-keyboard-response","237","282904","0.0-1.0-320.0-0.0","0","0","92816","","449","","","68","35","","","1","35","training","adjacent","FE","6","5","O.jpg","L.jpg","1","0","0","",""
"","feedback","","html-keyboard-response","238","283921","0.0-1.0-321.0-0.0","0","0","92816","","null","","","null","35","","","","","","","","","","","","","","","",""
"","time_out","","html-keyboard-response","239","285938","0.0-1.0-323.0-0.0","0","0","92816","","null","","","null","35","","","","","","","","","","","","","","","",""
"","ITI","","html-keyboard-response","240","286954","0.0-1.0-324.0","0","0","92816","","null","","","null","35","","","","","","","","","","","","","","","NaN",""
"","S1","","html-keyboard-response","241","287218","0.0-1.0-326.0","0","0","92816","","null","","","null","36","","","","","","","","","","","","","","","",""
"","ISI","","html-keyboard-response","242","288232","0.0-1.0-327.0","0","0","92816","","null","","","null","36","NaN","","","","","","","","","","","","","","",""
"","S2","","html-keyboard-response","243","288499","0.0-1.0-328.0","0","0","92816","","null","","","null","36","","NaN","","","","","","","","","","","","","",""
"","response","","html-keyboard-response","244","288929","0.0-1.0-329.0-0.0","0","0","92816","","424","","","68","36","","","1","36","training","adjacent","FG","6","7","O.jpg","Q.jpg","1","1","1","",""
"","feedback","","html-keyboard-response","245","289947","0.0-1.0-330.0-0.0","0","0","92816","","null","","","null","36","","","","","","","","","","","","","","","",""
"","ITI","","html-keyboard-response","246","290963","0.0-1.0-333.0","0","0","92816","","null","","","null","36","","","","","","","","","","","","","","","NaN",""
"","S1","","html-keyboard-response","247","291226","0.0-1.0-335.0","0","0","92816","","null","","","null","37","","","","","","","","","","","","","","","",""
"","ISI","","html-keyboard-response","248","292242","0.0-1.0-336.0","0","0","92816","","null","","","null","37","NaN","","","","","","","","","","","","","","",""
"","S2","","html-keyboard-response","249","292504","0.0-1.0-337.0","0","0","92816","","null","","","null","37","","NaN","","","","","","","","","","","","","",""
"","response","","html-keyboard-response","250","292952","0.0-1.0-338.0-0.0","0","0","92816","","445","","","75","37","","","1","37","training","adjacent","CD","3","4","R.jpg","N.jpg","0","1","0","",""
"","feedback","","html-keyboard-response","251","293969","0.0-1.0-339.0-0.0","0","0","92816","","null","","","null","37","","","","","","","","","","","","","","","",""
"","time_out","","html-keyboard-response","252","295988","0.0-1.0-341.0-0.0","0","0","92816","","null","","","null","37","","","","","","","","","","","","","","","",""
"","ITI","","html-keyboard-response","253","297001","0.0-1.0-342.0","0","0","92816","","null","","","null","37","","","","","","","","","","","","","","","NaN",""
"","S1","","html-keyboard-response","254","297262","0.0-1.0-344.0","0","0","92816","","null","","","null","38","","","","","","","","","","","","","","","",""
"","ISI","","html-keyboard-response","255","298275","0.0-1.0-345.0","0","0","92816","","null","","","null","38","NaN","","","","","","","","","","","","","","",""
"","S2","","html-keyboard-response","256","298537","0.0-1.0-346.0","0","0","92816","","null","","","null","38","","NaN","","","","","","","","","","","","","",""
"","response","","html-keyboard-response","257","299236","0.0-1.0-347.0-0.0","0","0","92816","","696","","","75","38","","","1","38","training","adjacent","CB","3","2","R.jpg","P.jpg","0","0","1","",""
"","feedback","","html-keyboard-response","258","300249","0.0-1.0-348.0-0.0","0","0","92816","","null","","","null","38","","","","","","","","","","","","","","","",""
"","ITI","","html-keyboard-response","259","301267","0.0-1.0-351.0","0","0","92816","","null","","","null","38","","","","","","","","","","","","","","","NaN",""
"","S1","","html-keyboard-response","260","301530","0.0-1.0-353.0","0","0","92816","","null","","","null","39","","","","","","","","","","","","","","","",""
"","ISI","","html-keyboard-response","261","302547","0.0-1.0-354.0","0","0","92816","","null","","","null","39","NaN","","","","","","","","","","","","","","",""
"","S2","","html-keyboard-response","262","302810","0.0-1.0-355.0","0","0","92816","","null","","","null","39","","NaN","","","","","","","","","","","","","",""
"","response","","html-keyboard-response","263","303358","0.0-1.0-356.0-0.0","0","0","92816","","545","","","75","39","","","1","39","training","adjacent","CD","3","4","R.jpg","N.jpg","0","1","0","",""
"","feedback","","html-keyboard-response","264","304370","0.0-1.0-357.0-0.0","0","0","92816","","null","","","null","39","","","","","","","","","","","","","","","",""
"","time_out","","html-keyboard-response","265","306386","0.0-1.0-359.0-0.0","0","0","92816","","null","","","null","39","","","","","","","","","","","","","","","",""
"","ITI","","html-keyboard-response","266","307401","0.0-1.0-360.0","0","0","92816","","null","","","null","39","","","","","","","","","","","","","","","NaN",""
"","S1","","html-keyboard-response","267","307667","0.0-1.0-362.0","0","0","92816","","null","","","null","40","","","","","","","","","","","","","","","",""
"","ISI","","html-keyboard-response","268","308681","0.0-1.0-363.0","0","0","92816","","null","","","null","40","NaN","","","","","","","","","","","","","","",""
"","S2","","html-keyboard-response","269","308946","0.0-1.0-364.0","0","0","92816","","null","","","null","40","","NaN","","","","","","","","","","","","","",""
"","response","","html-keyboard-response","270","309411","0.0-1.0-365.0-0.0","0","0","92816","","461","","","68","40","","","1","40","training","adjacent","AB","1","2","M.jpg","P.jpg","1","1","1","",""
"","feedback","","html-keyboard-response","271","310425","0.0-1.0-366.0-0.0","0","0","92816","","null","","","null","40","","","","","","","","","","","","","","","",""
"","ITI","","html-keyboard-response","272","311442","0.0-1.0-369.0","0","0","92816","","null","","","null","40","","","","","","","","","","","","","","","NaN",""
"","S1","","html-keyboard-response","273","311703","0.0-1.0-371.0","0","0","92816","","null","","","null","41","","","","","","","","","","","","","","","",""
"","ISI","","html-keyboard-response","274","312713","0.0-1.0-372.0","0","0","92816","","null","","","null","41","NaN","","","","","","","","","","","","","","",""
"","S2","","html-keyboard-response","275","312979","0.0-1.0-373.0","0","0","92816","","null","","","null","41","","NaN","","","","","","","","","","","","","",""
"","response","","html-keyboard-response","276","313381","0.0-1.0-374.0-0.0","0","0","92816","","398","","","75","41","","","1","41","training","adjacent","AB","1","2","M.jpg","P.jpg","0","1","0","",""
"","feedback","","html-keyboard-response","277","314393","0.0-1.0-375.0-0.0","0","0","92816","","null","","","null","41","","","","","","","","","","","","","","","",""
"","time_out","","html-keyboard-response","278","316408","0.0-1.0-377.0-0.0","0","0","92816","","null","","","null","41","","","","","","","","","","","","","","","",""
"","ITI","","html-keyboard-response","279","317416","0.0-1.0-378.0","0","0","92816","","null","","","null","41","","","","","","","","","","","","","","","NaN",""
"","S1","","html-keyboard-response","280","317682","0.0-1.0-380.0","0","0","92816","","null","","","null","42","","","","","","","","","","","","","","","",""
"","ISI","","html-keyboard-response","281","318697","0.0-1.0-381.0","0","0","92816","","null","","","null","42","NaN","","","","","","","","","","","","","","",""
"","S2","","html-keyboard-response","282","318963","0.0-1.0-382.0","0","0","92816","","null","","","null","42","","NaN","","","","","","","","","","","","","",""
"","response","","html-keyboard-response","283","319433","0.0-1.0-383.0-0.0","0","0","92816","","465","","","75","42","","","1","42","training","adjacent","FE","6","5","O.jpg","L.jpg","0","0","1","",""
"","feedback","","html-keyboard-response","284","320450","0.0-1.0-384.0-0.0","0","0","92816","","null","","","null","42","","","","","","","","","","","","","","","",""
"","ITI","","html-keyboard-response","285","321465","0.0-1.0-387.0","0","0","92816","","null","","","null","42","","","","","","","","","","","","","","","NaN",""
"","S1","","html-keyboard-response","286","321731","0.0-1.0-389.0","0","0","92816","","null","","","null","43","","","","","","","","","","","","","","","",""
"","ISI","","html-keyboard-response","287","322745","0.0-1.0-390.0","0","0","92816","","null","","","null","43","NaN","","","","","","","","","","","","","","",""
"","S2","","html-keyboard-response","288","323013","0.0-1.0-391.0","0","0","92816","","null","","","null","43","","NaN","","","","","","","","","","","","","",""
"","response","","html-keyboard-response","289","323356","0.0-1.0-392.0-0.0","0","0","92816","","339","","","68","43","","","1","43","training","adjacent","DC","4","3","N.jpg","R.jpg","1","0","0","",""
"","feedback","","html-keyboard-response","290","324371","0.0-1.0-393.0-0.0","0","0","92816","","null","","","null","43","","","","","","","","","","","","","","","",""
"","time_out","","html-keyboard-response","291","326386","0.0-1.0-395.0-0.0","0","0","92816","","null","","","null","43","","","","","","","","","","","","","","","",""
"","ITI","","html-keyboard-response","292","327402","0.0-1.0-396.0","0","0","92816","","null","","","null","43","","","","","","","","","","","","","","","NaN",""
"","S1","","html-keyboard-response","293","327665","0.0-1.0-398.0","0","0","92816","","null","","","null","44","","","","","","","","","","","","","","","",""
"","ISI","","html-keyboard-response","294","328684","0.0-1.0-399.0","0","0","92816","","null","","","null","44","NaN","","","","","","","","","","","","","","",""
"","S2","","html-keyboard-response","295","328946","0.0-1.0-400.0","0","0","92816","","null","","","null","44","","NaN","","","","","","","","","","","","","",""
"","response","","html-keyboard-response","296","329284","0.0-1.0-401.0-0.0","0","0","92816","","336","","","68","44","","","1","44","training","adjacent","DC","4","3","N.jpg","R.jpg","1","0","0","",""
"","feedback","","html-keyboard-response","297","330297","0.0-1.0-402.0-0.0","0","0","92816","","null","","","null","44","","","","","","","","","","","","","","","",""
"","time_out","","html-keyboard-response","298","332313","0.0-1.0-404.0-0.0","0","0","92816","","null","","","null","44","","","","","","","","","","","","","","","",""
"","ITI","","html-keyboard-response","299","333330","0.0-1.0-405.0","0","0","92816","","null","","","null","44","","","","","","","","","","","","","","","NaN",""
"","S1","","html-keyboard-response","300","333592","0.0-1.0-407.0","0","0","92816","","null","","","null","45","","","","","","","","","","","","","","","",""
"","ISI","","html-keyboard-response","301","334600","0.0-1.0-408.0","0","0","92816","","null","","","null","45","NaN","","","","","","","","","","","","","","",""
"","S2","","html-keyboard-response","302","334866","0.0-1.0-409.0","0","0","92816","","null","","","null","45","","NaN","","","","","","","","","","","","","",""
"","response","","html-keyboard-response","303","335399","0.0-1.0-410.0-0.0","0","0","92816","","529","","","75","45","","","1","45","training","adjacent","ED","5","4","L.jpg","N.jpg","0","0","1","",""
"","feedback","","html-keyboard-response","304","336409","0.0-1.0-411.0-0.0","0","0","92816","","null","","","null","45","","","","","","","","","","","","","","","",""
"","ITI","","html-keyboard-response","305","337416","0.0-1.0-414.0","0","0","92816","","null","","","null","45","","","","","","","","","","","","","","","NaN",""
"","S1","","html-keyboard-response","306","337683","0.0-1.0-416.0","0","0","92816","","null","","","null","46","","","","","","","","","","","","","","","",""
"","ISI","","html-keyboard-response","307","338698","0.0-1.0-417.0","0","0","92816","","null","","","null","46","NaN","","","","","","","","","","","","","","",""
"","S2","","html-keyboard-response","308","338962","0.0-1.0-418.0","0","0","92816","","null","","","null","46","","NaN","","","","","","","","","","","","","",""
"","response","","html-keyboard-response","309","339417","0.0-1.0-419.0-0.0","0","0","92816","","451","","","68","46","","","1","46","training","adjacent","GF","7","6","Q.jpg","O.jpg","1","0","0","",""
"","feedback","","html-keyboard-response","310","340434","0.0-1.0-420.0-0.0","0","0","92816","","null","","","null","46","","","","","","","","","","","","","","","",""
"","time_out","","html-keyboard-response","311","342451","0.0-1.0-422.0-0.0","0","0","92816","","null","","","null","46","","","","","","","","","","","","","","","",""
"","ITI","","html-keyboard-response","312","343465","0.0-1.0-423.0","0","0","92816","","null","","","null","46","","","","","","","","","","","","","","","NaN",""
"","S1","","html-keyboard-response","313","343731","0.0-1.0-425.0","0","0","92816","","null","","","null","47","","","","","","","","","","","","","","","",""
"","ISI","","html-keyboard-response","314","344745","0.0-1.0-426.0","0","0","92816","","null","","","null","47","NaN","","","","","","","","","","","","","","",""
"","S2","","html-keyboard-response","315","345011","0.0-1.0-427.0","0","0","92816","","null","","","null","47","","NaN","","","","","","","","","","","","","",""
"","response","","html-keyboard-response","316","345642","0.0-1.0-428.0-0.0","0","0","92816","","625","","","68","47","","","1","47","training","adjacent","FG","6","7","O.jpg","Q.jpg","1","1","1","",""
"","feedback","","html-keyboard-response","317","346660","0.0-1.0-429.0-0.0","0","0","92816","","null","","","null","47","","","","","","","","","","","","","","","",""
"","ITI","","html-keyboard-response","318","347672","0.0-1.0-432.0","0","0","92816","","null","","","null","47","","","","","","","","","","","","","","","NaN",""
"","block_over","","html-keyboard-response","319","351971","0.0-1.0-433.0-0.0","0","0","92816","","4296","","","32","47","","","","","","","","","","","","","","","",""
"","S1","","html-keyboard-response","320","352233","0.0-1.0-434.0","0","0","92816","","null","","","null","48","","","","","","","","","","","","","","","",""
"","ISI","","html-keyboard-response","321","353254","0.0-1.0-435.0","0","0","92816","","null","","","null","48","NaN","","","","","","","","","","","","","","",""
"","S2","","html-keyboard-response","322","353514","0.0-1.0-436.0","0","0","92816","","null","","","null","48","","NaN","","","","","","","","","","","","","",""
"","response","","html-keyboard-response","323","354222","0.0-1.0-437.0-0.0","0","0","92816","","703","","","68","48","","","2","48","training","adjacent","AB","1","2","M.jpg","P.jpg","1","1","1","",""
"","feedback","","html-keyboard-response","324","355236","0.0-1.0-438.0-0.0","0","0","92816","","null","","","null","48","","","","","","","","","","","","","","","",""
"","ITI","","html-keyboard-response","325","356249","0.0-1.0-441.0","0","0","92816","","null","","","null","48","","","","","","","","","","","","","","","NaN",""
"","S1","","html-keyboard-response","326","356515","0.0-1.0-443.0","0","0","92816","","null","","","null","49","","","","","","","","","","","","","","","",""
"","ISI","","html-keyboard-response","327","357529","0.0-1.0-444.0","0","0","92816","","null","","","null","49","NaN","","","","","","","","","","","","","","",""
"","S2","","html-keyboard-response","328","357795","0.0-1.0-445.0","0","0","92816","","null","","","null","49","","NaN","","","","","","","","","","","","","",""
"","response","","html-keyboard-response","329","358299","0.0-1.0-446.0-0.0","0","0","92816","","500","","","75","49","","","2","49","training","adjacent","CD","3","4","R.jpg","N.jpg","0","1","0","",""
"","feedback","","html-keyboard-response","330","359315","0.0-1.0-447.0-0.0","0","0","92816","","null","","","null","49","","","","","","","","","","","","","","","",""
"","time_out","","html-keyboard-response","331","361330","0.0-1.0-449.0-0.0","0","0","92816","","null","","","null","49","","","","","","","","","","","","","","","",""
"","ITI","","html-keyboard-response","332","362345","0.0-1.0-450.0","0","0","92816","","null","","","null","49","","","","","","","","","","","","","","","NaN",""
"","S1","","html-keyboard-response","333","362612","0.0-1.0-452.0","0","0","92816","","null","","","null","50","","","","","","","","","","","","","","","",""
"","ISI","","html-keyboard-response","334","363626","0.0-1.0-453.0","0","0","92816","","null","","","null","50","NaN","","","","","","","","","","","","","","",""
"","S2","","html-keyboard-response","335","363855","0.0-1.0-454.0","0","0","92816","","226","","","75","50","","k","2","50","training","adjacent","GF","7","6","Q.jpg","O.jpg","0","0","1","",""
"","feedback","","html-keyboard-response","336","364867","0.0-1.0-456.0-0.0","0","0","92816","","null","","","null","50","","","","","","","","","","","","","","","",""
"","ITI","","html-keyboard-response","337","365885","0.0-1.0-459.0","0","0","92816","","null","","","null","50","","","","","","","","","","","","","","","NaN",""
"","S1","","html-keyboard-response","338","366147","0.0-1.0-461.0","0","0","92816","","null","","","null","51","","","","","","","","","","","","","","","",""
"","ISI","","html-keyboard-response","339","367161","0.0-1.0-462.0","0","0","92816","","null","","","null","51","NaN","","","","","","","","","","","","","","",""
"","S2","","html-keyboard-response","340","367427","0.0-1.0-463.0","0","0","92816","","null","","","null","51","","NaN","","","","","","","","","","","","","",""
"","response","","html-keyboard-response","341","367811","0.0-1.0-464.0-0.0","0","0","92816","","377","","","75","51","","","2","51","training","adjacent","CB","3","2","R.jpg","P.jpg","0","0","1","",""
"","feedback","","html-keyboard-response","342","368824","0.0-1.0-465.0-0.0","0","0","92816","","null","","","null","51","","","","","","","","","","","","","","","",""
"","ITI","","html-keyboard-response","343","369843","0.0-1.0-468.0","0","0","92816","","null","","","null","51","","","","","","","","","","","","","","","NaN",""
"","S1","","html-keyboard-response","344","370107","0.0-1.0-470.0","0","0","92816","","null","","","null","52","","","","","","","","","","","","","","","",""
"","ISI","","html-keyboard-response","345","371123","0.0-1.0-471.0","0","0","92816","","null","","","null","52","NaN","","","","","","","","","","","","","","",""
"","S2","","html-keyboard-response","346","371386","0.0-1.0-472.0","0","0","92816","","null","","","null","52","","NaN","","","","","","","","","","","","","",""
"","response","","html-keyboard-response","347","371876","0.0-1.0-473.0-0.0","0","0","92816","","485","","","68","52","","","2","52","training","adjacent","DE","4","5","N.jpg","L.jpg","1","1","1","",""
"","feedback","","html-keyboard-response","348","372889","0.0-1.0-474.0-0.0","0","0","92816","","null","","","null","52","","","","","","","","","","","","","","","",""
"","ITI","","html-keyboard-response","349","373909","0.0-1.0-477.0","0","0","92816","","null","","","null","52","","","","","","","","","","","","","","","NaN",""
"","S1","","html-keyboard-response","350","374171","0.0-1.0-479.0","0","0","92816","","null","","","null","53","","","","","","","","","","","","","","","",""
"","ISI","","html-keyboard-response","351","375187","0.0-1.0-480.0","0","0","92816","","null","","","null","53","NaN","","","","","","","","","","","","","","",""
"","S2","","html-keyboard-response","352","375449","0.0-1.0-481.0","0","0","92816","","null","","","null","53","","NaN","","","","","","","","","","","","","",""
"","response","","html-keyboard-response","353","375880","0.0-1.0-482.0-0.0","0","0","92816","","427","","","68","53","","","2","53","training","adjacent","DC","4","3","N.jpg","R.jpg","1","0","0","",""
"","feedback","","html-keyboard-response","354","376889","0.0-1.0-483.0-0.0","0","0","92816","","null","","","null","53","","","","","","","","","","","","","","","",""
"","time_out","","html-keyboard-response","355","378906","0.0-1.0-485.0-0.0","0","0","92816","","null","","","null","53","","","","","","","","","","","","","","","",""
"","ITI","","html-keyboard-response","356","379922","0.0-1.0-486.0","0","0","92816","","null","","","null","53","","","","","","","","","","","","","","","NaN",""
"","S1","","html-keyboard-response","357","380185","0.0-1.0-488.0","0","0","92816","","null","","","null","54","","","","","","","","","","","","","","","",""
"","ISI","","html-keyboard-response","358","381201","0.0-1.0-489.0","0","0","92816","","null","","","null","54","NaN","","","","","","","","","","","","","","",""
"","S2","","html-keyboard-response","359","381464","0.0-1.0-490.0","0","0","92816","","null","","","null","54","","NaN","","","","","","","","","","","","","",""
"","response","","html-keyboard-response","360","381794","0.0-1.0-491.0-0.0","0","0","92816","","326","","","68","54","","","2","54","training","adjacent","FE","6","5","O.jpg","L.jpg","1","0","0","",""
"","feedback","","html-keyboard-response","361","382808","0.0-1.0-492.0-0.0","0","0","92816","","null","","","null","54","","","","","","","","","","","","","","","",""
"","time_out","","html-keyboard-response","362","384819","0.0-1.0-494.0-0.0","0","0","92816","","null","","","null","54","","","","","","","","","","","","","","","",""
"","ITI","","html-keyboard-response","363","385834","0.0-1.0-495.0","0","0","92816","","null","","","null","54","","","","","","","","","","","","","","","NaN",""
"","S1","","html-keyboard-response","364","386101","0.0-1.0-497.0","0","0","92816","","null","","","null","55","","","","","","","","","","","","","","","",""
"","ISI","","html-keyboard-response","365","387111","0.0-1.0-498.0","0","0","92816","","null","","","null","55","NaN","","","","","","","","","","","","","","",""
"","S2","","html-keyboard-response","366","387380","0.0-1.0-499.0","0","0","92816","","null","","","null","55","","NaN","","","","","","","","","","","","","",""
"","response","","html-keyboard-response","367","388006","0.0-1.0-500.0-0.0","0","0","92816","","621","","","68","55","","","2","55","training","adjacent","FE","6","5","O.jpg","L.jpg","1","0","0","",""
"","feedback","","html-keyboard-response","368","389017","0.0-1.0-501.0-0.0","0","0","92816","","null","","","null","55","","","","","","","","","","","","","","","",""
"","time_out","","html-keyboard-response","369","391034","0.0-1.0-503.0-0.0","0","0","92816","","null","","","null","55","","","","","","","","","","","","","","","",""
"","ITI","","html-keyboard-response","370","392049","0.0-1.0-504.0","0","0","92816","","null","","","null","55","","","","","","","","","","","","","","","NaN",""
"","S1","","html-keyboard-response","371","392314","0.0-1.0-506.0","0","0","92816","","null","","","null","56","","","","","","","","","","","","","","","",""
"","ISI","","html-keyboard-response","372","393333","0.0-1.0-507.0","0","0","92816","","null","","","null","56","NaN","","","","","","","","","","","","","","",""
"","S2","","html-keyboard-response","373","393595","0.0-1.0-508.0","0","0","92816","","null","","","null","56","","NaN","","","","","","","","","","","","","",""
"","response","","html-keyboard-response","374","394158","0.0-1.0-509.0-0.0","0","0","92816","","558","","","68","56","","","2","56","training","adjacent","BC","2","3","P.jpg","R.jpg","1","1","1","",""
"","feedback","","html-keyboard-response","375","395170","0.0-1.0-510.0-0.0","0","0","92816","","null","","","null","56","","","","","","","","","","","","","","","",""
"","ITI","","html-keyboard-response","376","396188","0.0-1.0-513.0","0","0","92816","","null","","","null","56","","","","","","","","","","","","","","","NaN",""
"","S1","","html-keyboard-response","377","396451","0.0-1.0-515.0","0","0","92816","","null","","","null","57","","","","","","","","","","","","","","","",""
"","ISI","","html-keyboard-response","378","397465","0.0-1.0-516.0","0","0","92816","","null","","","null","57","NaN","","","","","","","","","","","","","","",""
"","S2","","html-keyboard-response","379","397732","0.0-1.0-517.0","0","0","92816","","null","","","null","57","","NaN","","","","","","","","","","","","","",""
"","response","","html-keyboard-response","380","398556","0.0-1.0-518.0-0.0","0","0","92816","","821","","","68","57","","","2","57","training","adjacent","DC","4","3","N.jpg","R.jpg","1","0","0","",""
"","feedback","","html-keyboard-response","381","399571","0.0-1.0-519.0-0.0","0","0","92816","","null","","","null","57","","","","","","","","","","","","","","","",""
"","time_out","","html-keyboard-response","382","401587","0.0-1.0-521.0-0.0","0","0","92816","","null","","","null","57","","","","","","","","","","","","","","","",""
"","ITI","","html-keyboard-response","383","402602","0.0-1.0-522.0","0","0","92816","","null","","","null","57","","","","","","","","","","","","","","","NaN",""
"","S1","","html-keyboard-response","384","402866","0.0-1.0-524.0","0","0","92816","","null","","","null","58","","","","","","","","","","","","","","","",""
"","ISI","","html-keyboard-response","385","403881","0.0-1.0-525.0","0","0","92816","","null","","","null","58","NaN","","","","","","","","","","","","","","",""
"","S2","","html-keyboard-response","386","404146","0.0-1.0-526.0","0","0","92816","","null","","","null","58","","NaN","","","","","","","","","","","","","",""
"","response","","html-keyboard-response","387","404793","0.0-1.0-527.0-0.0","0","0","92816","","645","","","68","58","","","2","58","training","adjacent","FG","6","7","O.jpg","Q.jpg","1","1","1","",""
"","feedback","","html-keyboard-response","388","405811","0.0-1.0-528.0-0.0","0","0","92816","","null","","","null","58","","","","","","","","","","","","","","","",""
"","ITI","","html-keyboard-response","389","406825","0.0-1.0-531.0","0","0","92816","","null","","","null","58","","","","","","","","","","","","","","","NaN",""
"","S1","","html-keyboard-response","390","407090","0.0-1.0-533.0","0","0","92816","","null","","","null","59","","","","","","","","","","","","","","","",""
"","ISI","","html-keyboard-response","391","408105","0.0-1.0-534.0","0","0","92816","","null","","","null","59","NaN","","","","","","","","","","","","","","",""
"","S2","","html-keyboard-response","392","408370","0.0-1.0-535.0","0","0","92816","","null","","","null","59","","NaN","","","","","","","","","","","","","",""
"","response","","html-keyboard-response","393","408866","0.0-1.0-536.0-0.0","0","0","92816","","493","","","68","59","","","2","59","training","adjacent","EF","5","6","L.jpg","O.jpg","1","1","1","",""
"","feedback","","html-keyboard-response","394","409881","0.0-1.0-537.0-0.0","0","0","92816","","null","","","null","59","","","","","","","","","","","","","","","",""
"","ITI","","html-keyboard-response","395","410899","0.0-1.0-540.0","0","0","92816","","null","","","null","59","","","","","","","","","","","","","","","NaN",""
"","S1","","html-keyboard-response","396","411159","0.0-1.0-542.0","0","0","92816","","null","","","null","60","","","","","","","","","","","","","","","",""
"","ISI","","html-keyboard-response","397","412170","0.0-1.0-543.0","0","0","92816","","null","","","null","60","NaN","","","","","","","","","","","","","","",""
"","S2","","html-keyboard-response","398","412435","0.0-1.0-544.0","0","0","92816","","null","","","null","60","","NaN","","","","","","","","","","","","","",""
"","response","","html-keyboard-response","399","412938","0.0-1.0-545.0-0.0","0","0","92816","","499","","","75","60","","","2","60","training","adjacent","BA","2","1","P.jpg","M.jpg","0","0","1","",""
"","feedback","","html-keyboard-response","400","413954","0.0-1.0-546.0-0.0","0","0","92816","","null","","","null","60","","","","","","","","","","","","","","","",""
"","ITI","","html-keyboard-response","401","414970","0.0-1.0-549.0","0","0","92816","","null","","","null","60","","","","","","","","","","","","","","","NaN",""
"","S1","","html-keyboard-response","402","415235","0.0-1.0-551.0","0","0","92816","","null","","","null","61","","","","","","","","","","","","","","","",""
"","ISI","","html-keyboard-response","403","416249","0.0-1.0-552.0","0","0","92816","","null","","","null","61","NaN","","","","","","","","","","","","","","",""
"","S2","","html-keyboard-response","404","416515","0.0-1.0-553.0","0","0","92816","","null","","","null","61","","NaN","","","","","","","","","","","","","",""
"","response","","html-keyboard-response","405","417051","0.0-1.0-554.0-0.0","0","0","92816","","532","","","68","61","","","2","61","training","adjacent","CD","3","4","R.jpg","N.jpg","1","1","1","",""
"","feedback","","html-keyboard-response","406","418067","0.0-1.0-555.0-0.0","0","0","92816","","null","","","null","61","","","","","","","","","","","","","","","",""
"","ITI","","html-keyboard-response","407","419082","0.0-1.0-558.0","0","0","92816","","null","","","null","61","","","","","","","","","","","","","","","NaN",""
"","S1","","html-keyboard-response","408","419348","0.0-1.0-560.0","0","0","92816","","null","","","null","62","","","","","","","","","","","","","","","",""
"","ISI","","html-keyboard-response","409","420362","0.0-1.0-561.0","0","0","92816","","null","","","null","62","NaN","","","","","","","","","","","","","","",""
"","S2","","html-keyboard-response","410","420627","0.0-1.0-562.0","0","0","92816","","null","","","null","62","","NaN","","","","","","","","","","","","","",""
"","response","","html-keyboard-response","411","421325","0.0-1.0-563.0-0.0","0","0","92816","","696","","","68","62","","","2","62","training","adjacent","ED","5","4","L.jpg","N.jpg","1","0","0","",""
"","feedback","","html-keyboard-response","412","422340","0.0-1.0-564.0-0.0","0","0","92816","","null","","","null","62","","","","","","","","","","","","","","","",""
"","time_out","","html-keyboard-response","413","424354","0.0-1.0-566.0-0.0","0","0","92816","","null","","","null","62","","","","","","","","","","","","","","","",""
"","ITI","","html-keyboard-response","414","425369","0.0-1.0-567.0","0","0","92816","","null","","","null","62","","","","","","","","","","","","","","","NaN",""
"","S1","","html-keyboard-response","415","425635","0.0-1.0-569.0","0","0","92816","","null","","","null","63","","","","","","","","","","","","","","","",""
"","ISI","","html-keyboard-response","416","426652","0.0-1.0-570.0","0","0","92816","","null","","","null","63","NaN","","","","","","","","","","","","","","",""
"","S2","","html-keyboard-response","417","426916","0.0-1.0-571.0","0","0","92816","","null","","","null","63","","NaN","","","","","","","","","","","","","",""
"","response","","html-keyboard-response","418","427411","0.0-1.0-572.0-0.0","0","0","92816","","491","","","75","63","","","2","63","training","adjacent","BA","2","1","P.jpg","M.jpg","0","0","1","",""
"","feedback","","html-keyboard-response","419","428425","0.0-1.0-573.0-0.0","0","0","92816","","null","","","null","63","","","","","","","","","","","","","","","",""
"","ITI","","html-keyboard-response","420","429443","0.0-1.0-576.0","0","0","92816","","null","","","null","63","","","","","","","","","","","","","","","NaN",""
"","S1","","html-keyboard-response","421","429708","0.0-1.0-578.0","0","0","92816","","null","","","null","64","","","","","","","","","","","","","","","",""
"","ISI","","html-keyboard-response","422","430722","0.0-1.0-579.0","0","0","92816","","null","","","null","64","NaN","","","","","","","","","","","","","","",""
"","S2","","html-keyboard-response","423","430984","0.0-1.0-580.0","0","0","92816","","null","","","null","64","","NaN","","","","","","","","","","","","","",""
"","response","","html-keyboard-response","424","431485","0.0-1.0-581.0-0.0","0","0","92816","","496","","","75","64","","","2","64","training","adjacent","BA","2","1","P.jpg","M.jpg","0","0","1","",""
"","feedback","","html-keyboard-response","425","432501","0.0-1.0-582.0-0.0","0","0","92816","","null","","","null","64","","","","","","","","","","","","","","","",""
"","ITI","","html-keyboard-response","426","433514","0.0-1.0-585.0","0","0","92816","","null","","","null","64","","","","","","","","","","","","","","","NaN",""
"","S1","","html-keyboard-response","427","433778","0.0-1.0-587.0","0","0","92816","","null","","","null","65","","","","","","","","","","","","","","","",""
"","ISI","","html-keyboard-response","428","434793","0.0-1.0-588.0","0","0","92816","","null","","","null","65","NaN","","","","","","","","","","","","","","",""
"","S2","","html-keyboard-response","429","435058","0.0-1.0-589.0","0","0","92816","","null","","","null","65","","NaN","","","","","","","","","","","","","",""
"","response","","html-keyboard-response","430","435532","0.0-1.0-590.0-0.0","0","0","92816","","470","","","75","65","","","2","65","training","adjacent","FE","6","5","O.jpg","L.jpg","0","0","1","",""
"","feedback","","html-keyboard-response","431","436546","0.0-1.0-591.0-0.0","0","0","92816","","null","","","null","65","","","","","","","","","","","","","","","",""
"","ITI","","html-keyboard-response","432","437565","0.0-1.0-594.0","0","0","92816","","null","","","null","65","","","","","","","","","","","","","","","NaN",""
"","S1","","html-keyboard-response","433","437827","0.0-1.0-596.0","0","0","92816","","null","","","null","66","","","","","","","","","","","","","","","",""
"","ISI","","html-keyboard-response","434","438841","0.0-1.0-597.0","0","0","92816","","null","","","null","66","NaN","","","","","","","","","","","","","","",""
"","S2","","html-keyboard-response","435","439108","0.0-1.0-598.0","0","0","92816","","null","","","null","66","","NaN","","","","","","","","","","","","","",""
"","response","","html-keyboard-response","436","439454","0.0-1.0-599.0-0.0","0","0","92816","","340","","","75","66","","","2","66","training","adjacent","BC","2","3","P.jpg","R.jpg","0","1","0","",""
"","feedback","","html-keyboard-response","437","440467","0.0-1.0-600.0-0.0","0","0","92816","","null","","","null","66","","","","","","","","","","","","","","","",""
"","time_out","","html-keyboard-response","438","442485","0.0-1.0-602.0-0.0","0","0","92816","","null","","","null","66","","","","","","","","","","","","","","","",""
"","ITI","","html-keyboard-response","439","443498","0.0-1.0-603.0","0","0","92816","","null","","","null","66","","","","","","","","","","","","","","","NaN",""
"","S1","","html-keyboard-response","440","443763","0.0-1.0-605.0","0","0","92816","","null","","","null","67","","","","","","","","","","","","","","","",""
"","ISI","","html-keyboard-response","441","444779","0.0-1.0-606.0","0","0","92816","","null","","","null","67","NaN","","","","","","","","","","","","","","",""
"","S2","","html-keyboard-response","442","445043","0.0-1.0-607.0","0","0","92816","","null","","","null","67","","NaN","","","","","","","","","","","","","",""
"","response","","html-keyboard-response","443","445368","0.0-1.0-608.0-0.0","0","0","92816","","321","","","75","67","","","2","67","training","adjacent","GF","7","6","Q.jpg","O.jpg","0","0","1","",""
"","feedback","","html-keyboard-response","444","446379","0.0-1.0-609.0-0.0","0","0","92816","","null","","","null","67","","","","","","","","","","","","","","","",""
"","ITI","","html-keyboard-response","445","447395","0.0-1.0-612.0","0","0","92816","","null","","","null","67","","","","","","","","","","","","","","","NaN",""
"","S1","","html-keyboard-response","446","447659","0.0-1.0-614.0","0","0","92816","","null","","","null","68","","","","","","","","","","","","","","","",""
"","ISI","","html-keyboard-response","447","448675","0.0-1.0-615.0","0","0","92816","","null","","","null","68","NaN","","","","","","","","","","","","","","",""
"","S2","","html-keyboard-response","448","448940","0.0-1.0-616.0","0","0","92816","","null","","","null","68","","NaN","","","","","","","","","","","","","",""
"","response","","html-keyboard-response","449","449687","0.0-1.0-617.0-0.0","0","0","92816","","743","","","68","68","","","2","68","training","adjacent","ED","5","4","L.jpg","N.jpg","1","0","0","",""
"","feedback","","html-keyboard-response","450","450699","0.0-1.0-618.0-0.0","0","0","92816","","null","","","null","68","","","","","","","","","","","","","","","",""
"","time_out","","html-keyboard-response","451","452716","0.0-1.0-620.0-0.0","0","0","92816","","null","","","null","68","","","","","","","","","","","","","","","",""
"","ITI","","html-keyboard-response","452","453731","0.0-1.0-621.0","0","0","92816","","null","","","null","68","","","","","","","","","","","","","","","NaN",""
"","S1","","html-keyboard-response","453","453993","0.0-1.0-623.0","0","0","92816","","null","","","null","69","","","","","","","","","","","","","","","",""
"","ISI","","html-keyboard-response","454","455011","0.0-1.0-624.0","0","0","92816","","null","","","null","69","NaN","","","","","","","","","","","","","","",""
"","S2","","html-keyboard-response","455","455276","0.0-1.0-625.0","0","0","92816","","null","","","null","69","","NaN","","","","","","","","","","","","","",""
"","response","","html-keyboard-response","456","455929","0.0-1.0-626.0-0.0","0","0","92816","","650","","","75","69","","","2","69","training","adjacent","FE","6","5","O.jpg","L.jpg","0","0","1","",""
"","feedback","","html-keyboard-response","457","456946","0.0-1.0-627.0-0.0","0","0","92816","","null","","","null","69","","","","","","","","","","","","","","","",""
"","ITI","","html-keyboard-response","458","457962","0.0-1.0-630.0","0","0","92816","","null","","","null","69","","","","","","","","","","","","","","","NaN",""
"","S1","","html-keyboard-response","459","458228","0.0-1.0-632.0","0","0","92816","","null","","","null","70","","","","","","","","","","","","","","","",""
"","ISI","","html-keyboard-response","460","459241","0.0-1.0-633.0","0","0","92816","","null","","","null","70","NaN","","","","","","","","","","","","","","",""
"","S2","","html-keyboard-response","461","459508","0.0-1.0-634.0","0","0","92816","","null","","","null","70","","NaN","","","","","","","","","","","","","",""
"","response","","html-keyboard-response","462","459960","0.0-1.0-635.0-0.0","0","0","92816","","449","","","75","70","","","2","70","training","adjacent","GF","7","6","Q.jpg","O.jpg","0","0","1","",""
"","feedback","","html-keyboard-response","463","460972","0.0-1.0-636.0-0.0","0","0","92816","","null","","","null","70","","","","","","","","","","","","","","","",""
"","ITI","","html-keyboard-response","464","461987","0.0-1.0-639.0","0","0","92816","","null","","","null","70","","","","","","","","","","","","","","","NaN",""
"","S1","","html-keyboard-response","465","462249","0.0-1.0-641.0","0","0","92816","","null","","","null","71","","","","","","","","","","","","","","","",""
"","ISI","","html-keyboard-response","466","463267","0.0-1.0-642.0","0","0","92816","","null","","","null","71","NaN","","","","","","","","","","","","","","",""
"","S2","","html-keyboard-response","467","463530","0.0-1.0-643.0","0","0","92816","","null","","","null","71","","NaN","","","","","","","","","","","","","",""
"","response","","html-keyboard-response","468","464363","0.0-1.0-644.0-0.0","0","0","92816","","828","","","68","71","","","2","71","training","adjacent","AB","1","2","M.jpg","P.jpg","1","1","1","",""
"","feedback","","html-keyboard-response","469","465379","0.0-1.0-645.0-0.0","0","0","92816","","null","","","null","71","","","","","","","","","","","","","","","",""
"","ITI","","html-keyboard-response","470","466394","0.0-1.0-648.0","0","0","92816","","null","","","null","71","","","","","","","","","","","","","","","NaN",""
"","S1","","html-keyboard-response","471","466659","0.0-1.0-650.0","0","0","92816","","null","","","null","72","","","","","","","","","","","","","","","",""
"","ISI","","html-keyboard-response","472","467674","0.0-1.0-651.0","0","0","92816","","null","","","null","72","NaN","","","","","","","","","","","","","","",""
"","S2","","html-keyboard-response","473","467938","0.0-1.0-652.0","0","0","92816","","null","","","null","72","","NaN","","","","","","","","","","","","","",""
"","response","","html-keyboard-response","474","468826","0.0-1.0-653.0-0.0","0","0","92816","","883","","","68","72","","","2","72","training","adjacent","AB","1","2","M.jpg","P.jpg","1","1","1","",""
"","feedback","","html-keyboard-response","475","469841","0.0-1.0-654.0-0.0","0","0","92816","","null","","","null","72","","","","","","","","","","","","","","","",""
"","ITI","","html-keyboard-response","476","470852","0.0-1.0-657.0","0","0","92816","","null","","","null","72","","","","","","","","","","","","","","","NaN",""
"","S1","","html-keyboard-response","477","471113","0.0-1.0-659.0","0","0","92816","","null","","","null","73","","","","","","","","","","","","","","","",""
"","ISI","","html-keyboard-response","478","472130","0.0-1.0-660.0","0","0","92816","","null","","","null","73","NaN","","","","","","","","","","","","","","",""
"","S2","","html-keyboard-response","479","472394","0.0-1.0-661.0","0","0","92816","","null","","","null","73","","NaN","","","","","","","","","","","","","",""
"","response","","html-keyboard-response","480","473145","0.0-1.0-662.0-0.0","0","0","92816","","746","","","68","73","","","2","73","training","adjacent","AB","1","2","M.jpg","P.jpg","1","1","1","",""
"","feedback","","html-keyboard-response","481","474165","0.0-1.0-663.0-0.0","0","0","92816","","null","","","null","73","","","","","","","","","","","","","","","",""
"","ITI","","html-keyboard-response","482","475178","0.0-1.0-666.0","0","0","92816","","null","","","null","73","","","","","","","","","","","","","","","NaN",""
"","S1","","html-keyboard-response","483","475443","0.0-1.0-668.0","0","0","92816","","null","","","null","74","","","","","","","","","","","","","","","",""
"","ISI","","html-keyboard-response","484","476458","0.0-1.0-669.0","0","0","92816","","null","","","null","74","NaN","","","","","","","","","","","","","","",""
"","S2","","html-keyboard-response","485","476723","0.0-1.0-670.0","0","0","92816","","null","","","null","74","","NaN","","","","","","","","","","","","","",""
"","response","","html-keyboard-response","486","477294","0.0-1.0-671.0-0.0","0","0","92816","","566","","","75","74","","","2","74","training","adjacent","CB","3","2","R.jpg","P.jpg","0","0","1","",""
"","feedback","","html-keyboard-response","487","478312","0.0-1.0-672.0-0.0","0","0","92816","","null","","","null","74","","","","","","","","","","","","","","","",""
"","ITI","","html-keyboard-response","488","479323","0.0-1.0-675.0","0","0","92816","","null","","","null","74","","","","","","","","","","","","","","","NaN",""
"","S1","","html-keyboard-response","489","479587","0.0-1.0-677.0","0","0","92816","","null","","","null","75","","","","","","","","","","","","","","","",""
"","ISI","","html-keyboard-response","490","480604","0.0-1.0-678.0","0","0","92816","","null","","","null","75","NaN","","","","","","","","","","","","","","",""
"","S2","","html-keyboard-response","491","480869","0.0-1.0-679.0","0","0","92816","","null","","","null","75","","NaN","","","","","","","","","","","","","",""
"","response","","html-keyboard-response","492","481618","0.0-1.0-680.0-0.0","0","0","92816","","745","","","75","75","","","2","75","training","adjacent","DE","4","5","N.jpg","L.jpg","0","1","0","",""
"","feedback","","html-keyboard-response","493","482633","0.0-1.0-681.0-0.0","0","0","92816","","null","","","null","75","","","","","","","","","","","","","","","",""
"","time_out","","html-keyboard-response","494","484644","0.0-1.0-683.0-0.0","0","0","92816","","null","","","null","75","","","","","","","","","","","","","","","",""
"","ITI","","html-keyboard-response","495","485657","0.0-1.0-684.0","0","0","92816","","null","","","null","75","","","","","","","","","","","","","","","NaN",""
"","S1","","html-keyboard-response","496","485923","0.0-1.0-686.0","0","0","92816","","null","","","null","76","","","","","","","","","","","","","","","",""
"","ISI","","html-keyboard-response","497","486938","0.0-1.0-687.0","0","0","92816","","null","","","null","76","NaN","","","","","","","","","","","","","","",""
"","S2","","html-keyboard-response","498","487204","0.0-1.0-688.0","0","0","92816","","null","","","null","76","","NaN","","","","","","","","","","","","","",""
"","response","","html-keyboard-response","499","487759","0.0-1.0-689.0-0.0","0","0","92816","","552","","","75","76","","","2","76","training","adjacent","CD","3","4","R.jpg","N.jpg","0","1","0","",""
"","feedback","","html-keyboard-response","500","488772","0.0-1.0-690.0-0.0","0","0","92816","","null","","","null","76","","","","","","","","","","","","","","","",""
"","time_out","","html-keyboard-response","501","490789","0.0-1.0-692.0-0.0","0","0","92816","","null","","","null","76","","","","","","","","","","","","","","","",""
"","ITI","","html-keyboard-response","502","491802","0.0-1.0-693.0","0","0","92816","","null","","","null","76","","","","","","","","","","","","","","","NaN",""
"","S1","","html-keyboard-response","503","492067","0.0-1.0-695.0","0","0","92816","","null","","","null","77","","","","","","","","","","","","","","","",""
"","ISI","","html-keyboard-response","504","493084","0.0-1.0-696.0","0","0","92816","","null","","","null","77","NaN","","","","","","","","","","","","","","",""
"","S2","","html-keyboard-response","505","493347","0.0-1.0-697.0","0","0","92816","","null","","","null","77","","NaN","","","","","","","","","","","","","",""
"","response","","html-keyboard-response","506","493828","0.0-1.0-698.0-0.0","0","0","92816","","477","","","68","77","","","2","77","training","adjacent","BC","2","3","P.jpg","R.jpg","1","1","1","",""
"","feedback","","html-keyboard-response","507","494836","0.0-1.0-699.0-0.0","0","0","92816","","null","","","null","77","","","","","","","","","","","","","","","",""
"","ITI","","html-keyboard-response","508","495843","0.0-1.0-702.0","0","0","92816","","null","","","null","77","","","","","","","","","","","","","","","NaN",""
"","S1","","html-keyboard-response","509","496106","0.0-1.0-704.0","0","0","92816","","null","","","null","78","","","","","","","","","","","","","","","",""
"","ISI","","html-keyboard-response","510","497123","0.0-1.0-705.0","0","0","92816","","null","","","null","78","NaN","","","","","","","","","","","","","","",""
"","S2","","html-keyboard-response","511","497385","0.0-1.0-706.0","0","0","92816","","null","","","null","78","","NaN","","","","","","","","","","","","","",""
"","response","","html-keyboard-response","512","497830","0.0-1.0-707.0-0.0","0","0","92816","","439","","","75","78","","","2","78","training","adjacent","CB","3","2","R.jpg","P.jpg","0","0","1","",""
"","feedback","","html-keyboard-response","513","498842","0.0-1.0-708.0-0.0","0","0","92816","","null","","","null","78","","","","","","","","","","","","","","","",""
"","ITI","","html-keyboard-response","514","499859","0.0-1.0-711.0","0","0","92816","","null","","","null","78","","","","","","","","","","","","","","","NaN",""
"","S1","","html-keyboard-response","515","500122","0.0-1.0-713.0","0","0","92816","","null","","","null","79","","","","","","","","","","","","","","","",""
"","ISI","","html-keyboard-response","516","501140","0.0-1.0-714.0","0","0","92816","","null","","","null","79","NaN","","","","","","","","","","","","","","",""
"","S2","","html-keyboard-response","517","501402","0.0-1.0-715.0","0","0","92816","","null","","","null","79","","NaN","","","","","","","","","","","","","",""
"","response","","html-keyboard-response","518","502046","0.0-1.0-716.0-0.0","0","0","92816","","640","","","75","79","","","2","79","training","adjacent","CD","3","4","R.jpg","N.jpg","0","1","0","",""
"","feedback","","html-keyboard-response","519","503060","0.0-1.0-717.0-0.0","0","0","92816","","null","","","null","79","","","","","","","","","","","","","","","",""
"","time_out","","html-keyboard-response","520","505076","0.0-1.0-719.0-0.0","0","0","92816","","null","","","null","79","","","","","","","","","","","","","","","",""
"","ITI","","html-keyboard-response","521","506090","0.0-1.0-720.0","0","0","92816","","null","","","null","79","","","","","","","","","","","","","","","NaN",""
"","S1","","html-keyboard-response","522","506354","0.0-1.0-722.0","0","0","92816","","null","","","null","80","","","","","","","","","","","","","","","",""
"","ISI","","html-keyboard-response","523","507371","0.0-1.0-723.0","0","0","92816","","null","","","null","80","NaN","","","","","","","","","","","","","","",""
"","S2","","html-keyboard-response","524","507636","0.0-1.0-724.0","0","0","92816","","null","","","null","80","","NaN","","","","","","","","","","","","","",""
"","response","","html-keyboard-response","525","508034","0.0-1.0-725.0-0.0","0","0","92816","","395","","","68","80","","","2","80","training","adjacent","EF","5","6","L.jpg","O.jpg","1","1","1","",""
"","feedback","","html-keyboard-response","526","509050","0.0-1.0-726.0-0.0","0","0","92816","","null","","","null","80","","","","","","","","","","","","","","","",""
"","ITI","","html-keyboard-response","527","510067","0.0-1.0-729.0","0","0","92816","","null","","","null","80","","","","","","","","","","","","","","","NaN",""
"","S1","","html-keyboard-response","528","510330","0.0-1.0-731.0","0","0","92816","","null","","","null","81","","","","","","","","","","","","","","","",""
"","ISI","","html-keyboard-response","529","511348","0.0-1.0-732.0","0","0","92816","","null","","","null","81","NaN","","","","","","","","","","","","","","",""
"","S2","","html-keyboard-response","530","511611","0.0-1.0-733.0","0","0","92816","","null","","","null","81","","NaN","","","","","","","","","","","","","",""
"","response","","html-keyboard-response","531","512025","0.0-1.0-734.0-0.0","0","0","92816","","409","","","75","81","","","2","81","training","adjacent","ED","5","4","L.jpg","N.jpg","0","0","1","",""
"","feedback","","html-keyboard-response","532","513044","0.0-1.0-735.0-0.0","0","0","92816","","null","","","null","81","","","","","","","","","","","","","","","",""
"","ITI","","html-keyboard-response","533","514060","0.0-1.0-738.0","0","0","92816","","null","","","null","81","","","","","","","","","","","","","","","NaN",""
"","S1","","html-keyboard-response","534","514323","0.0-1.0-740.0","0","0","92816","","null","","","null","82","","","","","","","","","","","","","","","",""
"","ISI","","html-keyboard-response","535","515339","0.0-1.0-741.0","0","0","92816","","null","","","null","82","NaN","","","","","","","","","","","","","","",""
"","S2","","html-keyboard-response","536","515602","0.0-1.0-742.0","0","0","92816","","null","","","null","82","","NaN","","","","","","","","","","","","","",""
"","response","","html-keyboard-response","537","516055","0.0-1.0-743.0-0.0","0","0","92816","","449","","","68","82","","","2","82","training","adjacent","CB","3","2","R.jpg","P.jpg","1","0","0","",""
"","feedback","","html-keyboard-response","538","517067","0.0-1.0-744.0-0.0","0","0","92816","","null","","","null","82","","","","","","","","","","","","","","","",""
"","time_out","","html-keyboard-response","539","519082","0.0-1.0-746.0-0.0","0","0","92816","","null","","","null","82","","","","","","","","","","","","","","","",""
"","ITI","","html-keyboard-response","540","520098","0.0-1.0-747.0","0","0","92816","","null","","","null","82","","","","","","","","","","","","","","","NaN",""
"","S1","","html-keyboard-response","541","520364","0.0-1.0-749.0","0","0","92816","","null","","","null","83","","","","","","","","","","","","","","","",""
"","ISI","","html-keyboard-response","542","521379","0.0-1.0-750.0","0","0","92816","","null","","","null","83","NaN","","","","","","","","","","","","","","",""
"","S2","","html-keyboard-response","543","521643","0.0-1.0-751.0","0","0","92816","","null","","","null","83","","NaN","","","","","","","","","","","","","",""
"","response","","html-keyboard-response","544","522076","0.0-1.0-752.0-0.0","0","0","92816","","431","","","68","83","","","2","83","training","adjacent","DC","4","3","N.jpg","R.jpg","1","0","0","",""
"","feedback","","html-keyboard-response","545","523091","0.0-1.0-753.0-0.0","0","0","92816","","null","","","null","83","","","","","","","","","","","","","","","",""
"","time_out","","html-keyboard-response","546","525107","0.0-1.0-755.0-0.0","0","0","92816","","null","","","null","83","","","","","","","","","","","","","","","",""
"","ITI","","html-keyboard-response","547","526123","0.0-1.0-756.0","0","0","92816","","null","","","null","83","","","","","","","","","","","","","","","NaN",""
"","S1","","html-keyboard-response","548","526388","0.0-1.0-758.0","0","0","92816","","null","","","null","84","","","","","","","","","","","","","","","",""
"","ISI","","html-keyboard-response","549","527400","0.0-1.0-759.0","0","0","92816","","null","","","null","84","NaN","","","","","","","","","","","","","","",""
"","S2","","html-keyboard-response","550","527668","0.0-1.0-760.0","0","0","92816","","null","","","null","84","","NaN","","","","","","","","","","","","","",""
"","response","","html-keyboard-response","551","528198","0.0-1.0-761.0-0.0","0","0","92816","","527","","","68","84","","","2","84","training","adjacent","DE","4","5","N.jpg","L.jpg","1","1","1","",""
"","feedback","","html-keyboard-response","552","529214","0.0-1.0-762.0-0.0","0","0","92816","","null","","","null","84","","","","","","","","","","","","","","","",""
"","ITI","","html-keyboard-response","553","530228","0.0-1.0-765.0","0","0","92816","","null","","","null","84","","","","","","","","","","","","","","","NaN",""
"","S1","","html-keyboard-response","554","530489","0.0-1.0-767.0","0","0","92816","","null","","","null","85","","","","","","","","","","","","","","","",""
"","ISI","","html-keyboard-response","555","531500","0.0-1.0-768.0","0","0","92816","","null","","","null","85","NaN","","","","","","","","","","","","","","",""
"","S2","","html-keyboard-response","556","531762","0.0-1.0-769.0","0","0","92816","","null","","","null","85","","NaN","","","","","","","","","","","","","",""
"","response","","html-keyboard-response","557","532119","0.0-1.0-770.0-0.0","0","0","92816","","352","","","75","85","","","2","85","training","adjacent","GF","7","6","Q.jpg","O.jpg","0","0","1","",""
"","feedback","","html-keyboard-response","558","533131","0.0-1.0-771.0-0.0","0","0","92816","","null","","","null","85","","","","","","","","","","","","","","","",""
"","ITI","","html-keyboard-response","559","534148","0.0-1.0-774.0","0","0","92816","","null","","","null","85","","","","","","","","","","","","","","","NaN",""
"","S1","","html-keyboard-response","560","534411","0.0-1.0-776.0","0","0","92816","","null","","","null","86","","","","","","","","","","","","","","","",""
"","ISI","","html-keyboard-response","561","535428","0.0-1.0-777.0","0","0","92816","","null","","","null","86","NaN","","","","","","","","","","","","","","",""
"","S2","","html-keyboard-response","562","535692","0.0-1.0-778.0","0","0","92816","","null","","","null","86","","NaN","","","","","","","","","","","","","",""
"","response","","html-keyboard-response","563","536326","0.0-1.0-779.0-0.0","0","0","92816","","630","","","75","86","","","2","86","training","adjacent","BA","2","1","P.jpg","M.jpg","0","0","1","",""
"","feedback","","html-keyboard-response","564","537338","0.0-1.0-780.0-0.0","0","0","92816","","null","","","null","86","","","","","","","","","","","","","","","",""
"","ITI","","html-keyboard-response","565","538354","0.0-1.0-783.0","0","0","92816","","null","","","null","86","","","","","","","","","","","","","","","NaN",""
"","S1","","html-keyboard-response","566","538618","0.0-1.0-785.0","0","0","92816","","null","","","null","87","","","","","","","","","","","","","","","",""
"","ISI","","html-keyboard-response","567","539637","0.0-1.0-786.0","0","0","92816","","null","","","null","87","NaN","","","","","","","","","","","","","","",""
"","S2","","html-keyboard-response","568","539898","0.0-1.0-787.0","0","0","92816","","null","","","null","87","","NaN","","","","","","","","","","","","","",""
"","response","","html-keyboard-response","569","540436","0.0-1.0-788.0-0.0","0","0","92816","","533","","","68","87","","","2","87","training","adjacent","DE","4","5","N.jpg","L.jpg","1","1","1","",""
"","feedback","","html-keyboard-response","570","541450","0.0-1.0-789.0-0.0","0","0","92816","","null","","","null","87","","","","","","","","","","","","","","","",""
"","ITI","","html-keyboard-response","571","542466","0.0-1.0-792.0","0","0","92816","","null","","","null","87","","","","","","","","","","","","","","","NaN",""
"","S1","","html-keyboard-response","572","542731","0.0-1.0-794.0","0","0","92816","","null","","","null","88","","","","","","","","","","","","","","","",""
"","ISI","","html-keyboard-response","573","543748","0.0-1.0-795.0","0","0","92816","","null","","","null","88","NaN","","","","","","","","","","","","","","",""
"","S2","","html-keyboard-response","574","544013","0.0-1.0-796.0","0","0","92816","","null","","","null","88","","NaN","","","","","","","","","","","","","",""
"","response","","html-keyboard-response","575","544428","0.0-1.0-797.0-0.0","0","0","92816","","410","","","75","88","","","2","88","training","adjacent","DC","4","3","N.jpg","R.jpg","0","0","1","",""
"","feedback","","html-keyboard-response","576","545444","0.0-1.0-798.0-0.0","0","0","92816","","null","","","null","88","","","","","","","","","","","","","","","",""
"","ITI","","html-keyboard-response","577","546459","0.0-1.0-801.0","0","0","92816","","null","","","null","88","","","","","","","","","","","","","","","NaN",""
"","S1","","html-keyboard-response","578","546724","0.0-1.0-803.0","0","0","92816","","null","","","null","89","","","","","","","","","","","","","","","",""
"","ISI","","html-keyboard-response","579","547738","0.0-1.0-804.0","0","0","92816","","null","","","null","89","NaN","","","","","","","","","","","","","","",""
"","S2","","html-keyboard-response","580","548007","0.0-1.0-805.0","0","0","92816","","null","","","null","89","","NaN","","","","","","","","","","","","","",""
