"success","ttype","start_time","trial_type","trial_index","time_elapsed","internal_node_id","warning","missed_checkup","PID","view_history","rt","responses","repeat_instructions","key_press","index","keypress_isi","keypress_S2","block","trial_num","phase","group_type","pair_type","S1_stim","S2_stim","S1_img","S2_img","S1_chosen","S1_higher","accuracy","keypress_iti","total_bonus_tally"
"true","full_screen","d08042022hr1856","fullscreen","0","2886","0.0-0.0","0","0","89254","","","","","","","","","","","","","","","","","","","","","",""
"","instructions","","instructions","1","644915","0.0-1.0-0.0-0.0","0","0","89254","[{""page_index"":0,""viewing_time"":2253},{""page_index"":1,""viewing_time"":628471},{""page_index"":2,""viewing_time"":8187},{""page_index"":3,""viewing_time"":3112}]","642025","","","","","","","","","","","","","","","","","","","",""
"","comprehension_check","","survey-multi-choice","2","681406","0.0-1.0-0.0-1.0","0","0","89254","","36472","{""Q0"":""True"",""Q1"":""D"",""Q2"":""Only when the screen 'MAKE A CHOICE' is shown"",""Q3"":""Green mark"",""Q4"":""either D or K""}","1","","","","","","","","","","","","","","","","","",""
"","missed_instruction_checkup","","html-keyboard-response","3","684231","0.0-1.0-0.0-2.0-0.0","0","1","89254","","2819","","","32","","","","","","","","","","","","","","","","",""
"","instructions","","instructions","4","694461","0.0-1.0-0.1-0.1","0","0","89254","[{""page_index"":0,""viewing_time"":1664},{""page_index"":1,""viewing_time"":5280},{""page_index"":2,""viewing_time"":1801},{""page_index"":3,""viewing_time"":1481}]","10226","","","","","","","","","","","","","","","","","","","",""
"","comprehension_check","","survey-multi-choice","5","731416","0.0-1.0-0.1-1.1","0","0","89254","","36942","{""Q0"":""True"",""Q1"":""D"",""Q2"":""Once the second image appears and while the screen 'MAKE A CHOICE' is shown"",""Q3"":""Green mark"",""Q4"":""either D or K""}","0","","","","","","","","","","","","","","","","","",""
"","start_exp","","html-keyboard-response","6","1207375","0.0-1.0-1.0","0","0","89254","","475957","","","32","","","","","","","","","","","","","","","","",""
"","S1","","html-keyboard-response","7","1207631","0.0-1.0-2.0","0","0","89254","","null","","","null","0","","","","","","","","","","","","","","","",""
"","ISI","","html-keyboard-response","8","1209634","0.0-1.0-3.0","0","0","89254","","null","","","null","0","NaN","","","","","","","","","","","","","","",""
"","S2","","html-keyboard-response","9","1209888","0.0-1.0-4.0","0","0","89254","","null","","","null","0","","NaN","","","","","","","","","","","","","",""
"","response","","html-keyboard-response","10","1211283","0.0-1.0-5.0-0.0","0","0","89254","","1391","","","68","0","","","1","0","training","adjacent","ED","5","4","Q.jpg","P.jpg","1","0","0","",""
"","feedback","","html-keyboard-response","11","1212288","0.0-1.0-6.0-0.0","0","0","89254","","null","","","null","0","","","","","","","","","","","","","","","",""
"","time_out","","html-keyboard-response","12","1214296","0.0-1.0-8.0-0.0","0","0","89254","","null","","","null","0","","","","","","","","","","","","","","","",""
"","ITI","","html-keyboard-response","13","1215305","0.0-1.0-9.0","0","0","89254","","null","","","null","0","","","","","","","","","","","","","","","NaN",""
"","S1","","html-keyboard-response","14","1215561","0.0-1.0-11.0","0","0","89254","","null","","","null","1","","","","","","","","","","","","","","","",""
"","ISI","","html-keyboard-response","15","1217564","0.0-1.0-12.0","0","0","89254","","null","","","null","1","NaN","","","","","","","","","","","","","","",""
"","S2","","html-keyboard-response","16","1217818","0.0-1.0-13.0","0","0","89254","","null","","","null","1","","NaN","","","","","","","","","","","","","",""
"","response","","html-keyboard-response","17","1218968","0.0-1.0-14.0-0.0","0","0","89254","","1147","","","75","1","","","1","1","training","adjacent","CB","3","2","N.jpg","M.jpg","0","0","1","",""
"","feedback","","html-keyboard-response","18","1219973","0.0-1.0-15.0-0.0","0","0","89254","","null","","","null","1","","","","","","","","","","","","","","","",""
"","ITI","","html-keyboard-response","19","1220979","0.0-1.0-18.0","0","0","89254","","null","","","null","1","","","","","","","","","","","","","","","NaN",""
"","S1","","html-keyboard-response","20","1221233","0.0-1.0-20.0","0","0","89254","","null","","","null","2","","","","","","","","","","","","","","","",""
"","ISI","","html-keyboard-response","21","1223237","0.0-1.0-21.0","0","0","89254","","1849","","","76","2","l","","","","","","","","","","","","","","",""
"","S2","","html-keyboard-response","22","1223495","0.0-1.0-22.0","0","0","89254","","null","","","null","2","","NaN","","","","","","","","","","","","","",""
"","response","","html-keyboard-response","23","1223926","0.0-1.0-23.0-0.0","0","0","89254","","427","","","75","2","","","1","2","training","adjacent","FG","6","7","R.jpg","L.jpg","0","1","0","",""
"","feedback","","html-keyboard-response","24","1224932","0.0-1.0-24.0-0.0","0","0","89254","","null","","","null","2","","","","","","","","","","","","","","","",""
"","time_out","","html-keyboard-response","25","1226937","0.0-1.0-26.0-0.0","0","0","89254","","null","","","null","2","","","","","","","","","","","","","","","",""
"","ITI","","html-keyboard-response","26","1227940","0.0-1.0-27.0","0","0","89254","","null","","","null","2","","","","","","","","","","","","","","","NaN",""
"","S1","","html-keyboard-response","27","1228194","0.0-1.0-29.0","0","0","89254","","null","","","null","3","","","","","","","","","","","","","","","",""
"","ISI","","html-keyboard-response","28","1230198","0.0-1.0-30.0","0","0","89254","","null","","","null","3","NaN","","","","","","","","","","","","","","",""
"","S2","","html-keyboard-response","29","1230453","0.0-1.0-31.0","0","0","89254","","null","","","null","3","","NaN","","","","","","","","","","","","","",""
"","response","","html-keyboard-response","30","1230801","0.0-1.0-32.0-0.0","0","0","89254","","347","","","68","3","","","1","3","training","adjacent","EF","5","6","Q.jpg","R.jpg","1","1","1","",""
"","feedback","","html-keyboard-response","31","1231806","0.0-1.0-33.0-0.0","0","0","89254","","null","","","null","3","","","","","","","","","","","","","","","",""
"","ITI","","html-keyboard-response","32","1232810","0.0-1.0-36.0","0","0","89254","","null","","","null","3","","","","","","","","","","","","","","","NaN",""
"","S1","","html-keyboard-response","33","1233066","0.0-1.0-38.0","0","0","89254","","null","","","null","4","","","","","","","","","","","","","","","",""
"","ISI","","html-keyboard-response","34","1235070","0.0-1.0-39.0","0","0","89254","","null","","","null","4","NaN","","","","","","","","","","","","","","",""
"","S2","","html-keyboard-response","35","1235325","0.0-1.0-40.0","0","0","89254","","null","","","null","4","","NaN","","","","","","","","","","","","","",""
"","response","","html-keyboard-response","36","1235967","0.0-1.0-41.0-0.0","0","0","89254","","639","","","75","4","","","1","4","training","adjacent","EF","5","6","Q.jpg","R.jpg","0","1","0","",""
"","feedback","","html-keyboard-response","37","1236973","0.0-1.0-42.0-0.0","0","0","89254","","null","","","null","4","","","","","","","","","","","","","","","",""
"","time_out","","html-keyboard-response","38","1238978","0.0-1.0-44.0-0.0","0","0","89254","","null","","","null","4","","","","","","","","","","","","","","","",""
"","ITI","","html-keyboard-response","39","1239982","0.0-1.0-45.0","0","0","89254","","null","","","null","4","","","","","","","","","","","","","","","NaN",""
"","S1","","html-keyboard-response","40","1240236","0.0-1.0-47.0","0","0","89254","","null","","","null","5","","","","","","","","","","","","","","","",""
"","ISI","","html-keyboard-response","41","1242240","0.0-1.0-48.0","0","0","89254","","null","","","null","5","NaN","","","","","","","","","","","","","","",""
"","S2","","html-keyboard-response","42","1242495","0.0-1.0-49.0","0","0","89254","","null","","","null","5","","NaN","","","","","","","","","","","","","",""
"","response","","html-keyboard-response","43","1243668","0.0-1.0-50.0-0.0","0","0","89254","","1169","","","75","5","","","1","5","training","adjacent","FG","6","7","R.jpg","L.jpg","0","1","0","",""
"","feedback","","html-keyboard-response","44","1244674","0.0-1.0-51.0-0.0","0","0","89254","","null","","","null","5","","","","","","","","","","","","","","","",""
"","time_out","","html-keyboard-response","45","1246678","0.0-1.0-53.0-0.0","0","0","89254","","null","","","null","5","","","","","","","","","","","","","","","",""
"","ITI","","html-keyboard-response","46","1247682","0.0-1.0-54.0","0","0","89254","","null","","","null","5","","","","","","","","","","","","","","","NaN",""
"","S1","","html-keyboard-response","47","1247936","0.0-1.0-56.0","0","0","89254","","null","","","null","6","","","","","","","","","","","","","","","",""
"","ISI","","html-keyboard-response","48","1249940","0.0-1.0-57.0","0","0","89254","","null","","","null","6","NaN","","","","","","","","","","","","","","",""
"","S2","","html-keyboard-response","49","1250195","0.0-1.0-58.0","0","0","89254","","null","","","null","6","","NaN","","","","","","","","","","","","","",""
"","response","","html-keyboard-response","50","1250596","0.0-1.0-59.0-0.0","0","0","89254","","398","","","68","6","","","1","6","training","adjacent","BA","2","1","M.jpg","O.jpg","1","0","0","",""
"","feedback","","html-keyboard-response","51","1251600","0.0-1.0-60.0-0.0","0","0","89254","","null","","","null","6","","","","","","","","","","","","","","","",""
"","time_out","","html-keyboard-response","52","1253602","0.0-1.0-62.0-0.0","0","0","89254","","null","","","null","6","","","","","","","","","","","","","","","",""
"","ITI","","html-keyboard-response","53","1254606","0.0-1.0-63.0","0","0","89254","","null","","","null","6","","","","","","","","","","","","","","","NaN",""
"","S1","","html-keyboard-response","54","1254861","0.0-1.0-65.0","0","0","89254","","null","","","null","7","","","","","","","","","","","","","","","",""
"","ISI","","html-keyboard-response","55","1256864","0.0-1.0-66.0","0","0","89254","","null","","","null","7","NaN","","","","","","","","","","","","","","",""
"","S2","","html-keyboard-response","56","1257118","0.0-1.0-67.0","0","0","89254","","null","","","null","7","","NaN","","","","","","","","","","","","","",""
"","response","","html-keyboard-response","57","1257763","0.0-1.0-68.0-0.0","0","0","89254","","642","","","75","7","","","1","7","training","adjacent","CD","3","4","N.jpg","P.jpg","0","1","0","",""
"","feedback","","html-keyboard-response","58","1258767","0.0-1.0-69.0-0.0","0","0","89254","","null","","","null","7","","","","","","","","","","","","","","","",""
"","time_out","","html-keyboard-response","59","1260770","0.0-1.0-71.0-0.0","0","0","89254","","null","","","null","7","","","","","","","","","","","","","","","",""
"","ITI","","html-keyboard-response","60","1261774","0.0-1.0-72.0","0","0","89254","","null","","","null","7","","","","","","","","","","","","","","","NaN",""
"","S1","","html-keyboard-response","61","1262029","0.0-1.0-74.0","0","0","89254","","null","","","null","8","","","","","","","","","","","","","","","",""
"","ISI","","html-keyboard-response","62","1264038","0.0-1.0-75.0","0","0","89254","","null","","","null","8","NaN","","","","","","","","","","","","","","",""
"","S2","","html-keyboard-response","63","1264295","0.0-1.0-76.0","0","0","89254","","null","","","null","8","","NaN","","","","","","","","","","","","","",""
"","response","","html-keyboard-response","64","1265045","0.0-1.0-77.0-0.0","0","0","89254","","747","","","75","8","","","1","8","training","adjacent","CD","3","4","N.jpg","P.jpg","0","1","0","",""
"","feedback","","html-keyboard-response","65","1266057","0.0-1.0-78.0-0.0","0","0","89254","","null","","","null","8","","","","","","","","","","","","","","","",""
"","time_out","","html-keyboard-response","66","1268061","0.0-1.0-80.0-0.0","0","0","89254","","null","","","null","8","","","","","","","","","","","","","","","",""
"","ITI","","html-keyboard-response","67","1269065","0.0-1.0-81.0","0","0","89254","","null","","","null","8","","","","","","","","","","","","","","","NaN",""
"","S1","","html-keyboard-response","68","1269319","0.0-1.0-83.0","0","0","89254","","null","","","null","9","","","","","","","","","","","","","","","",""
"","ISI","","html-keyboard-response","69","1271323","0.0-1.0-84.0","0","0","89254","","null","","","null","9","NaN","","","","","","","","","","","","","","",""
"","S2","","html-keyboard-response","70","1271586","0.0-1.0-85.0","0","0","89254","","null","","","null","9","","NaN","","","","","","","","","","","","","",""
"","response","","html-keyboard-response","71","1272147","0.0-1.0-86.0-0.0","0","0","89254","","559","","","75","9","","","1","9","training","adjacent","CB","3","2","N.jpg","M.jpg","0","0","1","",""
"","feedback","","html-keyboard-response","72","1273153","0.0-1.0-87.0-0.0","0","0","89254","","null","","","null","9","","","","","","","","","","","","","","","",""
"","ITI","","html-keyboard-response","73","1274159","0.0-1.0-90.0","0","0","89254","","null","","","null","9","","","","","","","","","","","","","","","NaN",""
"","S1","","html-keyboard-response","74","1274413","0.0-1.0-92.0","0","0","89254","","null","","","null","10","","","","","","","","","","","","","","","",""
"","ISI","","html-keyboard-response","75","1276417","0.0-1.0-93.0","0","0","89254","","null","","","null","10","NaN","","","","","","","","","","","","","","",""
"","S2","","html-keyboard-response","76","1276672","0.0-1.0-94.0","0","0","89254","","null","","","null","10","","NaN","","","","","","","","","","","","","",""
"","response","","html-keyboard-response","77","1277247","0.0-1.0-95.0-0.0","0","0","89254","","571","","","75","10","","","1","10","training","adjacent","FE","6","5","R.jpg","Q.jpg","0","0","1","",""
"","feedback","","html-keyboard-response","78","1278252","0.0-1.0-96.0-0.0","0","0","89254","","null","","","null","10","","","","","","","","","","","","","","","",""
"","ITI","","html-keyboard-response","79","1279257","0.0-1.0-99.0","0","0","89254","","null","","","null","10","","","","","","","","","","","","","","","NaN",""
"","S1","","html-keyboard-response","80","1279511","0.0-1.0-101.0","0","0","89254","","null","","","null","11","","","","","","","","","","","","","","","",""
"","ISI","","html-keyboard-response","81","1281515","0.0-1.0-102.0","0","0","89254","","null","","","null","11","NaN","","","","","","","","","","","","","","",""
"","S2","","html-keyboard-response","82","1281769","0.0-1.0-103.0","0","0","89254","","null","","","null","11","","NaN","","","","","","","","","","","","","",""
"","response","","html-keyboard-response","83","1283198","0.0-1.0-104.0-0.0","0","0","89254","","1426","","","68","11","","","1","11","training","adjacent","GF","7","6","L.jpg","R.jpg","1","0","0","",""
"","feedback","","html-keyboard-response","84","1284203","0.0-1.0-105.0-0.0","0","0","89254","","null","","","null","11","","","","","","","","","","","","","","","",""
"","time_out","","html-keyboard-response","85","1286208","0.0-1.0-107.0-0.0","0","0","89254","","null","","","null","11","","","","","","","","","","","","","","","",""
"","ITI","","html-keyboard-response","86","1287212","0.0-1.0-108.0","0","0","89254","","null","","","null","11","","","","","","","","","","","","","","","NaN",""
"","S1","","html-keyboard-response","87","1287466","0.0-1.0-110.0","0","0","89254","","null","","","null","12","","","","","","","","","","","","","","","",""
"","ISI","","html-keyboard-response","88","1289470","0.0-1.0-111.0","0","0","89254","","396","","","75","12","k","","","","","","","","","","","","","","",""
"","S2","","html-keyboard-response","89","1289601","0.0-1.0-112.0","0","0","89254","","128","","","75","12","","k","1","12","training","adjacent","BC","2","3","M.jpg","N.jpg","0","1","0","",""
"","feedback","","html-keyboard-response","90","1290604","0.0-1.0-114.0-0.0","0","0","89254","","null","","","null","12","","","","","","","","","","","","","","","",""
"","time_out","","html-keyboard-response","91","1292607","0.0-1.0-116.0-0.0","0","0","89254","","null","","","null","12","","","","","","","","","","","","","","","",""
"","ITI","","html-keyboard-response","92","1293611","0.0-1.0-117.0","0","0","89254","","null","","","null","12","","","","","","","","","","","","","","","NaN",""
"","S1","","html-keyboard-response","93","1293865","0.0-1.0-119.0","0","0","89254","","null","","","null","13","","","","","","","","","","","","","","","",""
"","ISI","","html-keyboard-response","94","1295869","0.0-1.0-120.0","0","0","89254","","null","","","null","13","NaN","","","","","","","","","","","","","","",""
"","S2","","html-keyboard-response","95","1296124","0.0-1.0-121.0","0","0","89254","","null","","","null","13","","NaN","","","","","","","","","","","","","",""
"","response","","html-keyboard-response","96","1297653","0.0-1.0-122.0-0.0","0","0","89254","","1528","","","68","13","","","1","13","training","adjacent","DC","4","3","P.jpg","N.jpg","1","0","0","",""
"","feedback","","html-keyboard-response","97","1298657","0.0-1.0-123.0-0.0","0","0","89254","","null","","","null","13","","","","","","","","","","","","","","","",""
"","time_out","","html-keyboard-response","98","1300666","0.0-1.0-125.0-0.0","0","0","89254","","null","","","null","13","","","","","","","","","","","","","","","",""
"","ITI","","html-keyboard-response","99","1301671","0.0-1.0-126.0","0","0","89254","","null","","","null","13","","","","","","","","","","","","","","","NaN",""
"","S1","","html-keyboard-response","100","1301925","0.0-1.0-128.0","0","0","89254","","null","","","null","14","","","","","","","","","","","","","","","",""
"","ISI","","html-keyboard-response","101","1303929","0.0-1.0-129.0","0","0","89254","","null","","","null","14","NaN","","","","","","","","","","","","","","",""
"","S2","","html-keyboard-response","102","1304184","0.0-1.0-130.0","0","0","89254","","null","","","null","14","","NaN","","","","","","","","","","","","","",""
"","response","","html-keyboard-response","103","1305686","0.0-1.0-131.0-0.0","0","0","89254","","1498","","","68","14","","","1","14","training","adjacent","ED","5","4","Q.jpg","P.jpg","1","0","0","",""
"","feedback","","html-keyboard-response","104","1306690","0.0-1.0-132.0-0.0","0","0","89254","","null","","","null","14","","","","","","","","","","","","","","","",""
"","time_out","","html-keyboard-response","105","1308694","0.0-1.0-134.0-0.0","0","0","89254","","null","","","null","14","","","","","","","","","","","","","","","",""
"","ITI","","html-keyboard-response","106","1309697","0.0-1.0-135.0","0","0","89254","","null","","","null","14","","","","","","","","","","","","","","","NaN",""
"","S1","","html-keyboard-response","107","1309951","0.0-1.0-137.0","0","0","89254","","null","","","null","15","","","","","","","","","","","","","","","",""
"","ISI","","html-keyboard-response","108","1311954","0.0-1.0-138.0","0","0","89254","","null","","","null","15","NaN","","","","","","","","","","","","","","",""
"","S2","","html-keyboard-response","109","1312208","0.0-1.0-139.0","0","0","89254","","null","","","null","15","","NaN","","","","","","","","","","","","","",""
"","response","","html-keyboard-response","110","1313227","0.0-1.0-140.0-0.0","0","0","89254","","1015","","","75","15","","","1","15","training","adjacent","FG","6","7","R.jpg","L.jpg","0","1","0","",""
"","feedback","","html-keyboard-response","111","1314233","0.0-1.0-141.0-0.0","0","0","89254","","null","","","null","15","","","","","","","","","","","","","","","",""
"","time_out","","html-keyboard-response","112","1316237","0.0-1.0-143.0-0.0","0","0","89254","","null","","","null","15","","","","","","","","","","","","","","","",""
"","ITI","","html-keyboard-response","113","1317241","0.0-1.0-144.0","0","0","89254","","null","","","null","15","","","","","","","","","","","","","","","NaN",""
"","S1","","html-keyboard-response","114","1317495","0.0-1.0-146.0","0","0","89254","","null","","","null","16","","","","","","","","","","","","","","","",""
"","ISI","","html-keyboard-response","115","1319499","0.0-1.0-147.0","0","0","89254","","null","","","null","16","NaN","","","","","","","","","","","","","","",""
"","S2","","html-keyboard-response","116","1319753","0.0-1.0-148.0","0","0","89254","","null","","","null","16","","NaN","","","","","","","","","","","","","",""
"","response","","html-keyboard-response","117","1321027","0.0-1.0-149.0-0.0","0","0","89254","","1271","","","68","16","","","1","16","training","adjacent","DE","4","5","P.jpg","Q.jpg","1","1","1","",""
"","feedback","","html-keyboard-response","118","1322032","0.0-1.0-150.0-0.0","0","0","89254","","null","","","null","16","","","","","","","","","","","","","","","",""
"","ITI","","html-keyboard-response","119","1323036","0.0-1.0-153.0","0","0","89254","","null","","","null","16","","","","","","","","","","","","","","","NaN",""
"","S1","","html-keyboard-response","120","1323293","0.0-1.0-155.0","0","0","89254","","null","","","null","17","","","","","","","","","","","","","","","",""
"","ISI","","html-keyboard-response","121","1325298","0.0-1.0-156.0","0","0","89254","","null","","","null","17","NaN","","","","","","","","","","","","","","",""
"","S2","","html-keyboard-response","122","1325553","0.0-1.0-157.0","0","0","89254","","null","","","null","17","","NaN","","","","","","","","","","","","","",""
"","response","","html-keyboard-response","123","1326865","0.0-1.0-158.0-0.0","0","0","89254","","1310","","","75","17","","","1","17","training","adjacent","ED","5","4","Q.jpg","P.jpg","0","0","1","",""
"","feedback","","html-keyboard-response","124","1327869","0.0-1.0-159.0-0.0","0","0","89254","","null","","","null","17","","","","","","","","","","","","","","","",""
"","ITI","","html-keyboard-response","125","1328873","0.0-1.0-162.0","0","0","89254","","null","","","null","17","","","","","","","","","","","","","","","NaN",""
"","S1","","html-keyboard-response","126","1329128","0.0-1.0-164.0","0","0","89254","","null","","","null","18","","","","","","","","","","","","","","","",""
"","ISI","","html-keyboard-response","127","1331131","0.0-1.0-165.0","0","0","89254","","null","","","null","18","NaN","","","","","","","","","","","","","","",""
"","S2","","html-keyboard-response","128","1331384","0.0-1.0-166.0","0","0","89254","","null","","","null","18","","NaN","","","","","","","","","","","","","",""
"","response","","html-keyboard-response","129","1332865","0.0-1.0-167.0-0.0","0","0","89254","","1479","","","68","18","","","1","18","training","adjacent","DE","4","5","P.jpg","Q.jpg","1","1","1","",""
"","feedback","","html-keyboard-response","130","1333869","0.0-1.0-168.0-0.0","0","0","89254","","null","","","null","18","","","","","","","","","","","","","","","",""
"","ITI","","html-keyboard-response","131","1334874","0.0-1.0-171.0","0","0","89254","","null","","","null","18","","","","","","","","","","","","","","","NaN",""
"","S1","","html-keyboard-response","132","1335133","0.0-1.0-173.0","0","0","89254","","null","","","null","19","","","","","","","","","","","","","","","",""
"","ISI","","html-keyboard-response","133","1337138","0.0-1.0-174.0","0","0","89254","","null","","","null","19","NaN","","","","","","","","","","","","","","",""
"","S2","","html-keyboard-response","134","1337392","0.0-1.0-175.0","0","0","89254","","null","","","null","19","","NaN","","","","","","","","","","","","","",""
"","response","","html-keyboard-response","135","1339146","0.0-1.0-176.0-0.0","0","0","89254","","null","","","null","19","","","1","19","training","adjacent","GF","7","6","L.jpg","R.jpg","NaN","0","0","",""
"","too_slow_prompt","","html-keyboard-response","136","1340153","0.0-1.0-178.0-0.0","1","0","89254","","null","","","null","","","","","","","","","","","","","","","","",""
"","time_out","","html-keyboard-response","137","1342159","0.0-1.0-179.0-0.0","0","0","89254","","null","","","null","19","","","","","","","","","","","","","","","",""
"","ITI","","html-keyboard-response","138","1343163","0.0-1.0-180.0","0","0","89254","","null","","","null","19","","","","","","","","","","","","","","","NaN",""
"","S1","","html-keyboard-response","139","1343417","0.0-1.0-182.0","0","0","89254","","null","","","null","20","","","","","","","","","","","","","","","",""
"","ISI","","html-keyboard-response","140","1345423","0.0-1.0-183.0","0","0","89254","","null","","","null","20","NaN","","","","","","","","","","","","","","",""
"","S2","","html-keyboard-response","141","1345677","0.0-1.0-184.0","0","0","89254","","null","","","null","20","","NaN","","","","","","","","","","","","","",""
"","response","","html-keyboard-response","142","1345967","0.0-1.0-185.0-0.0","0","0","89254","","286","","","75","20","","","1","20","training","adjacent","CB","3","2","N.jpg","M.jpg","0","0","1","",""
"","feedback","","html-keyboard-response","143","1346972","0.0-1.0-186.0-0.0","0","0","89254","","null","","","null","20","","","","","","","","","","","","","","","",""
"","ITI","","html-keyboard-response","144","1347977","0.0-1.0-189.0","0","0","89254","","null","","","null","20","","","","","","","","","","","","","","","NaN",""
"","S1","","html-keyboard-response","145","1348232","0.0-1.0-191.0","0","0","89254","","null","","","null","21","","","","","","","","","","","","","","","",""
"","ISI","","html-keyboard-response","146","1350236","0.0-1.0-192.0","0","0","89254","","null","","","null","21","NaN","","","","","","","","","","","","","","",""
"","S2","","html-keyboard-response","147","1350491","0.0-1.0-193.0","0","0","89254","","null","","","null","21","","NaN","","","","","","","","","","","","","",""
"","response","","html-keyboard-response","148","1352147","0.0-1.0-194.0-0.0","0","0","89254","","1653","","","68","21","","","1","21","training","adjacent","CD","3","4","N.jpg","P.jpg","1","1","1","",""
"","feedback","","html-keyboard-response","149","1353152","0.0-1.0-195.0-0.0","0","0","89254","","null","","","null","21","","","","","","","","","","","","","","","",""
"","ITI","","html-keyboard-response","150","1354157","0.0-1.0-198.0","0","0","89254","","null","","","null","21","","","","","","","","","","","","","","","NaN",""
"","S1","","html-keyboard-response","151","1354412","0.0-1.0-200.0","0","0","89254","","null","","","null","22","","","","","","","","","","","","","","","",""
"","ISI","","html-keyboard-response","152","1356416","0.0-1.0-201.0","0","0","89254","","null","","","null","22","NaN","","","","","","","","","","","","","","",""
"","S2","","html-keyboard-response","153","1356670","0.0-1.0-202.0","0","0","89254","","null","","","null","22","","NaN","","","","","","","","","","","","","",""
"","response","","html-keyboard-response","154","1357020","0.0-1.0-203.0-0.0","0","0","89254","","347","","","68","22","","","1","22","training","adjacent","DC","4","3","P.jpg","N.jpg","1","0","0","",""
"","feedback","","html-keyboard-response","155","1358025","0.0-1.0-204.0-0.0","0","0","89254","","null","","","null","22","","","","","","","","","","","","","","","",""
"","time_out","","html-keyboard-response","156","1360030","0.0-1.0-206.0-0.0","0","0","89254","","null","","","null","22","","","","","","","","","","","","","","","",""
"","ITI","","html-keyboard-response","157","1361034","0.0-1.0-207.0","0","0","89254","","null","","","null","22","","","","","","","","","","","","","","","NaN",""
"","S1","","html-keyboard-response","158","1361288","0.0-1.0-209.0","0","0","89254","","null","","","null","23","","","","","","","","","","","","","","","",""
"","ISI","","html-keyboard-response","159","1363300","0.0-1.0-210.0","0","0","89254","","936","","","68","23","d","","","","","","","","","","","","","","",""
"","S2","","html-keyboard-response","160","1363366","0.0-1.0-211.0","0","0","89254","","62","","","68","23","","d","1","23","training","adjacent","CD","3","4","N.jpg","P.jpg","1","1","1","",""
"","feedback","","html-keyboard-response","161","1364371","0.0-1.0-213.0-0.0","0","0","89254","","null","","","null","23","","","","","","","","","","","","","","","",""
"","ITI","","html-keyboard-response","162","1365376","0.0-1.0-216.0","0","0","89254","","null","","","null","23","","","","","","","","","","","","","","","NaN",""
"","S1","","html-keyboard-response","163","1365629","0.0-1.0-218.0","0","0","89254","","null","","","null","24","","","","","","","","","","","","","","","",""
"","ISI","","html-keyboard-response","164","1367632","0.0-1.0-219.0","0","0","89254","","null","","","null","24","NaN","","","","","","","","","","","","","","",""
"","S2","","html-keyboard-response","165","1367885","0.0-1.0-220.0","0","0","89254","","null","","","null","24","","NaN","","","","","","","","","","","","","",""
"","response","","html-keyboard-response","166","1368576","0.0-1.0-221.0-0.0","0","0","89254","","687","","","75","24","","","1","24","training","adjacent","GF","7","6","L.jpg","R.jpg","0","0","1","",""
"","feedback","","html-keyboard-response","167","1369584","0.0-1.0-222.0-0.0","0","0","89254","","null","","","null","24","","","","","","","","","","","","","","","",""
"","ITI","","html-keyboard-response","168","1370594","0.0-1.0-225.0","0","0","89254","","null","","","null","24","","","","","","","","","","","","","","","NaN",""
"","S1","","html-keyboard-response","169","1370846","0.0-1.0-227.0","0","0","89254","","null","","","null","25","","","","","","","","","","","","","","","",""
"","ISI","","html-keyboard-response","170","1372850","0.0-1.0-228.0","0","0","89254","","null","","","null","25","NaN","","","","","","","","","","","","","","",""
"","S2","","html-keyboard-response","171","1373105","0.0-1.0-229.0","0","0","89254","","null","","","null","25","","NaN","","","","","","","","","","","","","",""
"","response","","html-keyboard-response","172","1374858","0.0-1.0-230.0-0.0","0","0","89254","","null","","","null","25","","","1","25","training","adjacent","AB","1","2","O.jpg","M.jpg","NaN","1","0","",""
"","too_slow_prompt","","html-keyboard-response","173","1375863","0.0-1.0-232.0-0.0","1","0","89254","","null","","","null","","","","","","","","","","","","","","","","",""
"","time_out","","html-keyboard-response","174","1377866","0.0-1.0-233.0-0.0","0","0","89254","","null","","","null","25","","","","","","","","","","","","","","","",""
"","ITI","","html-keyboard-response","175","1378870","0.0-1.0-234.0","0","0","89254","","305","","","68","25","","","","","","","","","","","","","","","d",""
"","S1","","html-keyboard-response","176","1379125","0.0-1.0-236.0","0","0","89254","","null","","","null","26","","","","","","","","","","","","","","","",""
"","ISI","","html-keyboard-response","177","1381128","0.0-1.0-237.0","0","0","89254","","161","","","68","26","d","","","","","","","","","","","","","","",""
"","S2","","html-keyboard-response","178","1381381","0.0-1.0-238.0","0","0","89254","","null","","","null","26","","NaN","","","","","","","","","","","","","",""
"","response","","html-keyboard-response","179","1381867","0.0-1.0-239.0-0.0","0","0","89254","","482","","","75","26","","","1","26","training","adjacent","EF","5","6","Q.jpg","R.jpg","0","1","0","",""
"","feedback","","html-keyboard-response","180","1382872","0.0-1.0-240.0-0.0","0","0","89254","","null","","","null","26","","","","","","","","","","","","","","","",""
"","time_out","","html-keyboard-response","181","1384894","0.0-1.0-242.0-0.0","0","0","89254","","null","","","null","26","","","","","","","","","","","","","","","",""
"","ITI","","html-keyboard-response","182","1385899","0.0-1.0-243.0","0","0","89254","","null","","","null","26","","","","","","","","","","","","","","","NaN",""
"","S1","","html-keyboard-response","183","1386153","0.0-1.0-245.0","0","0","89254","","null","","","null","27","","","","","","","","","","","","","","","",""
"","ISI","","html-keyboard-response","184","1388159","0.0-1.0-246.0","0","0","89254","","null","","","null","27","NaN","","","","","","","","","","","","","","",""
"","S2","","html-keyboard-response","185","1388413","0.0-1.0-247.0","0","0","89254","","null","","","null","27","","NaN","","","","","","","","","","","","","",""
"","response","","html-keyboard-response","186","1388747","0.0-1.0-248.0-0.0","0","0","89254","","331","","","75","27","","","1","27","training","adjacent","BA","2","1","M.jpg","O.jpg","0","0","1","",""
"","feedback","","html-keyboard-response","187","1389752","0.0-1.0-249.0-0.0","0","0","89254","","null","","","null","27","","","","","","","","","","","","","","","",""
"","ITI","","html-keyboard-response","188","1390756","0.0-1.0-252.0","0","0","89254","","null","","","null","27","","","","","","","","","","","","","","","NaN",""
"","S1","","html-keyboard-response","189","1391011","0.0-1.0-254.0","0","0","89254","","null","","","null","28","","","","","","","","","","","","","","","",""
"","ISI","","html-keyboard-response","190","1393014","0.0-1.0-255.0","0","0","89254","","null","","","null","28","NaN","","","","","","","","","","","","","","",""
"","S2","","html-keyboard-response","191","1393270","0.0-1.0-256.0","0","0","89254","","null","","","null","28","","NaN","","","","","","","","","","","","","",""
"","response","","html-keyboard-response","192","1394092","0.0-1.0-257.0-0.0","0","0","89254","","818","","","75","28","","","1","28","training","adjacent","BA","2","1","M.jpg","O.jpg","0","0","1","",""
"","feedback","","html-keyboard-response","193","1395097","0.0-1.0-258.0-0.0","0","0","89254","","null","","","null","28","","","","","","","","","","","","","","","",""
"","ITI","","html-keyboard-response","194","1396101","0.0-1.0-261.0","0","0","89254","","null","","","null","28","","","","","","","","","","","","","","","NaN",""
"","S1","","html-keyboard-response","195","1396355","0.0-1.0-263.0","0","0","89254","","null","","","null","29","","","","","","","","","","","","","","","",""
"","ISI","","html-keyboard-response","196","1398359","0.0-1.0-264.0","0","0","89254","","null","","","null","29","NaN","","","","","","","","","","","","","","",""
"","S2","","html-keyboard-response","197","1398613","0.0-1.0-265.0","0","0","89254","","null","","","null","29","","NaN","","","","","","","","","","","","","",""
"","response","","html-keyboard-response","198","1398945","0.0-1.0-266.0-0.0","0","0","89254","","329","","","68","29","","","1","29","training","adjacent","DE","4","5","P.jpg","Q.jpg","1","1","1","",""
"","feedback","","html-keyboard-response","199","1399950","0.0-1.0-267.0-0.0","0","0","89254","","null","","","null","29","","","","","","","","","","","","","","","",""
"","ITI","","html-keyboard-response","200","1400954","0.0-1.0-270.0","0","0","89254","","null","","","null","29","","","","","","","","","","","","","","","NaN",""
"","S1","","html-keyboard-response","201","1401210","0.0-1.0-272.0","0","0","89254","","null","","","null","30","","","","","","","","","","","","","","","",""
"","ISI","","html-keyboard-response","202","1403213","0.0-1.0-273.0","0","0","89254","","null","","","null","30","NaN","","","","","","","","","","","","","","",""
"","S2","","html-keyboard-response","203","1403468","0.0-1.0-274.0","0","0","89254","","null","","","null","30","","NaN","","","","","","","","","","","","","",""
"","response","","html-keyboard-response","204","1405146","0.0-1.0-275.0-0.0","0","0","89254","","1673","","","75","30","","","1","30","training","adjacent","FE","6","5","R.jpg","Q.jpg","0","0","1","",""
"","feedback","","html-keyboard-response","205","1406151","0.0-1.0-276.0-0.0","0","0","89254","","null","","","null","30","","","","","","","","","","","","","","","",""
"","ITI","","html-keyboard-response","206","1407155","0.0-1.0-279.0","0","0","89254","","null","","","null","30","","","","","","","","","","","","","","","NaN",""
"","S1","","html-keyboard-response","207","1407410","0.0-1.0-281.0","0","0","89254","","null","","","null","31","","","","","","","","","","","","","","","",""
"","ISI","","html-keyboard-response","208","1409415","0.0-1.0-282.0","0","0","89254","","null","","","null","31","NaN","","","","","","","","","","","","","","",""
"","S2","","html-keyboard-response","209","1409668","0.0-1.0-283.0","0","0","89254","","null","","","null","31","","NaN","","","","","","","","","","","","","",""
"","response","","html-keyboard-response","210","1410485","0.0-1.0-284.0-0.0","0","0","89254","","813","","","68","31","","","1","31","training","adjacent","DE","4","5","P.jpg","Q.jpg","1","1","1","",""
"","feedback","","html-keyboard-response","211","1411490","0.0-1.0-285.0-0.0","0","0","89254","","null","","","null","31","","","","","","","","","","","","","","","",""
"","ITI","","html-keyboard-response","212","1412496","0.0-1.0-288.0","0","0","89254","","null","","","null","31","","","","","","","","","","","","","","","NaN",""
"","S1","","html-keyboard-response","213","1412749","0.0-1.0-290.0","0","0","89254","","null","","","null","32","","","","","","","","","","","","","","","",""
"","ISI","","html-keyboard-response","214","1414753","0.0-1.0-291.0","0","0","89254","","null","","","null","32","NaN","","","","","","","","","","","","","","",""
"","S2","","html-keyboard-response","215","1415007","0.0-1.0-292.0","0","0","89254","","null","","","null","32","","NaN","","","","","","","","","","","","","",""
"","response","","html-keyboard-response","216","1415375","0.0-1.0-293.0-0.0","0","0","89254","","363","","","75","32","","","1","32","training","adjacent","CB","3","2","N.jpg","M.jpg","0","0","1","",""
"","feedback","","html-keyboard-response","217","1416379","0.0-1.0-294.0-0.0","0","0","89254","","null","","","null","32","","","","","","","","","","","","","","","",""
"","ITI","","html-keyboard-response","218","1417384","0.0-1.0-297.0","0","0","89254","","null","","","null","32","","","","","","","","","","","","","","","NaN",""
"","S1","","html-keyboard-response","219","1417641","0.0-1.0-299.0","0","0","89254","","null","","","null","33","","","","","","","","","","","","","","","",""
"","ISI","","html-keyboard-response","220","1419644","0.0-1.0-300.0","0","0","89254","","null","","","null","33","NaN","","","","","","","","","","","","","","",""
"","S2","","html-keyboard-response","221","1419899","0.0-1.0-301.0","0","0","89254","","null","","","null","33","","NaN","","","","","","","","","","","","","",""
"","response","","html-keyboard-response","222","1420296","0.0-1.0-302.0-0.0","0","0","89254","","393","","","75","33","","","1","33","training","adjacent","EF","5","6","Q.jpg","R.jpg","0","1","0","",""
"","feedback","","html-keyboard-response","223","1421302","0.0-1.0-303.0-0.0","0","0","89254","","null","","","null","33","","","","","","","","","","","","","","","",""
"","time_out","","html-keyboard-response","224","1423305","0.0-1.0-305.0-0.0","0","0","89254","","null","","","null","33","","","","","","","","","","","","","","","",""
"","ITI","","html-keyboard-response","225","1424311","0.0-1.0-306.0","0","0","89254","","null","","","null","33","","","","","","","","","","","","","","","NaN",""
"","S1","","html-keyboard-response","226","1424565","0.0-1.0-308.0","0","0","89254","","null","","","null","34","","","","","","","","","","","","","","","",""
"","ISI","","html-keyboard-response","227","1426572","0.0-1.0-309.0","0","0","89254","","null","","","null","34","NaN","","","","","","","","","","","","","","",""
"","S2","","html-keyboard-response","228","1426829","0.0-1.0-310.0","0","0","89254","","null","","","null","34","","NaN","","","","","","","","","","","","","",""
"","response","","html-keyboard-response","229","1427223","0.0-1.0-311.0-0.0","0","0","89254","","392","","","68","34","","","1","34","training","adjacent","AB","1","2","O.jpg","M.jpg","1","1","1","",""
"","feedback","","html-keyboard-response","230","1428228","0.0-1.0-312.0-0.0","0","0","89254","","null","","","null","34","","","","","","","","","","","","","","","",""
"","ITI","","html-keyboard-response","231","1429233","0.0-1.0-315.0","0","0","89254","","null","","","null","34","","","","","","","","","","","","","","","NaN",""
"","S1","","html-keyboard-response","232","1429486","0.0-1.0-317.0","0","0","89254","","null","","","null","35","","","","","","","","","","","","","","","",""
"","ISI","","html-keyboard-response","233","1431491","0.0-1.0-318.0","0","0","89254","","null","","","null","35","NaN","","","","","","","","","","","","","","",""
"","S2","","html-keyboard-response","234","1431744","0.0-1.0-319.0","0","0","89254","","null","","","null","35","","NaN","","","","","","","","","","","","","",""
"","response","","html-keyboard-response","235","1432485","0.0-1.0-320.0-0.0","0","0","89254","","737","","","68","35","","","1","35","training","adjacent","BC","2","3","M.jpg","N.jpg","1","1","1","",""
"","feedback","","html-keyboard-response","236","1433489","0.0-1.0-321.0-0.0","0","0","89254","","null","","","null","35","","","","","","","","","","","","","","","",""
"","ITI","","html-keyboard-response","237","1434496","0.0-1.0-324.0","0","0","89254","","null","","","null","35","","","","","","","","","","","","","","","NaN",""
"","S1","","html-keyboard-response","238","1434750","0.0-1.0-326.0","0","0","89254","","null","","","null","36","","","","","","","","","","","","","","","",""
"","ISI","","html-keyboard-response","239","1436752","0.0-1.0-327.0","0","0","89254","","null","","","null","36","NaN","","","","","","","","","","","","","","",""
"","S2","","html-keyboard-response","240","1436925","0.0-1.0-328.0","0","0","89254","","170","","","75","36","","k","1","36","training","adjacent","BC","2","3","M.jpg","N.jpg","0","1","0","",""
"","feedback","","html-keyboard-response","241","1437931","0.0-1.0-330.0-0.0","0","0","89254","","null","","","null","36","","","","","","","","","","","","","","","",""
"","time_out","","html-keyboard-response","242","1439935","0.0-1.0-332.0-0.0","0","0","89254","","null","","","null","36","","","","","","","","","","","","","","","",""
"","ITI","","html-keyboard-response","243","1440939","0.0-1.0-333.0","0","0","89254","","909","","","75","36","","","","","","","","","","","","","","","k",""
"","S1","","html-keyboard-response","244","1441192","0.0-1.0-335.0","0","0","89254","","null","","","null","37","","","","","","","","","","","","","","","",""
"","ISI","","html-keyboard-response","245","1443197","0.0-1.0-336.0","0","0","89254","","null","","","null","37","NaN","","","","","","","","","","","","","","",""
"","S2","","html-keyboard-response","246","1443452","0.0-1.0-337.0","0","0","89254","","null","","","null","37","","NaN","","","","","","","","","","","","","",""
"","response","","html-keyboard-response","247","1443927","0.0-1.0-338.0-0.0","0","0","89254","","471","","","68","37","","","1","37","training","adjacent","BC","2","3","M.jpg","N.jpg","1","1","1","",""
"","feedback","","html-keyboard-response","248","1444931","0.0-1.0-339.0-0.0","0","0","89254","","null","","","null","37","","","","","","","","","","","","","","","",""
"","ITI","","html-keyboard-response","249","1445935","0.0-1.0-342.0","0","0","89254","","null","","","null","37","","","","","","","","","","","","","","","NaN",""
"","S1","","html-keyboard-response","250","1446191","0.0-1.0-344.0","0","0","89254","","null","","","null","38","","","","","","","","","","","","","","","",""
"","ISI","","html-keyboard-response","251","1448194","0.0-1.0-345.0","0","0","89254","","1813","","","75","38","k","","","","","","","","","","","","","","",""
"","S2","","html-keyboard-response","252","1448448","0.0-1.0-346.0","0","0","89254","","null","","","null","38","","NaN","","","","","","","","","","","","","",""
"","response","","html-keyboard-response","253","1448847","0.0-1.0-347.0-0.0","0","0","89254","","395","","","75","38","","","1","38","training","adjacent","GF","7","6","L.jpg","R.jpg","0","0","1","",""
"","feedback","","html-keyboard-response","254","1449851","0.0-1.0-348.0-0.0","0","0","89254","","null","","","null","38","","","","","","","","","","","","","","","",""
"","ITI","","html-keyboard-response","255","1450855","0.0-1.0-351.0","0","0","89254","","null","","","null","38","","","","","","","","","","","","","","","NaN",""
"","S1","","html-keyboard-response","256","1451111","0.0-1.0-353.0","0","0","89254","","null","","","null","39","","","","","","","","","","","","","","","",""
"","ISI","","html-keyboard-response","257","1453116","0.0-1.0-354.0","0","0","89254","","933","","","68","39","d","","","","","","","","","","","","","","",""
"","S2","","html-keyboard-response","258","1453256","0.0-1.0-355.0","0","0","89254","","136","","","68","39","","d","1","39","training","adjacent","AB","1","2","O.jpg","M.jpg","1","1","1","",""
"","feedback","","html-keyboard-response","259","1454261","0.0-1.0-357.0-0.0","0","0","89254","","null","","","null","39","","","","","","","","","","","","","","","",""
"","ITI","","html-keyboard-response","260","1455265","0.0-1.0-360.0","0","0","89254","","null","","","null","39","","","","","","","","","","","","","","","NaN",""
"","S1","","html-keyboard-response","261","1455519","0.0-1.0-362.0","0","0","89254","","null","","","null","40","","","","","","","","","","","","","","","",""
"","ISI","","html-keyboard-response","262","1457524","0.0-1.0-363.0","0","0","89254","","null","","","null","40","NaN","","","","","","","","","","","","","","",""
"","S2","","html-keyboard-response","263","1457780","0.0-1.0-364.0","0","0","89254","","null","","","null","40","","NaN","","","","","","","","","","","","","",""
"","response","","html-keyboard-response","264","1458206","0.0-1.0-365.0-0.0","0","0","89254","","423","","","75","40","","","1","40","training","adjacent","BA","2","1","M.jpg","O.jpg","0","0","1","",""
"","feedback","","html-keyboard-response","265","1459210","0.0-1.0-366.0-0.0","0","0","89254","","null","","","null","40","","","","","","","","","","","","","","","",""
"","ITI","","html-keyboard-response","266","1460214","0.0-1.0-369.0","0","0","89254","","null","","","null","40","","","","","","","","","","","","","","","NaN",""
"","S1","","html-keyboard-response","267","1460468","0.0-1.0-371.0","0","0","89254","","null","","","null","41","","","","","","","","","","","","","","","",""
"","ISI","","html-keyboard-response","268","1462471","0.0-1.0-372.0","0","0","89254","","null","","","null","41","NaN","","","","","","","","","","","","","","",""
"","S2","","html-keyboard-response","269","1462727","0.0-1.0-373.0","0","0","89254","","null","","","null","41","","NaN","","","","","","","","","","","","","",""
"","response","","html-keyboard-response","270","1463087","0.0-1.0-374.0-0.0","0","0","89254","","356","","","68","41","","","1","41","training","adjacent","DC","4","3","P.jpg","N.jpg","1","0","0","",""
"","feedback","","html-keyboard-response","271","1464092","0.0-1.0-375.0-0.0","0","0","89254","","null","","","null","41","","","","","","","","","","","","","","","",""
"","time_out","","html-keyboard-response","272","1466096","0.0-1.0-377.0-0.0","0","0","89254","","null","","","null","41","","","","","","","","","","","","","","","",""
"","ITI","","html-keyboard-response","273","1467100","0.0-1.0-378.0","0","0","89254","","null","","","null","41","","","","","","","","","","","","","","","NaN",""
"","S1","","html-keyboard-response","274","1467355","0.0-1.0-380.0","0","0","89254","","null","","","null","42","","","","","","","","","","","","","","","",""
"","ISI","","html-keyboard-response","275","1469358","0.0-1.0-381.0","0","0","89254","","null","","","null","42","NaN","","","","","","","","","","","","","","",""
"","S2","","html-keyboard-response","276","1469612","0.0-1.0-382.0","0","0","89254","","null","","","null","42","","NaN","","","","","","","","","","","","","",""
"","response","","html-keyboard-response","277","1469945","0.0-1.0-383.0-0.0","0","0","89254","","329","","","75","42","","","1","42","training","adjacent","ED","5","4","Q.jpg","P.jpg","0","0","1","",""
"","feedback","","html-keyboard-response","278","1470980","0.0-1.0-384.0-0.0","0","0","89254","","null","","","null","42","","","","","","","","","","","","","","","",""
"","ITI","","html-keyboard-response","279","1471985","0.0-1.0-387.0","0","0","89254","","null","","","null","42","","","","","","","","","","","","","","","NaN",""
"","S1","","html-keyboard-response","280","1472239","0.0-1.0-389.0","0","0","89254","","null","","","null","43","","","","","","","","","","","","","","","",""
"","ISI","","html-keyboard-response","281","1474243","0.0-1.0-390.0","0","0","89254","","null","","","null","43","NaN","","","","","","","","","","","","","","",""
"","S2","","html-keyboard-response","282","1474503","0.0-1.0-391.0","0","0","89254","","null","","","null","43","","NaN","","","","","","","","","","","","","",""
"","response","","html-keyboard-response","283","1474524","0.0-1.0-392.0-0.0","0","0","89254","","18","","","68","43","","","1","43","training","adjacent","AB","1","2","O.jpg","M.jpg","1","1","1","",""
"","feedback","","html-keyboard-response","284","1475528","0.0-1.0-393.0-0.0","0","0","89254","","null","","","null","43","","","","","","","","","","","","","","","",""
"","ITI","","html-keyboard-response","285","1476533","0.0-1.0-396.0","0","0","89254","","null","","","null","43","","","","","","","","","","","","","","","NaN",""
"","S1","","html-keyboard-response","286","1476787","0.0-1.0-398.0","0","0","89254","","null","","","null","44","","","","","","","","","","","","","","","",""
"","ISI","","html-keyboard-response","287","1478790","0.0-1.0-399.0","0","0","89254","","null","","","null","44","NaN","","","","","","","","","","","","","","",""
"","S2","","html-keyboard-response","288","1479044","0.0-1.0-400.0","0","0","89254","","null","","","null","44","","NaN","","","","","","","","","","","","","",""
"","response","","html-keyboard-response","289","1479357","0.0-1.0-401.0-0.0","0","0","89254","","309","","","75","44","","","1","44","training","adjacent","DC","4","3","P.jpg","N.jpg","0","0","1","",""
"","feedback","","html-keyboard-response","290","1480362","0.0-1.0-402.0-0.0","0","0","89254","","null","","","null","44","","","","","","","","","","","","","","","",""
"","ITI","","html-keyboard-response","291","1481368","0.0-1.0-405.0","0","0","89254","","null","","","null","44","","","","","","","","","","","","","","","NaN",""
"","S1","","html-keyboard-response","292","1481621","0.0-1.0-407.0","0","0","89254","","null","","","null","45","","","","","","","","","","","","","","","",""
"","ISI","","html-keyboard-response","293","1483625","0.0-1.0-408.0","0","0","89254","","1621","","","78","45","n","","","","","","","","","","","","","","",""
"","S2","","html-keyboard-response","294","1483879","0.0-1.0-409.0","0","0","89254","","null","","","null","45","","NaN","","","","","","","","","","","","","",""
"","response","","html-keyboard-response","295","1485067","0.0-1.0-410.0-0.0","0","0","89254","","1184","","","68","45","","","1","45","training","adjacent","FE","6","5","R.jpg","Q.jpg","1","0","0","",""
"","feedback","","html-keyboard-response","296","1486071","0.0-1.0-411.0-0.0","0","0","89254","","null","","","null","45","","","","","","","","","","","","","","","",""
"","time_out","","html-keyboard-response","297","1488076","0.0-1.0-413.0-0.0","0","0","89254","","null","","","null","45","","","","","","","","","","","","","","","",""
"","ITI","","html-keyboard-response","298","1489080","0.0-1.0-414.0","0","0","89254","","null","","","null","45","","","","","","","","","","","","","","","NaN",""
"","S1","","html-keyboard-response","299","1489335","0.0-1.0-416.0","0","0","89254","","null","","","null","46","","","","","","","","","","","","","","","",""
"","ISI","","html-keyboard-response","300","1491340","0.0-1.0-417.0","0","0","89254","","null","","","null","46","NaN","","","","","","","","","","","","","","",""
"","S2","","html-keyboard-response","301","1491594","0.0-1.0-418.0","0","0","89254","","null","","","null","46","","NaN","","","","","","","","","","","","","",""
"","response","","html-keyboard-response","302","1492816","0.0-1.0-419.0-0.0","0","0","89254","","1219","","","68","46","","","1","46","training","adjacent","FG","6","7","R.jpg","L.jpg","1","1","1","",""
"","feedback","","html-keyboard-response","303","1493821","0.0-1.0-420.0-0.0","0","0","89254","","null","","","null","46","","","","","","","","","","","","","","","",""
"","ITI","","html-keyboard-response","304","1494826","0.0-1.0-423.0","0","0","89254","","null","","","null","46","","","","","","","","","","","","","","","NaN",""
"","S1","","html-keyboard-response","305","1495080","0.0-1.0-425.0","0","0","89254","","null","","","null","47","","","","","","","","","","","","","","","",""
"","ISI","","html-keyboard-response","306","1497083","0.0-1.0-426.0","0","0","89254","","null","","","null","47","NaN","","","","","","","","","","","","","","",""
"","S2","","html-keyboard-response","307","1497337","0.0-1.0-427.0","0","0","89254","","null","","","null","47","","NaN","","","","","","","","","","","","","",""
"","response","","html-keyboard-response","308","1497405","0.0-1.0-428.0-0.0","0","0","89254","","64","","","75","47","","","1","47","training","adjacent","FE","6","5","R.jpg","Q.jpg","0","0","1","",""
"","feedback","","html-keyboard-response","309","1498410","0.0-1.0-429.0-0.0","0","0","89254","","null","","","null","47","","","","","","","","","","","","","","","",""
"","ITI","","html-keyboard-response","310","1499415","0.0-1.0-432.0","0","0","89254","","null","","","null","47","","","","","","","","","","","","","","","NaN",""
"","block_over","","html-keyboard-response","311","1611745","0.0-1.0-433.0-0.0","0","0","89254","","112324","","","32","47","","","","","","","","","","","","","","","",""
"","S1","","html-keyboard-response","312","1612229","0.0-1.0-434.0","0","0","89254","","null","","","null","48","","","","","","","","","","","","","","","",""
"","ISI","","html-keyboard-response","313","1614233","0.0-1.0-435.0","0","0","89254","","null","","","null","48","NaN","","","","","","","","","","","","","","",""
"","S2","","html-keyboard-response","314","1614488","0.0-1.0-436.0","0","0","89254","","null","","","null","48","","NaN","","","","","","","","","","","","","",""
"","response","","html-keyboard-response","315","1616026","0.0-1.0-437.0-0.0","0","0","89254","","1534","","","68","48","","","2","48","training","adjacent","DE","4","5","P.jpg","Q.jpg","1","1","1","",""
"","feedback","","html-keyboard-response","316","1617031","0.0-1.0-438.0-0.0","0","0","89254","","null","","","null","48","","","","","","","","","","","","","","","",""
"","ITI","","html-keyboard-response","317","1618035","0.0-1.0-441.0","0","0","89254","","null","","","null","48","","","","","","","","","","","","","","","NaN",""
"","S1","","html-keyboard-response","318","1618288","0.0-1.0-443.0","0","0","89254","","null","","","null","49","","","","","","","","","","","","","","","",""
"","ISI","","html-keyboard-response","319","1620294","0.0-1.0-444.0","0","0","89254","","915","","","68","49","d","","","","","","","","","","","","","","",""
"","S2","","html-keyboard-response","320","1620549","0.0-1.0-445.0","0","0","89254","","null","","","null","49","","NaN","","","","","","","","","","","","","",""
"","response","","html-keyboard-response","321","1621123","0.0-1.0-446.0-0.0","0","0","89254","","571","","","75","49","","","2","49","training","adjacent","EF","5","6","Q.jpg","R.jpg","0","1","0","",""
"","feedback","","html-keyboard-response","322","1622129","0.0-1.0-447.0-0.0","0","0","89254","","null","","","null","49","","","","","","","","","","","","","","","",""
"","time_out","","html-keyboard-response","323","1624133","0.0-1.0-449.0-0.0","0","0","89254","","null","","","null","49","","","","","","","","","","","","","","","",""
"","ITI","","html-keyboard-response","324","1625138","0.0-1.0-450.0","0","0","89254","","null","","","null","49","","","","","","","","","","","","","","","NaN",""
"","S1","","html-keyboard-response","325","1625394","0.0-1.0-452.0","0","0","89254","","null","","","null","50","","","","","","","","","","","","","","","",""
"","ISI","","html-keyboard-response","326","1627399","0.0-1.0-453.0","0","0","89254","","null","","","null","50","NaN","","","","","","","","","","","","","","",""
"","S2","","html-keyboard-response","327","1627654","0.0-1.0-454.0","0","0","89254","","null","","","null","50","","NaN","","","","","","","","","","","","","",""
"","response","","html-keyboard-response","328","1627966","0.0-1.0-455.0-0.0","0","0","89254","","308","","","68","50","","","2","50","training","adjacent","EF","5","6","Q.jpg","R.jpg","1","1","1","",""
"","feedback","","html-keyboard-response","329","1628972","0.0-1.0-456.0-0.0","0","0","89254","","null","","","null","50","","","","","","","","","","","","","","","",""
"","ITI","","html-keyboard-response","330","1629977","0.0-1.0-459.0","0","0","89254","","null","","","null","50","","","","","","","","","","","","","","","NaN",""
"","S1","","html-keyboard-response","331","1630232","0.0-1.0-461.0","0","0","89254","","null","","","null","51","","","","","","","","","","","","","","","",""
"","ISI","","html-keyboard-response","332","1632236","0.0-1.0-462.0","0","0","89254","","null","","","null","51","NaN","","","","","","","","","","","","","","",""
"","S2","","html-keyboard-response","333","1632491","0.0-1.0-463.0","0","0","89254","","null","","","null","51","","NaN","","","","","","","","","","","","","",""
"","response","","html-keyboard-response","334","1632864","0.0-1.0-464.0-0.0","0","0","89254","","368","","","75","51","","","2","51","training","adjacent","FG","6","7","R.jpg","L.jpg","0","1","0","",""
"","feedback","","html-keyboard-response","335","1633869","0.0-1.0-465.0-0.0","0","0","89254","","null","","","null","51","","","","","","","","","","","","","","","",""
"","time_out","","html-keyboard-response","336","1635874","0.0-1.0-467.0-0.0","0","0","89254","","null","","","null","51","","","","","","","","","","","","","","","",""
"","ITI","","html-keyboard-response","337","1636880","0.0-1.0-468.0","0","0","89254","","null","","","null","51","","","","","","","","","","","","","","","NaN",""
"","S1","","html-keyboard-response","338","1637134","0.0-1.0-470.0","0","0","89254","","null","","","null","52","","","","","","","","","","","","","","","",""
"","ISI","","html-keyboard-response","339","1639138","0.0-1.0-471.0","0","0","89254","","null","","","null","52","NaN","","","","","","","","","","","","","","",""
"","S2","","html-keyboard-response","340","1639391","0.0-1.0-472.0","0","0","89254","","null","","","null","52","","NaN","","","","","","","","","","","","","",""
"","response","","html-keyboard-response","341","1639782","0.0-1.0-473.0-0.0","0","0","89254","","389","","","75","52","","","2","52","training","adjacent","DE","4","5","P.jpg","Q.jpg","0","1","0","",""
"","feedback","","html-keyboard-response","342","1640786","0.0-1.0-474.0-0.0","0","0","89254","","null","","","null","52","","","","","","","","","","","","","","","",""
"","time_out","","html-keyboard-response","343","1642791","0.0-1.0-476.0-0.0","0","0","89254","","null","","","null","52","","","","","","","","","","","","","","","",""
"","ITI","","html-keyboard-response","344","1643796","0.0-1.0-477.0","0","0","89254","","null","","","null","52","","","","","","","","","","","","","","","NaN",""
"","S1","","html-keyboard-response","345","1644051","0.0-1.0-479.0","0","0","89254","","null","","","null","53","","","","","","","","","","","","","","","",""
"","ISI","","html-keyboard-response","346","1646055","0.0-1.0-480.0","0","0","89254","","1231","","","68","53","d","","","","","","","","","","","","","","",""
"","S2","","html-keyboard-response","347","1646311","0.0-1.0-481.0","0","0","89254","","null","","","null","53","","NaN","","","","","","","","","","","","","",""
"","response","","html-keyboard-response","348","1646943","0.0-1.0-482.0-0.0","0","0","89254","","629","","","68","53","","","2","53","training","adjacent","CD","3","4","N.jpg","P.jpg","1","1","1","",""
"","feedback","","html-keyboard-response","349","1647947","0.0-1.0-483.0-0.0","0","0","89254","","null","","","null","53","","","","","","","","","","","","","","","",""
"","ITI","","html-keyboard-response","350","1648953","0.0-1.0-486.0","0","0","89254","","null","","","null","53","","","","","","","","","","","","","","","NaN",""
"","S1","","html-keyboard-response","351","1649207","0.0-1.0-488.0","0","0","89254","","null","","","null","54","","","","","","","","","","","","","","","",""
"","ISI","","html-keyboard-response","352","1651211","0.0-1.0-489.0","0","0","89254","","null","","","null","54","NaN","","","","","","","","","","","","","","",""
"","S2","","html-keyboard-response","353","1651466","0.0-1.0-490.0","0","0","89254","","null","","","null","54","","NaN","","","","","","","","","","","","","",""
"","response","","html-keyboard-response","354","1651924","0.0-1.0-491.0-0.0","0","0","89254","","454","","","75","54","","","2","54","training","adjacent","GF","7","6","L.jpg","R.jpg","0","0","1","",""
"","feedback","","html-keyboard-response","355","1652929","0.0-1.0-492.0-0.0","0","0","89254","","null","","","null","54","","","","","","","","","","","","","","","",""
"","ITI","","html-keyboard-response","356","1653933","0.0-1.0-495.0","0","0","89254","","null","","","null","54","","","","","","","","","","","","","","","NaN",""
"","S1","","html-keyboard-response","357","1654188","0.0-1.0-497.0","0","0","89254","","null","","","null","55","","","","","","","","","","","","","","","",""
"","ISI","","html-keyboard-response","358","1656191","0.0-1.0-498.0","0","0","89254","","null","","","null","55","NaN","","","","","","","","","","","","","","",""
"","S2","","html-keyboard-response","359","1656446","0.0-1.0-499.0","0","0","89254","","null","","","null","55","","NaN","","","","","","","","","","","","","",""
"","response","","html-keyboard-response","360","1656763","0.0-1.0-500.0-0.0","0","0","89254","","314","","","75","55","","","2","55","training","adjacent","GF","7","6","L.jpg","R.jpg","0","0","1","",""
"","feedback","","html-keyboard-response","361","1657767","0.0-1.0-501.0-0.0","0","0","89254","","null","","","null","55","","","","","","","","","","","","","","","",""
"","ITI","","html-keyboard-response","362","1658772","0.0-1.0-504.0","0","0","89254","","null","","","null","55","","","","","","","","","","","","","","","NaN",""
"","S1","","html-keyboard-response","363","1659027","0.0-1.0-506.0","0","0","89254","","null","","","null","56","","","","","","","","","","","","","","","",""
"","ISI","","html-keyboard-response","364","1661032","0.0-1.0-507.0","0","0","89254","","null","","","null","56","NaN","","","","","","","","","","","","","","",""
"","S2","","html-keyboard-response","365","1661286","0.0-1.0-508.0","0","0","89254","","null","","","null","56","","NaN","","","","","","","","","","","","","",""
"","response","","html-keyboard-response","366","1662762","0.0-1.0-509.0-0.0","0","0","89254","","1474","","","68","56","","","2","56","training","adjacent","BC","2","3","M.jpg","N.jpg","1","1","1","",""
"","feedback","","html-keyboard-response","367","1663766","0.0-1.0-510.0-0.0","0","0","89254","","null","","","null","56","","","","","","","","","","","","","","","",""
"","ITI","","html-keyboard-response","368","1664771","0.0-1.0-513.0","0","0","89254","","null","","","null","56","","","","","","","","","","","","","","","NaN",""
"","S1","","html-keyboard-response","369","1665025","0.0-1.0-515.0","0","0","89254","","null","","","null","57","","","","","","","","","","","","","","","",""
"","ISI","","html-keyboard-response","370","1667029","0.0-1.0-516.0","0","0","89254","","null","","","null","57","NaN","","","","","","","","","","","","","","",""
"","S2","","html-keyboard-response","371","1667284","0.0-1.0-517.0","0","0","89254","","null","","","null","57","","NaN","","","","","","","","","","","","","",""
"","response","","html-keyboard-response","372","1668085","0.0-1.0-518.0-0.0","0","0","89254","","798","","","75","57","","","2","57","training","adjacent","AB","1","2","O.jpg","M.jpg","0","1","0","",""
"","feedback","","html-keyboard-response","373","1669091","0.0-1.0-519.0-0.0","0","0","89254","","null","","","null","57","","","","","","","","","","","","","","","",""
"","time_out","","html-keyboard-response","374","1671094","0.0-1.0-521.0-0.0","0","0","89254","","null","","","null","57","","","","","","","","","","","","","","","",""
"","ITI","","html-keyboard-response","375","1672098","0.0-1.0-522.0","0","0","89254","","null","","","null","57","","","","","","","","","","","","","","","NaN",""
"","S1","","html-keyboard-response","376","1672351","0.0-1.0-524.0","0","0","89254","","null","","","null","58","","","","","","","","","","","","","","","",""
"","ISI","","html-keyboard-response","377","1674355","0.0-1.0-525.0","0","0","89254","","null","","","null","58","NaN","","","","","","","","","","","","","","",""
"","S2","","html-keyboard-response","378","1674608","0.0-1.0-526.0","0","0","89254","","null","","","null","58","","NaN","","","","","","","","","","","","","",""
"","response","","html-keyboard-response","379","1675483","0.0-1.0-527.0-0.0","0","0","89254","","872","","","68","58","","","2","58","training","adjacent","FG","6","7","R.jpg","L.jpg","1","1","1","",""
"","feedback","","html-keyboard-response","380","1676487","0.0-1.0-528.0-0.0","0","0","89254","","null","","","null","58","","","","","","","","","","","","","","","",""
"","ITI","","html-keyboard-response","381","1677492","0.0-1.0-531.0","0","0","89254","","null","","","null","58","","","","","","","","","","","","","","","NaN",""
"","S1","","html-keyboard-response","382","1677746","0.0-1.0-533.0","0","0","89254","","null","","","null","59","","","","","","","","","","","","","","","",""
"","ISI","","html-keyboard-response","383","1679750","0.0-1.0-534.0","0","0","89254","","null","","","null","59","NaN","","","","","","","","","","","","","","",""
"","S2","","html-keyboard-response","384","1680019","0.0-1.0-535.0","0","0","89254","","null","","","null","59","","NaN","","","","","","","","","","","","","",""
"","response","","html-keyboard-response","385","1681567","0.0-1.0-536.0-0.0","0","0","89254","","1544","","","75","59","","","2","59","training","adjacent","BA","2","1","M.jpg","O.jpg","0","0","1","",""
"","feedback","","html-keyboard-response","386","1682574","0.0-1.0-537.0-0.0","0","0","89254","","null","","","null","59","","","","","","","","","","","","","","","",""
"","ITI","","html-keyboard-response","387","1683628","0.0-1.0-540.0","0","0","89254","","null","","","null","59","","","","","","","","","","","","","","","NaN",""
"","S1","","html-keyboard-response","388","1683886","0.0-1.0-542.0","0","0","89254","","null","","","null","60","","","","","","","","","","","","","","","",""
"","ISI","","html-keyboard-response","389","1685891","0.0-1.0-543.0","0","0","89254","","null","","","null","60","NaN","","","","","","","","","","","","","","",""
"","S2","","html-keyboard-response","390","1686146","0.0-1.0-544.0","0","0","89254","","null","","","null","60","","NaN","","","","","","","","","","","","","",""
"","response","","html-keyboard-response","391","1686763","0.0-1.0-545.0-0.0","0","0","89254","","612","","","68","60","","","2","60","training","adjacent","BC","2","3","M.jpg","N.jpg","1","1","1","",""
"","feedback","","html-keyboard-response","392","1687767","0.0-1.0-546.0-0.0","0","0","89254","","null","","","null","60","","","","","","","","","","","","","","","",""
"","ITI","","html-keyboard-response","393","1688770","0.0-1.0-549.0","0","0","89254","","null","","","null","60","","","","","","","","","","","","","","","NaN",""
"","S1","","html-keyboard-response","394","1689024","0.0-1.0-551.0","0","0","89254","","null","","","null","61","","","","","","","","","","","","","","","",""
"","ISI","","html-keyboard-response","395","1691027","0.0-1.0-552.0","0","0","89254","","null","","","null","61","NaN","","","","","","","","","","","","","","",""
"","S2","","html-keyboard-response","396","1691282","0.0-1.0-553.0","0","0","89254","","null","","","null","61","","NaN","","","","","","","","","","","","","",""
"","response","","html-keyboard-response","397","1691805","0.0-1.0-554.0-0.0","0","0","89254","","519","","","68","61","","","2","61","training","adjacent","DC","4","3","P.jpg","N.jpg","1","0","0","",""
"","feedback","","html-keyboard-response","398","1692810","0.0-1.0-555.0-0.0","0","0","89254","","null","","","null","61","","","","","","","","","","","","","","","",""
"","time_out","","html-keyboard-response","399","1694818","0.0-1.0-557.0-0.0","0","0","89254","","null","","","null","61","","","","","","","","","","","","","","","",""
"","ITI","","html-keyboard-response","400","1695823","0.0-1.0-558.0","0","0","89254","","null","","","null","61","","","","","","","","","","","","","","","NaN",""
"","S1","","html-keyboard-response","401","1696079","0.0-1.0-560.0","0","0","89254","","null","","","null","62","","","","","","","","","","","","","","","",""
"","ISI","","html-keyboard-response","402","1698083","0.0-1.0-561.0","0","0","89254","","null","","","null","62","NaN","","","","","","","","","","","","","","",""
"","S2","","html-keyboard-response","403","1698338","0.0-1.0-562.0","0","0","89254","","null","","","null","62","","NaN","","","","","","","","","","","","","",""
"","response","","html-keyboard-response","404","1698705","0.0-1.0-563.0-0.0","0","0","89254","","363","","","68","62","","","2","62","training","adjacent","ED","5","4","Q.jpg","P.jpg","1","0","0","",""
"","feedback","","html-keyboard-response","405","1699710","0.0-1.0-564.0-0.0","0","0","89254","","null","","","null","62","","","","","","","","","","","","","","","",""
"","time_out","","html-keyboard-response","406","1701715","0.0-1.0-566.0-0.0","0","0","89254","","null","","","null","62","","","","","","","","","","","","","","","",""
"","ITI","","html-keyboard-response","407","1702720","0.0-1.0-567.0","0","0","89254","","null","","","null","62","","","","","","","","","","","","","","","NaN",""
"","S1","","html-keyboard-response","408","1702974","0.0-1.0-569.0","0","0","89254","","null","","","null","63","","","","","","","","","","","","","","","",""
"","ISI","","html-keyboard-response","409","1704979","0.0-1.0-570.0","0","0","89254","","null","","","null","63","NaN","","","","","","","","","","","","","","",""
"","S2","","html-keyboard-response","410","1705233","0.0-1.0-571.0","0","0","89254","","null","","","null","63","","NaN","","","","","","","","","","","","","",""
"","response","","html-keyboard-response","411","1705623","0.0-1.0-572.0-0.0","0","0","89254","","387","","","68","63","","","2","63","training","adjacent","ED","5","4","Q.jpg","P.jpg","1","0","0","",""
"","feedback","","html-keyboard-response","412","1706626","0.0-1.0-573.0-0.0","0","0","89254","","null","","","null","63","","","","","","","","","","","","","","","",""
"","time_out","","html-keyboard-response","413","1708630","0.0-1.0-575.0-0.0","0","0","89254","","null","","","null","63","","","","","","","","","","","","","","","",""
"","ITI","","html-keyboard-response","414","1709633","0.0-1.0-576.0","0","0","89254","","null","","","null","63","","","","","","","","","","","","","","","NaN",""
"","S1","","html-keyboard-response","415","1709887","0.0-1.0-578.0","0","0","89254","","null","","","null","64","","","","","","","","","","","","","","","",""
"","ISI","","html-keyboard-response","416","1711896","0.0-1.0-579.0","0","0","89254","","null","","","null","64","NaN","","","","","","","","","","","","","","",""
"","S2","","html-keyboard-response","417","1712150","0.0-1.0-580.0","0","0","89254","","null","","","null","64","","NaN","","","","","","","","","","","","","",""
"","response","","html-keyboard-response","418","1712505","0.0-1.0-581.0-0.0","0","0","89254","","351","","","75","64","","","2","64","training","adjacent","CD","3","4","N.jpg","P.jpg","0","1","0","",""
"","feedback","","html-keyboard-response","419","1713511","0.0-1.0-582.0-0.0","0","0","89254","","null","","","null","64","","","","","","","","","","","","","","","",""
"","time_out","","html-keyboard-response","420","1715517","0.0-1.0-584.0-0.0","0","0","89254","","null","","","null","64","","","","","","","","","","","","","","","",""
"","ITI","","html-keyboard-response","421","1716521","0.0-1.0-585.0","0","0","89254","","null","","","null","64","","","","","","","","","","","","","","","NaN",""
"","S1","","html-keyboard-response","422","1716775","0.0-1.0-587.0","0","0","89254","","null","","","null","65","","","","","","","","","","","","","","","",""
"","ISI","","html-keyboard-response","423","1718779","0.0-1.0-588.0","0","0","89254","","null","","","null","65","NaN","","","","","","","","","","","","","","",""
"","S2","","html-keyboard-response","424","1719006","0.0-1.0-589.0","0","0","89254","","223","","","68","65","","d","2","65","training","adjacent","ED","5","4","Q.jpg","P.jpg","1","0","0","",""
"","feedback","","html-keyboard-response","425","1720013","0.0-1.0-591.0-0.0","0","0","89254","","null","","","null","65","","","","","","","","","","","","","","","",""
"","time_out","","html-keyboard-response","426","1722017","0.0-1.0-593.0-0.0","0","0","89254","","null","","","null","65","","","","","","","","","","","","","","","",""
"","ITI","","html-keyboard-response","427","1723023","0.0-1.0-594.0","0","0","89254","","null","","","null","65","","","","","","","","","","","","","","","NaN",""
"","S1","","html-keyboard-response","428","1723280","0.0-1.0-596.0","0","0","89254","","null","","","null","66","","","","","","","","","","","","","","","",""
"","ISI","","html-keyboard-response","429","1725284","0.0-1.0-597.0","0","0","89254","","1150","","","75","66","k","","","","","","","","","","","","","","",""
"","S2","","html-keyboard-response","430","1725346","0.0-1.0-598.0","0","0","89254","","57","","","75","66","","k","2","66","training","adjacent","EF","5","6","Q.jpg","R.jpg","0","1","0","",""
"","feedback","","html-keyboard-response","431","1726352","0.0-1.0-600.0-0.0","0","0","89254","","null","","","null","66","","","","","","","","","","","","","","","",""
"","time_out","","html-keyboard-response","432","1728356","0.0-1.0-602.0-0.0","0","0","89254","","null","","","null","66","","","","","","","","","","","","","","","",""
"","ITI","","html-keyboard-response","433","1729362","0.0-1.0-603.0","0","0","89254","","null","","","null","66","","","","","","","","","","","","","","","NaN",""
"","S1","","html-keyboard-response","434","1729615","0.0-1.0-605.0","0","0","89254","","null","","","null","67","","","","","","","","","","","","","","","",""
"","ISI","","html-keyboard-response","435","1731619","0.0-1.0-606.0","0","0","89254","","null","","","null","67","NaN","","","","","","","","","","","","","","",""
"","S2","","html-keyboard-response","436","1731873","0.0-1.0-607.0","0","0","89254","","null","","","null","67","","NaN","","","","","","","","","","","","","",""
"","response","","html-keyboard-response","437","1732022","0.0-1.0-608.0-0.0","0","0","89254","","147","","","68","67","","","2","67","training","adjacent","CB","3","2","N.jpg","M.jpg","1","0","0","",""
"","feedback","","html-keyboard-response","438","1733027","0.0-1.0-609.0-0.0","0","0","89254","","null","","","null","67","","","","","","","","","","","","","","","",""
"","time_out","","html-keyboard-response","439","1735030","0.0-1.0-611.0-0.0","0","0","89254","","null","","","null","67","","","","","","","","","","","","","","","",""
"","ITI","","html-keyboard-response","440","1736034","0.0-1.0-612.0","0","0","89254","","null","","","null","67","","","","","","","","","","","","","","","NaN",""
"","S1","","html-keyboard-response","441","1736289","0.0-1.0-614.0","0","0","89254","","null","","","null","68","","","","","","","","","","","","","","","",""
"","ISI","","html-keyboard-response","442","1738295","0.0-1.0-615.0","0","0","89254","","null","","","null","68","NaN","","","","","","","","","","","","","","",""
"","S2","","html-keyboard-response","443","1738548","0.0-1.0-616.0","0","0","89254","","null","","","null","68","","NaN","","","","","","","","","","","","","",""
"","response","","html-keyboard-response","444","1738995","0.0-1.0-617.0-0.0","0","0","89254","","443","","","75","68","","","2","68","training","adjacent","BC","2","3","M.jpg","N.jpg","0","1","0","",""
"","feedback","","html-keyboard-response","445","1740000","0.0-1.0-618.0-0.0","0","0","89254","","null","","","null","68","","","","","","","","","","","","","","","",""
"","time_out","","html-keyboard-response","446","1742005","0.0-1.0-620.0-0.0","0","0","89254","","null","","","null","68","","","","","","","","","","","","","","","",""
"","ITI","","html-keyboard-response","447","1743018","0.0-1.0-621.0","0","0","89254","","null","","","null","68","","","","","","","","","","","","","","","NaN",""
"","S1","","html-keyboard-response","448","1743273","0.0-1.0-623.0","0","0","89254","","null","","","null","69","","","","","","","","","","","","","","","",""
"","ISI","","html-keyboard-response","449","1745277","0.0-1.0-624.0","0","0","89254","","728","","","68","69","d","","","","","","","","","","","","","","",""
"","S2","","html-keyboard-response","450","1745533","0.0-1.0-625.0","0","0","89254","","null","","","null","69","","NaN","","","","","","","","","","","","","",""
"","response","","html-keyboard-response","451","1746585","0.0-1.0-626.0-0.0","0","0","89254","","1047","","","68","69","","","2","69","training","adjacent","CD","3","4","N.jpg","P.jpg","1","1","1","",""
"","feedback","","html-keyboard-response","452","1747589","0.0-1.0-627.0-0.0","0","0","89254","","null","","","null","69","","","","","","","","","","","","","","","",""
"","ITI","","html-keyboard-response","453","1748596","0.0-1.0-630.0","0","0","89254","","null","","","null","69","","","","","","","","","","","","","","","NaN",""
"","S1","","html-keyboard-response","454","1748852","0.0-1.0-632.0","0","0","89254","","null","","","null","70","","","","","","","","","","","","","","","",""
"","ISI","","html-keyboard-response","455","1750857","0.0-1.0-633.0","0","0","89254","","null","","","null","70","NaN","","","","","","","","","","","","","","",""
"","S2","","html-keyboard-response","456","1751112","0.0-1.0-634.0","0","0","89254","","null","","","null","70","","NaN","","","","","","","","","","","","","",""
"","response","","html-keyboard-response","457","1752064","0.0-1.0-635.0-0.0","0","0","89254","","948","","","75","70","","","2","70","training","adjacent","BA","2","1","M.jpg","O.jpg","0","0","1","",""
"","feedback","","html-keyboard-response","458","1753068","0.0-1.0-636.0-0.0","0","0","89254","","null","","","null","70","","","","","","","","","","","","","","","",""
"","ITI","","html-keyboard-response","459","1754073","0.0-1.0-639.0","0","0","89254","","null","","","null","70","","","","","","","","","","","","","","","NaN",""
"","S1","","html-keyboard-response","460","1754327","0.0-1.0-641.0","0","0","89254","","null","","","null","71","","","","","","","","","","","","","","","",""
"","ISI","","html-keyboard-response","461","1756331","0.0-1.0-642.0","0","0","89254","","null","","","null","71","NaN","","","","","","","","","","","","","","",""
"","S2","","html-keyboard-response","462","1756586","0.0-1.0-643.0","0","0","89254","","null","","","null","71","","NaN","","","","","","","","","","","","","",""
"","response","","html-keyboard-response","463","1757325","0.0-1.0-644.0-0.0","0","0","89254","","736","","","68","71","","","2","71","training","adjacent","DC","4","3","P.jpg","N.jpg","1","0","0","",""
"","feedback","","html-keyboard-response","464","1758331","0.0-1.0-645.0-0.0","0","0","89254","","null","","","null","71","","","","","","","","","","","","","","","",""
"","time_out","","html-keyboard-response","465","1760335","0.0-1.0-647.0-0.0","0","0","89254","","null","","","null","71","","","","","","","","","","","","","","","",""
"","ITI","","html-keyboard-response","466","1761339","0.0-1.0-648.0","0","0","89254","","865","","","75","71","","","","","","","","","","","","","","","k",""
"","S1","","html-keyboard-response","467","1761596","0.0-1.0-650.0","0","0","89254","","null","","","null","72","","","","","","","","","","","","","","","",""
"","ISI","","html-keyboard-response","468","1763601","0.0-1.0-651.0","0","0","89254","","544","","","75","72","k","","","","","","","","","","","","","","",""
"","S2","","html-keyboard-response","469","1763855","0.0-1.0-652.0","0","0","89254","","null","","","null","72","","NaN","","","","","","","","","","","","","",""
"","response","","html-keyboard-response","470","1764123","0.0-1.0-653.0-0.0","0","0","89254","","265","","","75","72","","","2","72","training","adjacent","CD","3","4","N.jpg","P.jpg","0","1","0","",""
"","feedback","","html-keyboard-response","471","1765128","0.0-1.0-654.0-0.0","0","0","89254","","null","","","null","72","","","","","","","","","","","","","","","",""
"","time_out","","html-keyboard-response","472","1767132","0.0-1.0-656.0-0.0","0","0","89254","","null","","","null","72","","","","","","","","","","","","","","","",""
"","ITI","","html-keyboard-response","473","1768136","0.0-1.0-657.0","0","0","89254","","null","","","null","72","","","","","","","","","","","","","","","NaN",""
"","S1","","html-keyboard-response","474","1768390","0.0-1.0-659.0","0","0","89254","","null","","","null","73","","","","","","","","","","","","","","","",""
"","ISI","","html-keyboard-response","475","1770395","0.0-1.0-660.0","0","0","89254","","null","","","null","73","NaN","","","","","","","","","","","","","","",""
"","S2","","html-keyboard-response","476","1770650","0.0-1.0-661.0","0","0","89254","","null","","","null","73","","NaN","","","","","","","","","","","","","",""
"","response","","html-keyboard-response","477","1771686","0.0-1.0-662.0-0.0","0","0","89254","","1031","","","75","73","","","2","73","training","adjacent","BA","2","1","M.jpg","O.jpg","0","0","1","",""
"","feedback","","html-keyboard-response","478","1772692","0.0-1.0-663.0-0.0","0","0","89254","","null","","","null","73","","","","","","","","","","","","","","","",""
"","ITI","","html-keyboard-response","479","1773696","0.0-1.0-666.0","0","0","89254","","null","","","null","73","","","","","","","","","","","","","","","NaN",""
"","S1","","html-keyboard-response","480","1773952","0.0-1.0-668.0","0","0","89254","","null","","","null","74","","","","","","","","","","","","","","","",""
"","ISI","","html-keyboard-response","481","1775957","0.0-1.0-669.0","0","0","89254","","null","","","null","74","NaN","","","","","","","","","","","","","","",""
"","S2","","html-keyboard-response","482","1776210","0.0-1.0-670.0","0","0","89254","","null","","","null","74","","NaN","","","","","","","","","","","","","",""
"","response","","html-keyboard-response","483","1777365","0.0-1.0-671.0-0.0","0","0","89254","","1150","","","68","74","","","2","74","training","adjacent","AB","1","2","O.jpg","M.jpg","1","1","1","",""
"","feedback","","html-keyboard-response","484","1778371","0.0-1.0-672.0-0.0","0","0","89254","","null","","","null","74","","","","","","","","","","","","","","","",""
"","ITI","","html-keyboard-response","485","1779376","0.0-1.0-675.0","0","0","89254","","null","","","null","74","","","","","","","","","","","","","","","NaN",""
"","S1","","html-keyboard-response","486","1779630","0.0-1.0-677.0","0","0","89254","","null","","","null","75","","","","","","","","","","","","","","","",""
"","ISI","","html-keyboard-response","487","1781635","0.0-1.0-678.0","0","0","89254","","null","","","null","75","NaN","","","","","","","","","","","","","","",""
"","S2","","html-keyboard-response","488","1781890","0.0-1.0-679.0","0","0","89254","","null","","","null","75","","NaN","","","","","","","","","","","","","",""
"","response","","html-keyboard-response","489","1782705","0.0-1.0-680.0-0.0","0","0","89254","","811","","","75","75","","","2","75","training","adjacent","CB","3","2","N.jpg","M.jpg","0","0","1","",""
"","feedback","","html-keyboard-response","490","1783711","0.0-1.0-681.0-0.0","0","0","89254","","null","","","null","75","","","","","","","","","","","","","","","",""
"","ITI","","html-keyboard-response","491","1784717","0.0-1.0-684.0","0","0","89254","","null","","","null","75","","","","","","","","","","","","","","","NaN",""
"","S1","","html-keyboard-response","492","1784971","0.0-1.0-686.0","0","0","89254","","null","","","null","76","","","","","","","","","","","","","","","",""
"","ISI","","html-keyboard-response","493","1786975","0.0-1.0-687.0","0","0","89254","","null","","","null","76","NaN","","","","","","","","","","","","","","",""
"","S2","","html-keyboard-response","494","1787230","0.0-1.0-688.0","0","0","89254","","null","","","null","76","","NaN","","","","","","","","","","","","","",""
"","response","","html-keyboard-response","495","1787844","0.0-1.0-689.0-0.0","0","0","89254","","611","","","68","76","","","2","76","training","adjacent","DE","4","5","P.jpg","Q.jpg","1","1","1","",""
"","feedback","","html-keyboard-response","496","1788849","0.0-1.0-690.0-0.0","0","0","89254","","null","","","null","76","","","","","","","","","","","","","","","",""
"","ITI","","html-keyboard-response","497","1789854","0.0-1.0-693.0","0","0","89254","","null","","","null","76","","","","","","","","","","","","","","","NaN",""
"","S1","","html-keyboard-response","498","1790109","0.0-1.0-695.0","0","0","89254","","null","","","null","77","","","","","","","","","","","","","","","",""
"","ISI","","html-keyboard-response","499","1792114","0.0-1.0-696.0","0","0","89254","","null","","","null","77","NaN","","","","","","","","","","","","","","",""
"","S2","","html-keyboard-response","500","1792368","0.0-1.0-697.0","0","0","89254","","null","","","null","77","","NaN","","","","","","","","","","","","","",""
"","response","","html-keyboard-response","501","1794123","0.0-1.0-698.0-0.0","0","0","89254","","null","","","null","77","","","2","77","training","adjacent","CB","3","2","N.jpg","M.jpg","NaN","0","0","",""
"","too_slow_prompt","","html-keyboard-response","502","1795128","0.0-1.0-700.0-0.0","1","0","89254","","null","","","null","","","","","","","","","","","","","","","","",""
"","time_out","","html-keyboard-response","503","1797139","0.0-1.0-701.0-0.0","0","0","89254","","null","","","null","77","","","","","","","","","","","","","","","",""
"","ITI","","html-keyboard-response","504","1798144","0.0-1.0-702.0","0","0","89254","","null","","","null","77","","","","","","","","","","","","","","","NaN",""
"","S1","","html-keyboard-response","505","1798399","0.0-1.0-704.0","0","0","89254","","null","","","null","78","","","","","","","","","","","","","","","",""
"","ISI","","html-keyboard-response","506","1800404","0.0-1.0-705.0","0","0","89254","","null","","","null","78","NaN","","","","","","","","","","","","","","",""
"","S2","","html-keyboard-response","507","1800658","0.0-1.0-706.0","0","0","89254","","null","","","null","78","","NaN","","","","","","","","","","","","","",""
"","response","","html-keyboard-response","508","1801366","0.0-1.0-707.0-0.0","0","0","89254","","704","","","68","78","","","2","78","training","adjacent","FG","6","7","R.jpg","L.jpg","1","1","1","",""
"","feedback","","html-keyboard-response","509","1802372","0.0-1.0-708.0-0.0","0","0","89254","","null","","","null","78","","","","","","","","","","","","","","","",""
"","ITI","","html-keyboard-response","510","1803377","0.0-1.0-711.0","0","0","89254","","null","","","null","78","","","","","","","","","","","","","","","NaN",""
"","S1","","html-keyboard-response","511","1803631","0.0-1.0-713.0","0","0","89254","","null","","","null","79","","","","","","","","","","","","","","","",""
"","ISI","","html-keyboard-response","512","1805635","0.0-1.0-714.0","0","0","89254","","null","","","null","79","NaN","","","","","","","","","","","","","","",""
"","S2","","html-keyboard-response","513","1805889","0.0-1.0-715.0","0","0","89254","","null","","","null","79","","NaN","","","","","","","","","","","","","",""
"","response","","html-keyboard-response","514","1806228","0.0-1.0-716.0-0.0","0","0","89254","","333","","","75","79","","","2","79","training","adjacent","GF","7","6","L.jpg","R.jpg","0","0","1","",""
"","feedback","","html-keyboard-response","515","1807234","0.0-1.0-717.0-0.0","0","0","89254","","null","","","null","79","","","","","","","","","","","","","","","",""
"","ITI","","html-keyboard-response","516","1808239","0.0-1.0-720.0","0","0","89254","","null","","","null","79","","","","","","","","","","","","","","","NaN",""
"","S1","","html-keyboard-response","517","1808493","0.0-1.0-722.0","0","0","89254","","null","","","null","80","","","","","","","","","","","","","","","",""
"","ISI","","html-keyboard-response","518","1810498","0.0-1.0-723.0","0","0","89254","","null","","","null","80","NaN","","","","","","","","","","","","","","",""
"","S2","","html-keyboard-response","519","1810745","0.0-1.0-724.0","0","0","89254","","242","","","68","80","","d","2","80","training","adjacent","FE","6","5","R.jpg","Q.jpg","1","0","0","",""
"","feedback","","html-keyboard-response","520","1811751","0.0-1.0-726.0-0.0","0","0","89254","","null","","","null","80","","","","","","","","","","","","","","","",""
"","time_out","","html-keyboard-response","521","1813756","0.0-1.0-728.0-0.0","0","0","89254","","null","","","null","80","","","","","","","","","","","","","","","",""
"","ITI","","html-keyboard-response","522","1814766","0.0-1.0-729.0","0","0","89254","","null","","","null","80","","","","","","","","","","","","","","","NaN",""
"","S1","","html-keyboard-response","523","1815020","0.0-1.0-731.0","0","0","89254","","null","","","null","81","","","","","","","","","","","","","","","",""
"","ISI","","html-keyboard-response","524","1817024","0.0-1.0-732.0","0","0","89254","","null","","","null","81","NaN","","","","","","","","","","","","","","",""
"","S2","","html-keyboard-response","525","1817280","0.0-1.0-733.0","0","0","89254","","null","","","null","81","","NaN","","","","","","","","","","","","","",""
"","response","","html-keyboard-response","526","1818246","0.0-1.0-734.0-0.0","0","0","89254","","962","","","75","81","","","2","81","training","adjacent","FE","6","5","R.jpg","Q.jpg","0","0","1","",""
"","feedback","","html-keyboard-response","527","1819252","0.0-1.0-735.0-0.0","0","0","89254","","null","","","null","81","","","","","","","","","","","","","","","",""
"","ITI","","html-keyboard-response","528","1820259","0.0-1.0-738.0","0","0","89254","","null","","","null","81","","","","","","","","","","","","","","","NaN",""
"","S1","","html-keyboard-response","529","1820513","0.0-1.0-740.0","0","0","89254","","null","","","null","82","","","","","","","","","","","","","","","",""
"","ISI","","html-keyboard-response","530","1822517","0.0-1.0-741.0","0","0","89254","","null","","","null","82","NaN","","","","","","","","","","","","","","",""
"","S2","","html-keyboard-response","531","1822772","0.0-1.0-742.0","0","0","89254","","null","","","null","82","","NaN","","","","","","","","","","","","","",""
"","response","","html-keyboard-response","532","1823642","0.0-1.0-743.0-0.0","0","0","89254","","867","","","75","82","","","2","82","training","adjacent","BA","2","1","M.jpg","O.jpg","0","0","1","",""
"","feedback","","html-keyboard-response","533","1824646","0.0-1.0-744.0-0.0","0","0","89254","","null","","","null","82","","","","","","","","","","","","","","","",""
"","ITI","","html-keyboard-response","534","1825651","0.0-1.0-747.0","0","0","89254","","null","","","null","82","","","","","","","","","","","","","","","NaN",""
"","S1","","html-keyboard-response","535","1825906","0.0-1.0-749.0","0","0","89254","","null","","","null","83","","","","","","","","","","","","","","","",""
"","ISI","","html-keyboard-response","536","1827910","0.0-1.0-750.0","0","0","89254","","1095","","","75","83","k","","","","","","","","","","","","","","",""
"","S2","","html-keyboard-response","537","1828022","0.0-1.0-751.0","0","0","89254","","109","","","75","83","","k","2","83","training","adjacent","ED","5","4","Q.jpg","P.jpg","0","0","1","",""
"","feedback","","html-keyboard-response","538","1829026","0.0-1.0-753.0-0.0","0","0","89254","","null","","","null","83","","","","","","","","","","","","","","","",""
"","ITI","","html-keyboard-response","539","1830031","0.0-1.0-756.0","0","0","89254","","null","","","null","83","","","","","","","","","","","","","","","NaN",""
"","S1","","html-keyboard-response","540","1830286","0.0-1.0-758.0","0","0","89254","","null","","","null","84","","","","","","","","","","","","","","","",""
"","ISI","","html-keyboard-response","541","1832295","0.0-1.0-759.0","0","0","89254","","1175","","","68","84","d","","","","","","","","","","","","","","",""
"","S2","","html-keyboard-response","542","1832550","0.0-1.0-760.0","0","0","89254","","null","","","null","84","","NaN","","","","","","","","","","","","","",""
"","response","","html-keyboard-response","543","1834305","0.0-1.0-761.0-0.0","0","0","89254","","null","","","null","84","","","2","84","training","adjacent","BC","2","3","M.jpg","N.jpg","NaN","1","0","",""
"","too_slow_prompt","","html-keyboard-response","544","1835310","0.0-1.0-763.0-0.0","1","0","89254","","null","","","null","","","","","","","","","","","","","","","","",""
"","time_out","","html-keyboard-response","545","1837316","0.0-1.0-764.0-0.0","0","0","89254","","null","","","null","84","","","","","","","","","","","","","","","",""
"","ITI","","html-keyboard-response","546","1838321","0.0-1.0-765.0","0","0","89254","","null","","","null","84","","","","","","","","","","","","","","","NaN",""
"","S1","","html-keyboard-response","547","1838579","0.0-1.0-767.0","0","0","89254","","null","","","null","85","","","","","","","","","","","","","","","",""
"","ISI","","html-keyboard-response","548","1840616","0.0-1.0-768.0","0","0","89254","","299","","","68","85","d","","","","","","","","","","","","","","",""
"","S2","","html-keyboard-response","549","1840870","0.0-1.0-769.0","0","0","89254","","null","","","null","85","","NaN","","","","","","","","","","","","","",""
"","response","","html-keyboard-response","550","1842625","0.0-1.0-770.0-0.0","0","0","89254","","null","","","null","85","","","2","85","training","adjacent","DC","4","3","P.jpg","N.jpg","NaN","0","0","",""
"","too_slow_prompt","","html-keyboard-response","551","1843631","0.0-1.0-772.0-0.0","1","0","89254","","null","","","null","","","","","","","","","","","","","","","","",""
"","time_out","","html-keyboard-response","552","1845634","0.0-1.0-773.0-0.0","0","0","89254","","null","","","null","85","","","","","","","","","","","","","","","",""
"","ITI","","html-keyboard-response","553","1846637","0.0-1.0-774.0","0","0","89254","","367","","","75","85","","","","","","","","","","","","","","","k",""
"","S1","","html-keyboard-response","554","1846891","0.0-1.0-776.0","0","0","89254","","null","","","null","86","","","","","","","","","","","","","","","",""
"","ISI","","html-keyboard-response","555","1848895","0.0-1.0-777.0","0","0","89254","","189","","","75","86","k","","","","","","","","","","","","","","",""
"","S2","","html-keyboard-response","556","1849150","0.0-1.0-778.0","0","0","89254","","null","","","null","86","","NaN","","","","","","","","","","","","","",""
"","response","","html-keyboard-response","557","1849501","0.0-1.0-779.0-0.0","0","0","89254","","348","","","75","86","","","2","86","training","adjacent","FG","6","7","R.jpg","L.jpg","0","1","0","",""
"","feedback","","html-keyboard-response","558","1850506","0.0-1.0-780.0-0.0","0","0","89254","","null","","","null","86","","","","","","","","","","","","","","","",""
"","time_out","","html-keyboard-response","559","1852510","0.0-1.0-782.0-0.0","0","0","89254","","null","","","null","86","","","","","","","","","","","","","","","",""
"","ITI","","html-keyboard-response","560","1853514","0.0-1.0-783.0","0","0","89254","","null","","","null","86","","","","","","","","","","","","","","","NaN",""
"","S1","","html-keyboard-response","561","1853768","0.0-1.0-785.0","0","0","89254","","null","","","null","87","","","","","","","","","","","","","","","",""
"","ISI","","html-keyboard-response","562","1855772","0.0-1.0-786.0","0","0","89254","","null","","","null","87","NaN","","","","","","","","","","","","","","",""
"","S2","","html-keyboard-response","563","1856025","0.0-1.0-787.0","0","0","89254","","null","","","null","87","","NaN","","","","","","","","","","","","","",""
"","response","","html-keyboard-response","564","1856363","0.0-1.0-788.0-0.0","0","0","89254","","333","","","68","87","","","2","87","training","adjacent","EF","5","6","Q.jpg","R.jpg","1","1","1","",""
"","feedback","","html-keyboard-response","565","1857369","0.0-1.0-789.0-0.0","0","0","89254","","null","","","null","87","","","","","","","","","","","","","","","",""
"","ITI","","html-keyboard-response","566","1858374","0.0-1.0-792.0","0","0","89254","","null","","","null","87","","","","","","","","","","","","","","","NaN",""
"","S1","","html-keyboard-response","567","1858629","0.0-1.0-794.0","0","0","89254","","null","","","null","88","","","","","","","","","","","","","","","",""
"","ISI","","html-keyboard-response","568","1860632","0.0-1.0-795.0","0","0","89254","","null","","","null","88","NaN","","","","","","","","","","","","","","",""
"","S2","","html-keyboard-response","569","1860889","0.0-1.0-796.0","0","0","89254","","null","","","null","88","","NaN","","","","","","","","","","","","","",""
"","response","","html-keyboard-response","570","1861803","0.0-1.0-797.0-0.0","0","0","89254","","910","","","68","88","","","2","88","training","adjacent","DC","4","3","P.jpg","N.jpg","1","0","0","",""
"","feedback","","html-keyboard-response","571","1862808","0.0-1.0-798.0-0.0","0","0","89254","","null","","","null","88","","","","","","","","","","","","","","","",""
"","time_out","","html-keyboard-response","572","1864814","0.0-1.0-800.0-0.0","0","0","89254","","null","","","null","88","","","","","","","","","","","","","","","",""
"","ITI","","html-keyboard-response","573","1865819","0.0-1.0-801.0","0","0","89254","","null","","","null","88","","","","","","","","","","","","","","","NaN",""
"","S1","","html-keyboard-response","574","1866074","0.0-1.0-803.0","0","0","89254","","null","","","null","89","","","","","","","","","","","","","","","",""
"","ISI","","html-keyboard-response","575","1868078","0.0-1.0-804.0","0","0","89254","","768","","","75","89","k","","","","","","","","","","","","","","",""
"","S2","","html-keyboard-response","576","1868224","0.0-1.0-805.0","0","0","89254","","142","","","75","89","","k","2","89","training","adjacent","AB","1","2","O.jpg","M.jpg","0","1","0","",""
"","feedback","","html-keyboard-response","577","1869230","0.0-1.0-807.0-0.0","0","0","89254","","null","","","null","89","","","","","","","","","","","","","","","",""
