"success","ttype","start_time","trial_type","trial_index","time_elapsed","internal_node_id","warning","missed_checkup","PID","view_history","rt","responses","repeat_instructions","key_press","index","keypress_isi","keypress_S2","block","trial_num","phase","group_type","pair_type","S1_stim","S2_stim","S1_img","S2_img","S1_chosen","S1_higher","accuracy","keypress_iti","total_bonus_tally"
"true","full_screen","d04142023hr2118","fullscreen","0","17494","0.0-0.0","0","0","71953","","","","","","","","","","","","","","","","","","","","","",""
"","instructions","","instructions","1","48029","0.0-1.0-0.0-0.0","0","0","71953","[{""page_index"":0,""viewing_time"":2901},{""page_index"":1,""viewing_time"":19561},{""page_index"":2,""viewing_time"":6216},{""page_index"":3,""viewing_time"":1854}]","30533","","","","","","","","","","","","","","","","","","","",""
"","comprehension_check","","survey-multi-choice","2","67272","0.0-1.0-0.0-1.0","0","0","71953","","19238","{""Q0"":""True"",""Q1"":""K"",""Q2"":""Only when the screen 'MAKE A CHOICE' is shown"",""Q3"":""Green mark"",""Q4"":""either D or K""}","1","","","","","","","","","","","","","","","","","",""
"","missed_instruction_checkup","","html-keyboard-response","3","68965","0.0-1.0-0.0-2.0-0.0","0","1","71953","","1690","","","32","","","","","","","","","","","","","","","","",""
"","instructions","","instructions","4","80331","0.0-1.0-0.1-0.1","0","0","71953","[{""page_index"":0,""viewing_time"":2889},{""page_index"":1,""viewing_time"":6283},{""page_index"":2,""viewing_time"":1085},{""page_index"":3,""viewing_time"":1106}]","11364","","","","","","","","","","","","","","","","","","","",""
"","comprehension_check","","survey-multi-choice","5","90767","0.0-1.0-0.1-1.1","0","0","71953","","10432","{""Q0"":""True"",""Q1"":""K"",""Q2"":""Once the second image appears and while the screen 'MAKE A CHOICE' is shown"",""Q3"":""Green mark"",""Q4"":""either D or K""}","0","","","","","","","","","","","","","","","","","",""
"","start_exp","","html-keyboard-response","6","91745","0.0-1.0-1.0","0","0","71953","","976","","","32","","","","","","","","","","","","","","","","",""
"","S1","","html-keyboard-response","7","91999","0.0-1.0-2.0","0","0","71953","","null","","","null","0","","","","","","","","","","","","","","","",""
"","ISI","","html-keyboard-response","8","93002","0.0-1.0-3.0","0","0","71953","","null","","","null","0","NaN","","","","","","","","","","","","","","",""
"","S2","","html-keyboard-response","9","93255","0.0-1.0-4.0","0","0","71953","","null","","","null","0","","NaN","","","","","","","","","","","","","",""
"","response","","html-keyboard-response","10","95009","0.0-1.0-5.0-0.0","0","0","71953","","null","","","null","0","","","1","0","training","adjacent","AB","1","2","O.jpg","N.jpg","NaN","1","0","",""
"","too_slow_prompt","","html-keyboard-response","11","96013","0.0-1.0-7.0-0.0","1","0","71953","","null","","","null","","","","","","","","","","","","","","","","",""
"","time_out","","html-keyboard-response","12","98015","0.0-1.0-8.0-0.0","0","0","71953","","null","","","null","0","","","","","","","","","","","","","","","",""
"","ITI","","html-keyboard-response","13","99018","0.0-1.0-9.0","0","0","71953","","null","","","null","0","","","","","","","","","","","","","","","NaN",""
"","S1","","html-keyboard-response","14","99271","0.0-1.0-11.0","0","0","71953","","null","","","null","1","","","","","","","","","","","","","","","",""
"","ISI","","html-keyboard-response","15","100273","0.0-1.0-12.0","0","0","71953","","null","","","null","1","NaN","","","","","","","","","","","","","","",""
"","S2","","html-keyboard-response","16","100526","0.0-1.0-13.0","0","0","71953","","null","","","null","1","","NaN","","","","","","","","","","","","","",""
"","response","","html-keyboard-response","17","100958","0.0-1.0-14.0-0.0","0","0","71953","","430","","","68","1","","","1","1","training","adjacent","BC","2","3","N.jpg","M.jpg","0","1","0","",""
"","feedback","","html-keyboard-response","18","101961","0.0-1.0-15.0-0.0","0","0","71953","","null","","","null","1","","","","","","","","","","","","","","","",""
"","time_out","","html-keyboard-response","19","103964","0.0-1.0-17.0-0.0","0","0","71953","","null","","","null","1","","","","","","","","","","","","","","","",""
"","ITI","","html-keyboard-response","20","104967","0.0-1.0-18.0","0","0","71953","","null","","","null","1","","","","","","","","","","","","","","","NaN",""
"","S1","","html-keyboard-response","21","105220","0.0-1.0-20.0","0","0","71953","","null","","","null","2","","","","","","","","","","","","","","","",""
"","ISI","","html-keyboard-response","22","106223","0.0-1.0-21.0","0","0","71953","","null","","","null","2","NaN","","","","","","","","","","","","","","",""
"","S2","","html-keyboard-response","23","106476","0.0-1.0-22.0","0","0","71953","","null","","","null","2","","NaN","","","","","","","","","","","","","",""
"","response","","html-keyboard-response","24","106784","0.0-1.0-23.0-0.0","0","0","71953","","306","","","68","2","","","1","2","training","adjacent","BA","2","1","N.jpg","O.jpg","0","0","1","",""
"","feedback","","html-keyboard-response","25","107787","0.0-1.0-24.0-0.0","0","0","71953","","null","","","null","2","","","","","","","","","","","","","","","",""
"","ITI","","html-keyboard-response","26","108789","0.0-1.0-27.0","0","0","71953","","null","","","null","2","","","","","","","","","","","","","","","NaN",""
"","S1","","html-keyboard-response","27","109042","0.0-1.0-29.0","0","0","71953","","null","","","null","3","","","","","","","","","","","","","","","",""
"","ISI","","html-keyboard-response","28","110045","0.0-1.0-30.0","0","0","71953","","null","","","null","3","NaN","","","","","","","","","","","","","","",""
"","S2","","html-keyboard-response","29","110298","0.0-1.0-31.0","0","0","71953","","null","","","null","3","","NaN","","","","","","","","","","","","","",""
"","response","","html-keyboard-response","30","110581","0.0-1.0-32.0-0.0","0","0","71953","","282","","","75","3","","","1","3","training","adjacent","FG","6","7","L.jpg","R.jpg","1","1","1","",""
"","feedback","","html-keyboard-response","31","111584","0.0-1.0-33.0-0.0","0","0","71953","","null","","","null","3","","","","","","","","","","","","","","","",""
"","ITI","","html-keyboard-response","32","112587","0.0-1.0-36.0","0","0","71953","","null","","","null","3","","","","","","","","","","","","","","","NaN",""
"","S1","","html-keyboard-response","33","112840","0.0-1.0-38.0","0","0","71953","","null","","","null","4","","","","","","","","","","","","","","","",""
"","ISI","","html-keyboard-response","34","113843","0.0-1.0-39.0","0","0","71953","","null","","","null","4","NaN","","","","","","","","","","","","","","",""
"","S2","","html-keyboard-response","35","114096","0.0-1.0-40.0","0","0","71953","","null","","","null","4","","NaN","","","","","","","","","","","","","",""
"","response","","html-keyboard-response","36","114164","0.0-1.0-41.0-0.0","0","0","71953","","67","","","68","4","","","1","4","training","adjacent","GF","7","6","R.jpg","L.jpg","0","0","1","",""
"","feedback","","html-keyboard-response","37","115167","0.0-1.0-42.0-0.0","0","0","71953","","null","","","null","4","","","","","","","","","","","","","","","",""
"","ITI","","html-keyboard-response","38","116170","0.0-1.0-45.0","0","0","71953","","null","","","null","4","","","","","","","","","","","","","","","NaN",""
"","S1","","html-keyboard-response","39","116424","0.0-1.0-47.0","0","0","71953","","null","","","null","5","","","","","","","","","","","","","","","",""
"","ISI","","html-keyboard-response","40","117426","0.0-1.0-48.0","0","0","71953","","null","","","null","5","NaN","","","","","","","","","","","","","","",""
"","S2","","html-keyboard-response","41","117686","0.0-1.0-49.0","0","0","71953","","null","","","null","5","","NaN","","","","","","","","","","","","","",""
"","response","","html-keyboard-response","42","117981","0.0-1.0-50.0-0.0","0","0","71953","","294","","","68","5","","","1","5","training","adjacent","BC","2","3","N.jpg","M.jpg","0","1","0","",""
"","feedback","","html-keyboard-response","43","118984","0.0-1.0-51.0-0.0","0","0","71953","","null","","","null","5","","","","","","","","","","","","","","","",""
"","time_out","","html-keyboard-response","44","120985","0.0-1.0-53.0-0.0","0","0","71953","","null","","","null","5","","","","","","","","","","","","","","","",""
"","ITI","","html-keyboard-response","45","121988","0.0-1.0-54.0","0","0","71953","","null","","","null","5","","","","","","","","","","","","","","","NaN",""
"","S1","","html-keyboard-response","46","122240","0.0-1.0-56.0","0","0","71953","","null","","","null","6","","","","","","","","","","","","","","","",""
"","ISI","","html-keyboard-response","47","123243","0.0-1.0-57.0","0","0","71953","","null","","","null","6","NaN","","","","","","","","","","","","","","",""
"","S2","","html-keyboard-response","48","123497","0.0-1.0-58.0","0","0","71953","","null","","","null","6","","NaN","","","","","","","","","","","","","",""
"","response","","html-keyboard-response","49","123991","0.0-1.0-59.0-0.0","0","0","71953","","493","","","75","6","","","1","6","training","adjacent","FE","6","5","L.jpg","Q.jpg","1","0","0","",""
"","feedback","","html-keyboard-response","50","124993","0.0-1.0-60.0-0.0","0","0","71953","","null","","","null","6","","","","","","","","","","","","","","","",""
"","time_out","","html-keyboard-response","51","126996","0.0-1.0-62.0-0.0","0","0","71953","","null","","","null","6","","","","","","","","","","","","","","","",""
"","ITI","","html-keyboard-response","52","128008","0.0-1.0-63.0","0","0","71953","","null","","","null","6","","","","","","","","","","","","","","","NaN",""
"","S1","","html-keyboard-response","53","128261","0.0-1.0-65.0","0","0","71953","","null","","","null","7","","","","","","","","","","","","","","","",""
"","ISI","","html-keyboard-response","54","129264","0.0-1.0-66.0","0","0","71953","","null","","","null","7","NaN","","","","","","","","","","","","","","",""
"","S2","","html-keyboard-response","55","129516","0.0-1.0-67.0","0","0","71953","","null","","","null","7","","NaN","","","","","","","","","","","","","",""
"","response","","html-keyboard-response","56","129867","0.0-1.0-68.0-0.0","0","0","71953","","350","","","68","7","","","1","7","training","adjacent","EF","5","6","Q.jpg","L.jpg","0","1","0","",""
"","feedback","","html-keyboard-response","57","130870","0.0-1.0-69.0-0.0","0","0","71953","","null","","","null","7","","","","","","","","","","","","","","","",""
"","time_out","","html-keyboard-response","58","132872","0.0-1.0-71.0-0.0","0","0","71953","","null","","","null","7","","","","","","","","","","","","","","","",""
"","ITI","","html-keyboard-response","59","133875","0.0-1.0-72.0","0","0","71953","","null","","","null","7","","","","","","","","","","","","","","","NaN",""
"","S1","","html-keyboard-response","60","134129","0.0-1.0-74.0","0","0","71953","","null","","","null","8","","","","","","","","","","","","","","","",""
"","ISI","","html-keyboard-response","61","135131","0.0-1.0-75.0","0","0","71953","","null","","","null","8","NaN","","","","","","","","","","","","","","",""
"","S2","","html-keyboard-response","62","135384","0.0-1.0-76.0","0","0","71953","","null","","","null","8","","NaN","","","","","","","","","","","","","",""
"","response","","html-keyboard-response","63","135928","0.0-1.0-77.0-0.0","0","0","71953","","541","","","68","8","","","1","8","training","adjacent","DC","4","3","P.jpg","M.jpg","0","0","1","",""
"","feedback","","html-keyboard-response","64","136930","0.0-1.0-78.0-0.0","0","0","71953","","null","","","null","8","","","","","","","","","","","","","","","",""
"","ITI","","html-keyboard-response","65","137932","0.0-1.0-81.0","0","0","71953","","null","","","null","8","","","","","","","","","","","","","","","NaN",""
"","S1","","html-keyboard-response","66","138185","0.0-1.0-83.0","0","0","71953","","null","","","null","9","","","","","","","","","","","","","","","",""
"","ISI","","html-keyboard-response","67","139187","0.0-1.0-84.0","0","0","71953","","null","","","null","9","NaN","","","","","","","","","","","","","","",""
"","S2","","html-keyboard-response","68","139441","0.0-1.0-85.0","0","0","71953","","null","","","null","9","","NaN","","","","","","","","","","","","","",""
"","response","","html-keyboard-response","69","139869","0.0-1.0-86.0-0.0","0","0","71953","","426","","","75","9","","","1","9","training","adjacent","CB","3","2","M.jpg","N.jpg","1","0","0","",""
"","feedback","","html-keyboard-response","70","140872","0.0-1.0-87.0-0.0","0","0","71953","","null","","","null","9","","","","","","","","","","","","","","","",""
"","time_out","","html-keyboard-response","71","142875","0.0-1.0-89.0-0.0","0","0","71953","","null","","","null","9","","","","","","","","","","","","","","","",""
"","ITI","","html-keyboard-response","72","143878","0.0-1.0-90.0","0","0","71953","","null","","","null","9","","","","","","","","","","","","","","","NaN",""
"","S1","","html-keyboard-response","73","144130","0.0-1.0-92.0","0","0","71953","","null","","","null","10","","","","","","","","","","","","","","","",""
"","ISI","","html-keyboard-response","74","145132","0.0-1.0-93.0","0","0","71953","","null","","","null","10","NaN","","","","","","","","","","","","","","",""
"","S2","","html-keyboard-response","75","145385","0.0-1.0-94.0","0","0","71953","","null","","","null","10","","NaN","","","","","","","","","","","","","",""
"","response","","html-keyboard-response","76","145645","0.0-1.0-95.0-0.0","0","0","71953","","259","","","75","10","","","1","10","training","adjacent","CB","3","2","M.jpg","N.jpg","1","0","0","",""
"","feedback","","html-keyboard-response","77","146648","0.0-1.0-96.0-0.0","0","0","71953","","null","","","null","10","","","","","","","","","","","","","","","",""
"","time_out","","html-keyboard-response","78","148650","0.0-1.0-98.0-0.0","0","0","71953","","null","","","null","10","","","","","","","","","","","","","","","",""
"","ITI","","html-keyboard-response","79","149652","0.0-1.0-99.0","0","0","71953","","null","","","null","10","","","","","","","","","","","","","","","NaN",""
"","S1","","html-keyboard-response","80","149904","0.0-1.0-101.0","0","0","71953","","null","","","null","11","","","","","","","","","","","","","","","",""
"","ISI","","html-keyboard-response","81","150907","0.0-1.0-102.0","0","0","71953","","null","","","null","11","NaN","","","","","","","","","","","","","","",""
"","S2","","html-keyboard-response","82","151131","0.0-1.0-103.0","0","0","71953","","222","","","68","11","","d","1","11","training","adjacent","CD","3","4","M.jpg","P.jpg","0","1","0","",""
"","feedback","","html-keyboard-response","83","152135","0.0-1.0-105.0-0.0","0","0","71953","","null","","","null","11","","","","","","","","","","","","","","","",""
"","time_out","","html-keyboard-response","84","154137","0.0-1.0-107.0-0.0","0","0","71953","","null","","","null","11","","","","","","","","","","","","","","","",""
"","ITI","","html-keyboard-response","85","155139","0.0-1.0-108.0","0","0","71953","","null","","","null","11","","","","","","","","","","","","","","","NaN",""
"","S1","","html-keyboard-response","86","155392","0.0-1.0-110.0","0","0","71953","","null","","","null","12","","","","","","","","","","","","","","","",""
"","ISI","","html-keyboard-response","87","156395","0.0-1.0-111.0","0","0","71953","","null","","","null","12","NaN","","","","","","","","","","","","","","",""
"","S2","","html-keyboard-response","88","156647","0.0-1.0-112.0","0","0","71953","","null","","","null","12","","NaN","","","","","","","","","","","","","",""
"","response","","html-keyboard-response","89","157016","0.0-1.0-113.0-0.0","0","0","71953","","367","","","68","12","","","1","12","training","adjacent","EF","5","6","Q.jpg","L.jpg","0","1","0","",""
"","feedback","","html-keyboard-response","90","158019","0.0-1.0-114.0-0.0","0","0","71953","","null","","","null","12","","","","","","","","","","","","","","","",""
"","time_out","","html-keyboard-response","91","160021","0.0-1.0-116.0-0.0","0","0","71953","","null","","","null","12","","","","","","","","","","","","","","","",""
"","ITI","","html-keyboard-response","92","161024","0.0-1.0-117.0","0","0","71953","","null","","","null","12","","","","","","","","","","","","","","","NaN",""
"","S1","","html-keyboard-response","93","161277","0.0-1.0-119.0","0","0","71953","","null","","","null","13","","","","","","","","","","","","","","","",""
"","ISI","","html-keyboard-response","94","162279","0.0-1.0-120.0","0","0","71953","","null","","","null","13","NaN","","","","","","","","","","","","","","",""
"","S2","","html-keyboard-response","95","162533","0.0-1.0-121.0","0","0","71953","","null","","","null","13","","NaN","","","","","","","","","","","","","",""
"","response","","html-keyboard-response","96","162752","0.0-1.0-122.0-0.0","0","0","71953","","217","","","68","13","","","1","13","training","adjacent","ED","5","4","Q.jpg","P.jpg","0","0","1","",""
"","feedback","","html-keyboard-response","97","163755","0.0-1.0-123.0-0.0","0","0","71953","","null","","","null","13","","","","","","","","","","","","","","","",""
"","ITI","","html-keyboard-response","98","164757","0.0-1.0-126.0","0","0","71953","","null","","","null","13","","","","","","","","","","","","","","","NaN",""
"","S1","","html-keyboard-response","99","165010","0.0-1.0-128.0","0","0","71953","","null","","","null","14","","","","","","","","","","","","","","","",""
"","ISI","","html-keyboard-response","100","166013","0.0-1.0-129.0","0","0","71953","","null","","","null","14","NaN","","","","","","","","","","","","","","",""
"","S2","","html-keyboard-response","101","166266","0.0-1.0-130.0","0","0","71953","","null","","","null","14","","NaN","","","","","","","","","","","","","",""
"","response","","html-keyboard-response","102","166765","0.0-1.0-131.0-0.0","0","0","71953","","496","","","75","14","","","1","14","training","adjacent","BA","2","1","N.jpg","O.jpg","1","0","0","",""
"","feedback","","html-keyboard-response","103","167767","0.0-1.0-132.0-0.0","0","0","71953","","null","","","null","14","","","","","","","","","","","","","","","",""
"","time_out","","html-keyboard-response","104","169769","0.0-1.0-134.0-0.0","0","0","71953","","null","","","null","14","","","","","","","","","","","","","","","",""
"","ITI","","html-keyboard-response","105","170772","0.0-1.0-135.0","0","0","71953","","null","","","null","14","","","","","","","","","","","","","","","NaN",""
"","S1","","html-keyboard-response","106","171025","0.0-1.0-137.0","0","0","71953","","null","","","null","15","","","","","","","","","","","","","","","",""
"","ISI","","html-keyboard-response","107","172028","0.0-1.0-138.0","0","0","71953","","null","","","null","15","NaN","","","","","","","","","","","","","","",""
"","S2","","html-keyboard-response","108","172281","0.0-1.0-139.0","0","0","71953","","null","","","null","15","","NaN","","","","","","","","","","","","","",""
"","response","","html-keyboard-response","109","172306","0.0-1.0-140.0-0.0","0","0","71953","","22","","","68","15","","","1","15","training","adjacent","GF","7","6","R.jpg","L.jpg","0","0","1","",""
"","feedback","","html-keyboard-response","110","173309","0.0-1.0-141.0-0.0","0","0","71953","","null","","","null","15","","","","","","","","","","","","","","","",""
"","ITI","","html-keyboard-response","111","174311","0.0-1.0-144.0","0","0","71953","","null","","","null","15","","","","","","","","","","","","","","","NaN",""
"","S1","","html-keyboard-response","112","174564","0.0-1.0-146.0","0","0","71953","","null","","","null","16","","","","","","","","","","","","","","","",""
"","ISI","","html-keyboard-response","113","175567","0.0-1.0-147.0","0","0","71953","","null","","","null","16","NaN","","","","","","","","","","","","","","",""
"","S2","","html-keyboard-response","114","175821","0.0-1.0-148.0","0","0","71953","","null","","","null","16","","NaN","","","","","","","","","","","","","",""
"","response","","html-keyboard-response","115","176011","0.0-1.0-149.0-0.0","0","0","71953","","189","","","68","16","","","1","16","training","adjacent","BA","2","1","N.jpg","O.jpg","0","0","1","",""
"","feedback","","html-keyboard-response","116","177015","0.0-1.0-150.0-0.0","0","0","71953","","null","","","null","16","","","","","","","","","","","","","","","",""
"","ITI","","html-keyboard-response","117","178018","0.0-1.0-153.0","0","0","71953","","null","","","null","16","","","","","","","","","","","","","","","NaN",""
"","S1","","html-keyboard-response","118","178271","0.0-1.0-155.0","0","0","71953","","null","","","null","17","","","","","","","","","","","","","","","",""
"","ISI","","html-keyboard-response","119","179273","0.0-1.0-156.0","0","0","71953","","null","","","null","17","NaN","","","","","","","","","","","","","","",""
"","S2","","html-keyboard-response","120","179526","0.0-1.0-157.0","0","0","71953","","null","","","null","17","","NaN","","","","","","","","","","","","","",""
"","response","","html-keyboard-response","121","179529","0.0-1.0-158.0-0.0","0","0","71953","","1","","","75","17","","","1","17","training","adjacent","DC","4","3","P.jpg","M.jpg","1","0","0","",""
"","feedback","","html-keyboard-response","122","180532","0.0-1.0-159.0-0.0","0","0","71953","","null","","","null","17","","","","","","","","","","","","","","","",""
"","time_out","","html-keyboard-response","123","182535","0.0-1.0-161.0-0.0","0","0","71953","","null","","","null","17","","","","","","","","","","","","","","","",""
"","ITI","","html-keyboard-response","124","183537","0.0-1.0-162.0","0","0","71953","","null","","","null","17","","","","","","","","","","","","","","","NaN",""
"","S1","","html-keyboard-response","125","183790","0.0-1.0-164.0","0","0","71953","","null","","","null","18","","","","","","","","","","","","","","","",""
"","ISI","","html-keyboard-response","126","184792","0.0-1.0-165.0","0","0","71953","","null","","","null","18","NaN","","","","","","","","","","","","","","",""
"","S2","","html-keyboard-response","127","185045","0.0-1.0-166.0","0","0","71953","","null","","","null","18","","NaN","","","","","","","","","","","","","",""
"","response","","html-keyboard-response","128","185405","0.0-1.0-167.0-0.0","0","0","71953","","358","","","75","18","","","1","18","training","adjacent","BA","2","1","N.jpg","O.jpg","1","0","0","",""
"","feedback","","html-keyboard-response","129","186409","0.0-1.0-168.0-0.0","0","0","71953","","null","","","null","18","","","","","","","","","","","","","","","",""
"","time_out","","html-keyboard-response","130","188410","0.0-1.0-170.0-0.0","0","0","71953","","null","","","null","18","","","","","","","","","","","","","","","",""
"","ITI","","html-keyboard-response","131","189429","0.0-1.0-171.0","0","0","71953","","null","","","null","18","","","","","","","","","","","","","","","NaN",""
"","S1","","html-keyboard-response","132","189683","0.0-1.0-173.0","0","0","71953","","null","","","null","19","","","","","","","","","","","","","","","",""
"","ISI","","html-keyboard-response","133","190686","0.0-1.0-174.0","0","0","71953","","null","","","null","19","NaN","","","","","","","","","","","","","","",""
"","S2","","html-keyboard-response","134","190938","0.0-1.0-175.0","0","0","71953","","null","","","null","19","","NaN","","","","","","","","","","","","","",""
"","response","","html-keyboard-response","135","191765","0.0-1.0-176.0-0.0","0","0","71953","","824","","","68","19","","","1","19","training","adjacent","FE","6","5","L.jpg","Q.jpg","0","0","1","",""
"","feedback","","html-keyboard-response","136","192767","0.0-1.0-177.0-0.0","0","0","71953","","null","","","null","19","","","","","","","","","","","","","","","",""
"","ITI","","html-keyboard-response","137","193770","0.0-1.0-180.0","0","0","71953","","null","","","null","19","","","","","","","","","","","","","","","NaN",""
"","S1","","html-keyboard-response","138","194023","0.0-1.0-182.0","0","0","71953","","null","","","null","20","","","","","","","","","","","","","","","",""
"","ISI","","html-keyboard-response","139","195025","0.0-1.0-183.0","0","0","71953","","null","","","null","20","NaN","","","","","","","","","","","","","","",""
"","S2","","html-keyboard-response","140","195278","0.0-1.0-184.0","0","0","71953","","null","","","null","20","","NaN","","","","","","","","","","","","","",""
"","response","","html-keyboard-response","141","195961","0.0-1.0-185.0-0.0","0","0","71953","","681","","","68","20","","","1","20","training","adjacent","DE","4","5","P.jpg","Q.jpg","0","1","0","",""
"","feedback","","html-keyboard-response","142","196964","0.0-1.0-186.0-0.0","0","0","71953","","null","","","null","20","","","","","","","","","","","","","","","",""
"","time_out","","html-keyboard-response","143","198967","0.0-1.0-188.0-0.0","0","0","71953","","null","","","null","20","","","","","","","","","","","","","","","",""
"","ITI","","html-keyboard-response","144","199969","0.0-1.0-189.0","0","0","71953","","null","","","null","20","","","","","","","","","","","","","","","NaN",""
"","S1","","html-keyboard-response","145","200222","0.0-1.0-191.0","0","0","71953","","null","","","null","21","","","","","","","","","","","","","","","",""
"","ISI","","html-keyboard-response","146","201226","0.0-1.0-192.0","0","0","71953","","null","","","null","21","NaN","","","","","","","","","","","","","","",""
"","S2","","html-keyboard-response","147","201479","0.0-1.0-193.0","0","0","71953","","null","","","null","21","","NaN","","","","","","","","","","","","","",""
"","response","","html-keyboard-response","148","201602","0.0-1.0-194.0-0.0","0","0","71953","","121","","","75","21","","","1","21","training","adjacent","FE","6","5","L.jpg","Q.jpg","1","0","0","",""
"","feedback","","html-keyboard-response","149","202604","0.0-1.0-195.0-0.0","0","0","71953","","null","","","null","21","","","","","","","","","","","","","","","",""
"","time_out","","html-keyboard-response","150","204607","0.0-1.0-197.0-0.0","0","0","71953","","null","","","null","21","","","","","","","","","","","","","","","",""
"","ITI","","html-keyboard-response","151","205610","0.0-1.0-198.0","0","0","71953","","null","","","null","21","","","","","","","","","","","","","","","NaN",""
"","S1","","html-keyboard-response","152","205863","0.0-1.0-200.0","0","0","71953","","null","","","null","22","","","","","","","","","","","","","","","",""
"","ISI","","html-keyboard-response","153","206866","0.0-1.0-201.0","0","0","71953","","null","","","null","22","NaN","","","","","","","","","","","","","","",""
"","S2","","html-keyboard-response","154","207118","0.0-1.0-202.0","0","0","71953","","null","","","null","22","","NaN","","","","","","","","","","","","","",""
"","response","","html-keyboard-response","155","207537","0.0-1.0-203.0-0.0","0","0","71953","","417","","","68","22","","","1","22","training","adjacent","ED","5","4","Q.jpg","P.jpg","0","0","1","",""
"","feedback","","html-keyboard-response","156","208541","0.0-1.0-204.0-0.0","0","0","71953","","null","","","null","22","","","","","","","","","","","","","","","",""
"","ITI","","html-keyboard-response","157","209544","0.0-1.0-207.0","0","0","71953","","null","","","null","22","","","","","","","","","","","","","","","NaN",""
"","S1","","html-keyboard-response","158","209796","0.0-1.0-209.0","0","0","71953","","null","","","null","23","","","","","","","","","","","","","","","",""
"","ISI","","html-keyboard-response","159","210798","0.0-1.0-210.0","0","0","71953","","null","","","null","23","NaN","","","","","","","","","","","","","","",""
"","S2","","html-keyboard-response","160","211051","0.0-1.0-211.0","0","0","71953","","null","","","null","23","","NaN","","","","","","","","","","","","","",""
"","response","","html-keyboard-response","161","211185","0.0-1.0-212.0-0.0","0","0","71953","","131","","","75","23","","","1","23","training","adjacent","FG","6","7","L.jpg","R.jpg","1","1","1","",""
"","feedback","","html-keyboard-response","162","212188","0.0-1.0-213.0-0.0","0","0","71953","","null","","","null","23","","","","","","","","","","","","","","","",""
"","ITI","","html-keyboard-response","163","213192","0.0-1.0-216.0","0","0","71953","","null","","","null","23","","","","","","","","","","","","","","","NaN",""
"","S1","","html-keyboard-response","164","213446","0.0-1.0-218.0","0","0","71953","","null","","","null","24","","","","","","","","","","","","","","","",""
"","ISI","","html-keyboard-response","165","214448","0.0-1.0-219.0","0","0","71953","","null","","","null","24","NaN","","","","","","","","","","","","","","",""
"","S2","","html-keyboard-response","166","214702","0.0-1.0-220.0","0","0","71953","","null","","","null","24","","NaN","","","","","","","","","","","","","",""
"","response","","html-keyboard-response","167","215217","0.0-1.0-221.0-0.0","0","0","71953","","513","","","75","24","","","1","24","training","adjacent","GF","7","6","R.jpg","L.jpg","1","0","0","",""
"","feedback","","html-keyboard-response","168","216221","0.0-1.0-222.0-0.0","0","0","71953","","null","","","null","24","","","","","","","","","","","","","","","",""
"","time_out","","html-keyboard-response","169","218224","0.0-1.0-224.0-0.0","0","0","71953","","null","","","null","24","","","","","","","","","","","","","","","",""
"","ITI","","html-keyboard-response","170","219226","0.0-1.0-225.0","0","0","71953","","null","","","null","24","","","","","","","","","","","","","","","NaN",""
"","S1","","html-keyboard-response","171","219479","0.0-1.0-227.0","0","0","71953","","null","","","null","25","","","","","","","","","","","","","","","",""
"","ISI","","html-keyboard-response","172","220482","0.0-1.0-228.0","0","0","71953","","null","","","null","25","NaN","","","","","","","","","","","","","","",""
"","S2","","html-keyboard-response","173","220735","0.0-1.0-229.0","0","0","71953","","null","","","null","25","","NaN","","","","","","","","","","","","","",""
"","response","","html-keyboard-response","174","221222","0.0-1.0-230.0-0.0","0","0","71953","","486","","","75","25","","","1","25","training","adjacent","AB","1","2","O.jpg","N.jpg","1","1","1","",""
"","feedback","","html-keyboard-response","175","222225","0.0-1.0-231.0-0.0","0","0","71953","","null","","","null","25","","","","","","","","","","","","","","","",""
"","ITI","","html-keyboard-response","176","223232","0.0-1.0-234.0","0","0","71953","","null","","","null","25","","","","","","","","","","","","","","","NaN",""
"","S1","","html-keyboard-response","177","223489","0.0-1.0-236.0","0","0","71953","","null","","","null","26","","","","","","","","","","","","","","","",""
"","ISI","","html-keyboard-response","178","224492","0.0-1.0-237.0","0","0","71953","","null","","","null","26","NaN","","","","","","","","","","","","","","",""
"","S2","","html-keyboard-response","179","224744","0.0-1.0-238.0","0","0","71953","","null","","","null","26","","NaN","","","","","","","","","","","","","",""
"","response","","html-keyboard-response","180","225156","0.0-1.0-239.0-0.0","0","0","71953","","408","","","68","26","","","1","26","training","adjacent","EF","5","6","Q.jpg","L.jpg","0","1","0","",""
"","feedback","","html-keyboard-response","181","226159","0.0-1.0-240.0-0.0","0","0","71953","","null","","","null","26","","","","","","","","","","","","","","","",""
"","time_out","","html-keyboard-response","182","228162","0.0-1.0-242.0-0.0","0","0","71953","","null","","","null","26","","","","","","","","","","","","","","","",""
"","ITI","","html-keyboard-response","183","229165","0.0-1.0-243.0","0","0","71953","","null","","","null","26","","","","","","","","","","","","","","","NaN",""
"","S1","","html-keyboard-response","184","229417","0.0-1.0-245.0","0","0","71953","","null","","","null","27","","","","","","","","","","","","","","","",""
"","ISI","","html-keyboard-response","185","230419","0.0-1.0-246.0","0","0","71953","","null","","","null","27","NaN","","","","","","","","","","","","","","",""
"","S2","","html-keyboard-response","186","230672","0.0-1.0-247.0","0","0","71953","","null","","","null","27","","NaN","","","","","","","","","","","","","",""
"","response","","html-keyboard-response","187","231009","0.0-1.0-248.0-0.0","0","0","71953","","334","","","68","27","","","1","27","training","adjacent","DE","4","5","P.jpg","Q.jpg","0","1","0","",""
"","feedback","","html-keyboard-response","188","232012","0.0-1.0-249.0-0.0","0","0","71953","","null","","","null","27","","","","","","","","","","","","","","","",""
"","time_out","","html-keyboard-response","189","234014","0.0-1.0-251.0-0.0","0","0","71953","","null","","","null","27","","","","","","","","","","","","","","","",""
"","ITI","","html-keyboard-response","190","235016","0.0-1.0-252.0","0","0","71953","","null","","","null","27","","","","","","","","","","","","","","","NaN",""
"","S1","","html-keyboard-response","191","235270","0.0-1.0-254.0","0","0","71953","","null","","","null","28","","","","","","","","","","","","","","","",""
"","ISI","","html-keyboard-response","192","236274","0.0-1.0-255.0","0","0","71953","","null","","","null","28","NaN","","","","","","","","","","","","","","",""
"","S2","","html-keyboard-response","193","236526","0.0-1.0-256.0","0","0","71953","","null","","","null","28","","NaN","","","","","","","","","","","","","",""
"","response","","html-keyboard-response","194","236620","0.0-1.0-257.0-0.0","0","0","71953","","91","","","75","28","","","1","28","training","adjacent","FE","6","5","L.jpg","Q.jpg","1","0","0","",""
"","feedback","","html-keyboard-response","195","237634","0.0-1.0-258.0-0.0","0","0","71953","","null","","","null","28","","","","","","","","","","","","","","","",""
"","time_out","","html-keyboard-response","196","239637","0.0-1.0-260.0-0.0","0","0","71953","","null","","","null","28","","","","","","","","","","","","","","","",""
"","ITI","","html-keyboard-response","197","240640","0.0-1.0-261.0","0","0","71953","","658","","","75","28","","","","","","","","","","","","","","","k",""
"","S1","","html-keyboard-response","198","240893","0.0-1.0-263.0","0","0","71953","","null","","","null","29","","","","","","","","","","","","","","","",""
"","ISI","","html-keyboard-response","199","241896","0.0-1.0-264.0","0","0","71953","","null","","","null","29","NaN","","","","","","","","","","","","","","",""
"","S2","","html-keyboard-response","200","242149","0.0-1.0-265.0","0","0","71953","","null","","","null","29","","NaN","","","","","","","","","","","","","",""
"","response","","html-keyboard-response","201","242556","0.0-1.0-266.0-0.0","0","0","71953","","405","","","68","29","","","1","29","training","adjacent","CD","3","4","M.jpg","P.jpg","0","1","0","",""
"","feedback","","html-keyboard-response","202","243560","0.0-1.0-267.0-0.0","0","0","71953","","null","","","null","29","","","","","","","","","","","","","","","",""
"","time_out","","html-keyboard-response","203","245562","0.0-1.0-269.0-0.0","0","0","71953","","null","","","null","29","","","","","","","","","","","","","","","",""
"","ITI","","html-keyboard-response","204","246565","0.0-1.0-270.0","0","0","71953","","null","","","null","29","","","","","","","","","","","","","","","NaN",""
"","S1","","html-keyboard-response","205","246818","0.0-1.0-272.0","0","0","71953","","null","","","null","30","","","","","","","","","","","","","","","",""
"","ISI","","html-keyboard-response","206","247820","0.0-1.0-273.0","0","0","71953","","null","","","null","30","NaN","","","","","","","","","","","","","","",""
"","S2","","html-keyboard-response","207","248073","0.0-1.0-274.0","0","0","71953","","null","","","null","30","","NaN","","","","","","","","","","","","","",""
"","response","","html-keyboard-response","208","249105","0.0-1.0-275.0-0.0","0","0","71953","","1031","","","75","30","","","1","30","training","adjacent","BC","2","3","N.jpg","M.jpg","1","1","1","",""
"","feedback","","html-keyboard-response","209","250109","0.0-1.0-276.0-0.0","0","0","71953","","null","","","null","30","","","","","","","","","","","","","","","",""
"","ITI","","html-keyboard-response","210","251113","0.0-1.0-279.0","0","0","71953","","null","","","null","30","","","","","","","","","","","","","","","NaN",""
"","S1","","html-keyboard-response","211","251365","0.0-1.0-281.0","0","0","71953","","null","","","null","31","","","","","","","","","","","","","","","",""
"","ISI","","html-keyboard-response","212","252367","0.0-1.0-282.0","0","0","71953","","null","","","null","31","NaN","","","","","","","","","","","","","","",""
"","S2","","html-keyboard-response","213","252620","0.0-1.0-283.0","0","0","71953","","null","","","null","31","","NaN","","","","","","","","","","","","","",""
"","response","","html-keyboard-response","214","253147","0.0-1.0-284.0-0.0","0","0","71953","","525","","","68","31","","","1","31","training","adjacent","DC","4","3","P.jpg","M.jpg","0","0","1","",""
"","feedback","","html-keyboard-response","215","254150","0.0-1.0-285.0-0.0","0","0","71953","","null","","","null","31","","","","","","","","","","","","","","","",""
"","ITI","","html-keyboard-response","216","255152","0.0-1.0-288.0","0","0","71953","","null","","","null","31","","","","","","","","","","","","","","","NaN",""
"","S1","","html-keyboard-response","217","255404","0.0-1.0-290.0","0","0","71953","","null","","","null","32","","","","","","","","","","","","","","","",""
"","ISI","","html-keyboard-response","218","256407","0.0-1.0-291.0","0","0","71953","","null","","","null","32","NaN","","","","","","","","","","","","","","",""
"","S2","","html-keyboard-response","219","256660","0.0-1.0-292.0","0","0","71953","","null","","","null","32","","NaN","","","","","","","","","","","","","",""
"","response","","html-keyboard-response","220","257059","0.0-1.0-293.0-0.0","0","0","71953","","397","","","68","32","","","1","32","training","adjacent","AB","1","2","O.jpg","N.jpg","0","1","0","",""
"","feedback","","html-keyboard-response","221","258062","0.0-1.0-294.0-0.0","0","0","71953","","null","","","null","32","","","","","","","","","","","","","","","",""
"","time_out","","html-keyboard-response","222","260065","0.0-1.0-296.0-0.0","0","0","71953","","null","","","null","32","","","","","","","","","","","","","","","",""
"","ITI","","html-keyboard-response","223","261067","0.0-1.0-297.0","0","0","71953","","null","","","null","32","","","","","","","","","","","","","","","NaN",""
"","S1","","html-keyboard-response","224","261320","0.0-1.0-299.0","0","0","71953","","null","","","null","33","","","","","","","","","","","","","","","",""
"","ISI","","html-keyboard-response","225","262323","0.0-1.0-300.0","0","0","71953","","null","","","null","33","NaN","","","","","","","","","","","","","","",""
"","S2","","html-keyboard-response","226","262576","0.0-1.0-301.0","0","0","71953","","null","","","null","33","","NaN","","","","","","","","","","","","","",""
"","response","","html-keyboard-response","227","263010","0.0-1.0-302.0-0.0","0","0","71953","","431","","","75","33","","","1","33","training","adjacent","ED","5","4","Q.jpg","P.jpg","1","0","0","",""
"","feedback","","html-keyboard-response","228","264013","0.0-1.0-303.0-0.0","0","0","71953","","null","","","null","33","","","","","","","","","","","","","","","",""
"","time_out","","html-keyboard-response","229","266025","0.0-1.0-305.0-0.0","0","0","71953","","null","","","null","33","","","","","","","","","","","","","","","",""
"","ITI","","html-keyboard-response","230","267028","0.0-1.0-306.0","0","0","71953","","null","","","null","33","","","","","","","","","","","","","","","NaN",""
"","S1","","html-keyboard-response","231","267291","0.0-1.0-308.0","0","0","71953","","null","","","null","34","","","","","","","","","","","","","","","",""
"","ISI","","html-keyboard-response","232","268295","0.0-1.0-309.0","0","0","71953","","null","","","null","34","NaN","","","","","","","","","","","","","","",""
"","S2","","html-keyboard-response","233","268547","0.0-1.0-310.0","0","0","71953","","null","","","null","34","","NaN","","","","","","","","","","","","","",""
"","response","","html-keyboard-response","234","269894","0.0-1.0-311.0-0.0","0","0","71953","","1346","","","68","34","","","1","34","training","adjacent","CB","3","2","M.jpg","N.jpg","0","0","1","",""
"","feedback","","html-keyboard-response","235","270898","0.0-1.0-312.0-0.0","0","0","71953","","null","","","null","34","","","","","","","","","","","","","","","",""
"","ITI","","html-keyboard-response","236","271900","0.0-1.0-315.0","0","0","71953","","null","","","null","34","","","","","","","","","","","","","","","NaN",""
"","S1","","html-keyboard-response","237","272153","0.0-1.0-317.0","0","0","71953","","null","","","null","35","","","","","","","","","","","","","","","",""
"","ISI","","html-keyboard-response","238","273156","0.0-1.0-318.0","0","0","71953","","null","","","null","35","NaN","","","","","","","","","","","","","","",""
"","S2","","html-keyboard-response","239","273408","0.0-1.0-319.0","0","0","71953","","null","","","null","35","","NaN","","","","","","","","","","","","","",""
"","response","","html-keyboard-response","240","274232","0.0-1.0-320.0-0.0","0","0","71953","","821","","","68","35","","","1","35","training","adjacent","FG","6","7","L.jpg","R.jpg","0","1","0","",""
"","feedback","","html-keyboard-response","241","275236","0.0-1.0-321.0-0.0","0","0","71953","","null","","","null","35","","","","","","","","","","","","","","","",""
"","time_out","","html-keyboard-response","242","277322","0.0-1.0-323.0-0.0","0","0","71953","","null","","","null","35","","","","","","","","","","","","","","","",""
"","ITI","","html-keyboard-response","243","278325","0.0-1.0-324.0","0","0","71953","","null","","","null","35","","","","","","","","","","","","","","","NaN",""
"","S1","","html-keyboard-response","244","278578","0.0-1.0-326.0","0","0","71953","","null","","","null","36","","","","","","","","","","","","","","","",""
"","ISI","","html-keyboard-response","245","279581","0.0-1.0-327.0","0","0","71953","","null","","","null","36","NaN","","","","","","","","","","","","","","",""
"","S2","","html-keyboard-response","246","279632","0.0-1.0-328.0","0","0","71953","","49","","","68","36","","d","1","36","training","adjacent","CD","3","4","M.jpg","P.jpg","0","1","0","",""
"","feedback","","html-keyboard-response","247","280635","0.0-1.0-330.0-0.0","0","0","71953","","null","","","null","36","","","","","","","","","","","","","","","",""
"","time_out","","html-keyboard-response","248","283322","0.0-1.0-332.0-0.0","0","0","71953","","null","","","null","36","","","","","","","","","","","","","","","",""
"","ITI","","html-keyboard-response","249","285321","0.0-1.0-333.0","0","0","71953","","null","","","null","36","","","","","","","","","","","","","","","NaN",""
"","S1","","html-keyboard-response","250","285614","0.0-1.0-335.0","0","0","71953","","null","","","null","37","","","","","","","","","","","","","","","",""
"","ISI","","html-keyboard-response","251","286617","0.0-1.0-336.0","0","0","71953","","321","","","68","37","d","","","","","","","","","","","","","","",""
"","S2","","html-keyboard-response","252","286870","0.0-1.0-337.0","0","0","71953","","null","","","null","37","","NaN","","","","","","","","","","","","","",""
"","response","","html-keyboard-response","253","287301","0.0-1.0-338.0-0.0","0","0","71953","","430","","","68","37","","","1","37","training","adjacent","BC","2","3","N.jpg","M.jpg","0","1","0","",""
"","feedback","","html-keyboard-response","254","288304","0.0-1.0-339.0-0.0","0","0","71953","","null","","","null","37","","","","","","","","","","","","","","","",""
"","time_out","","html-keyboard-response","255","290322","0.0-1.0-341.0-0.0","0","0","71953","","null","","","null","37","","","","","","","","","","","","","","","",""
"","ITI","","html-keyboard-response","256","292186","0.0-1.0-342.0","0","0","71953","","null","","","null","37","","","","","","","","","","","","","","","NaN",""
"","S1","","html-keyboard-response","257","292438","0.0-1.0-344.0","0","0","71953","","null","","","null","38","","","","","","","","","","","","","","","",""
"","ISI","","html-keyboard-response","258","293441","0.0-1.0-345.0","0","0","71953","","null","","","null","38","NaN","","","","","","","","","","","","","","",""
"","S2","","html-keyboard-response","259","293693","0.0-1.0-346.0","0","0","71953","","null","","","null","38","","NaN","","","","","","","","","","","","","",""
"","response","","html-keyboard-response","260","294017","0.0-1.0-347.0-0.0","0","0","71953","","322","","","75","38","","","1","38","training","adjacent","AB","1","2","O.jpg","N.jpg","1","1","1","",""
"","feedback","","html-keyboard-response","261","295020","0.0-1.0-348.0-0.0","0","0","71953","","null","","","null","38","","","","","","","","","","","","","","","",""
"","ITI","","html-keyboard-response","262","296339","0.0-1.0-351.0","0","0","71953","","null","","","null","38","","","","","","","","","","","","","","","NaN",""
"","S1","","html-keyboard-response","263","297321","0.0-1.0-353.0","0","0","71953","","null","","","null","39","","","","","","","","","","","","","","","",""
"","ISI","","html-keyboard-response","264","299322","0.0-1.0-354.0","0","0","71953","","null","","","null","39","NaN","","","","","","","","","","","","","","",""
"","S2","","html-keyboard-response","265","299576","0.0-1.0-355.0","0","0","71953","","null","","","null","39","","NaN","","","","","","","","","","","","","",""
"","response","","html-keyboard-response","266","299802","0.0-1.0-356.0-0.0","0","0","71953","","224","","","68","39","","","1","39","training","adjacent","DE","4","5","P.jpg","Q.jpg","0","1","0","",""
"","feedback","","html-keyboard-response","267","300805","0.0-1.0-357.0-0.0","0","0","71953","","null","","","null","39","","","","","","","","","","","","","","","",""
"","time_out","","html-keyboard-response","268","303321","0.0-1.0-359.0-0.0","0","0","71953","","null","","","null","39","","","","","","","","","","","","","","","",""
"","ITI","","html-keyboard-response","269","304382","0.0-1.0-360.0","0","0","71953","","null","","","null","39","","","","","","","","","","","","","","","NaN",""
"","S1","","html-keyboard-response","270","304635","0.0-1.0-362.0","0","0","71953","","null","","","null","40","","","","","","","","","","","","","","","",""
"","ISI","","html-keyboard-response","271","305637","0.0-1.0-363.0","0","0","71953","","null","","","null","40","NaN","","","","","","","","","","","","","","",""
"","S2","","html-keyboard-response","272","305890","0.0-1.0-364.0","0","0","71953","","null","","","null","40","","NaN","","","","","","","","","","","","","",""
"","response","","html-keyboard-response","273","306203","0.0-1.0-365.0-0.0","0","0","71953","","312","","","75","40","","","1","40","training","adjacent","CD","3","4","M.jpg","P.jpg","1","1","1","",""
"","feedback","","html-keyboard-response","274","307322","0.0-1.0-366.0-0.0","0","0","71953","","null","","","null","40","","","","","","","","","","","","","","","",""
"","ITI","","html-keyboard-response","275","309322","0.0-1.0-369.0","0","0","71953","","null","","","null","40","","","","","","","","","","","","","","","NaN",""
"","S1","","html-keyboard-response","276","310322","0.0-1.0-371.0","0","0","71953","","null","","","null","41","","","","","","","","","","","","","","","",""
"","ISI","","html-keyboard-response","277","311325","0.0-1.0-372.0","0","0","71953","","null","","","null","41","NaN","","","","","","","","","","","","","","",""
"","S2","","html-keyboard-response","278","311329","0.0-1.0-373.0","0","0","71953","","1","","","68","41","","d","1","41","training","adjacent","CB","3","2","M.jpg","N.jpg","0","0","1","",""
"","feedback","","html-keyboard-response","279","312331","0.0-1.0-375.0-0.0","0","0","71953","","null","","","null","41","","","","","","","","","","","","","","","",""
"","ITI","","html-keyboard-response","280","314321","0.0-1.0-378.0","0","0","71953","","null","","","null","41","","","","","","","","","","","","","","","NaN",""
"","S1","","html-keyboard-response","281","314576","0.0-1.0-380.0","0","0","71953","","null","","","null","42","","","","","","","","","","","","","","","",""
"","ISI","","html-keyboard-response","282","315578","0.0-1.0-381.0","0","0","71953","","null","","","null","42","NaN","","","","","","","","","","","","","","",""
"","S2","","html-keyboard-response","283","315831","0.0-1.0-382.0","0","0","71953","","null","","","null","42","","NaN","","","","","","","","","","","","","",""
"","response","","html-keyboard-response","284","316254","0.0-1.0-383.0-0.0","0","0","71953","","421","","","75","42","","","1","42","training","adjacent","DE","4","5","P.jpg","Q.jpg","1","1","1","",""
"","feedback","","html-keyboard-response","285","317258","0.0-1.0-384.0-0.0","0","0","71953","","null","","","null","42","","","","","","","","","","","","","","","",""
"","ITI","","html-keyboard-response","286","318261","0.0-1.0-387.0","0","0","71953","","null","","","null","42","","","","","","","","","","","","","","","NaN",""
"","S1","","html-keyboard-response","287","318513","0.0-1.0-389.0","0","0","71953","","null","","","null","43","","","","","","","","","","","","","","","",""
"","ISI","","html-keyboard-response","288","319516","0.0-1.0-390.0","0","0","71953","","null","","","null","43","NaN","","","","","","","","","","","","","","",""
"","S2","","html-keyboard-response","289","319768","0.0-1.0-391.0","0","0","71953","","null","","","null","43","","NaN","","","","","","","","","","","","","",""
"","response","","html-keyboard-response","290","320296","0.0-1.0-392.0-0.0","0","0","71953","","526","","","68","43","","","1","43","training","adjacent","EF","5","6","Q.jpg","L.jpg","0","1","0","",""
"","feedback","","html-keyboard-response","291","321299","0.0-1.0-393.0-0.0","0","0","71953","","null","","","null","43","","","","","","","","","","","","","","","",""
"","time_out","","html-keyboard-response","292","323321","0.0-1.0-395.0-0.0","0","0","71953","","null","","","null","43","","","","","","","","","","","","","","","",""
"","ITI","","html-keyboard-response","293","324323","0.0-1.0-396.0","0","0","71953","","null","","","null","43","","","","","","","","","","","","","","","NaN",""
"","S1","","html-keyboard-response","294","324576","0.0-1.0-398.0","0","0","71953","","null","","","null","44","","","","","","","","","","","","","","","",""
"","ISI","","html-keyboard-response","295","325578","0.0-1.0-399.0","0","0","71953","","99","","","75","44","k","","","","","","","","","","","","","","",""
"","S2","","html-keyboard-response","296","325830","0.0-1.0-400.0","0","0","71953","","null","","","null","44","","NaN","","","","","","","","","","","","","",""
"","response","","html-keyboard-response","297","326066","0.0-1.0-401.0-0.0","0","0","71953","","234","","","75","44","","","1","44","training","adjacent","ED","5","4","Q.jpg","P.jpg","1","0","0","",""
"","feedback","","html-keyboard-response","298","327069","0.0-1.0-402.0-0.0","0","0","71953","","null","","","null","44","","","","","","","","","","","","","","","",""
"","time_out","","html-keyboard-response","299","329323","0.0-1.0-404.0-0.0","0","0","71953","","null","","","null","44","","","","","","","","","","","","","","","",""
"","ITI","","html-keyboard-response","300","330327","0.0-1.0-405.0","0","0","71953","","null","","","null","44","","","","","","","","","","","","","","","NaN",""
"","S1","","html-keyboard-response","301","330590","0.0-1.0-407.0","0","0","71953","","null","","","null","45","","","","","","","","","","","","","","","",""
"","ISI","","html-keyboard-response","302","331592","0.0-1.0-408.0","0","0","71953","","null","","","null","45","NaN","","","","","","","","","","","","","","",""
"","S2","","html-keyboard-response","303","331845","0.0-1.0-409.0","0","0","71953","","null","","","null","45","","NaN","","","","","","","","","","","","","",""
"","response","","html-keyboard-response","304","332691","0.0-1.0-410.0-0.0","0","0","71953","","844","","","68","45","","","1","45","training","adjacent","GF","7","6","R.jpg","L.jpg","0","0","1","",""
"","feedback","","html-keyboard-response","305","333693","0.0-1.0-411.0-0.0","0","0","71953","","null","","","null","45","","","","","","","","","","","","","","","",""
"","ITI","","html-keyboard-response","306","334696","0.0-1.0-414.0","0","0","71953","","null","","","null","45","","","","","","","","","","","","","","","NaN",""
"","S1","","html-keyboard-response","307","334949","0.0-1.0-416.0","0","0","71953","","null","","","null","46","","","","","","","","","","","","","","","",""
"","ISI","","html-keyboard-response","308","335952","0.0-1.0-417.0","0","0","71953","","null","","","null","46","NaN","","","","","","","","","","","","","","",""
"","S2","","html-keyboard-response","309","336204","0.0-1.0-418.0","0","0","71953","","null","","","null","46","","NaN","","","","","","","","","","","","","",""
"","response","","html-keyboard-response","310","336739","0.0-1.0-419.0-0.0","0","0","71953","","533","","","75","46","","","1","46","training","adjacent","FG","6","7","L.jpg","R.jpg","1","1","1","",""
"","feedback","","html-keyboard-response","311","337741","0.0-1.0-420.0-0.0","0","0","71953","","null","","","null","46","","","","","","","","","","","","","","","",""
"","ITI","","html-keyboard-response","312","338744","0.0-1.0-423.0","0","0","71953","","null","","","null","46","","","","","","","","","","","","","","","NaN",""
"","S1","","html-keyboard-response","313","338997","0.0-1.0-425.0","0","0","71953","","null","","","null","47","","","","","","","","","","","","","","","",""
"","ISI","","html-keyboard-response","314","339999","0.0-1.0-426.0","0","0","71953","","null","","","null","47","NaN","","","","","","","","","","","","","","",""
"","S2","","html-keyboard-response","315","340251","0.0-1.0-427.0","0","0","71953","","null","","","null","47","","NaN","","","","","","","","","","","","","",""
"","response","","html-keyboard-response","316","341261","0.0-1.0-428.0-0.0","0","0","71953","","1007","","","68","47","","","1","47","training","adjacent","DC","4","3","P.jpg","M.jpg","0","0","1","",""
"","feedback","","html-keyboard-response","317","342265","0.0-1.0-429.0-0.0","0","0","71953","","null","","","null","47","","","","","","","","","","","","","","","",""
"","ITI","","html-keyboard-response","318","343268","0.0-1.0-432.0","0","0","71953","","null","","","null","47","","","","","","","","","","","","","","","NaN",""
"","block_over","","html-keyboard-response","319","354463","0.0-1.0-433.0-0.0","0","0","71953","","11193","","","32","47","","","","","","","","","","","","","","","",""
"","S1","","html-keyboard-response","320","354716","0.0-1.0-434.0","0","0","71953","","null","","","null","48","","","","","","","","","","","","","","","",""
"","ISI","","html-keyboard-response","321","355717","0.0-1.0-435.0","0","0","71953","","null","","","null","48","NaN","","","","","","","","","","","","","","",""
"","S2","","html-keyboard-response","322","355970","0.0-1.0-436.0","0","0","71953","","null","","","null","48","","NaN","","","","","","","","","","","","","",""
"","response","","html-keyboard-response","323","357238","0.0-1.0-437.0-0.0","0","0","71953","","1265","","","75","48","","","2","48","training","adjacent","FG","6","7","L.jpg","R.jpg","1","1","1","",""
"","feedback","","html-keyboard-response","324","358240","0.0-1.0-438.0-0.0","0","0","71953","","null","","","null","48","","","","","","","","","","","","","","","",""
"","ITI","","html-keyboard-response","325","359243","0.0-1.0-441.0","0","0","71953","","null","","","null","48","","","","","","","","","","","","","","","NaN",""
"","S1","","html-keyboard-response","326","359497","0.0-1.0-443.0","0","0","71953","","null","","","null","49","","","","","","","","","","","","","","","",""
"","ISI","","html-keyboard-response","327","360499","0.0-1.0-444.0","0","0","71953","","null","","","null","49","NaN","","","","","","","","","","","","","","",""
"","S2","","html-keyboard-response","328","360751","0.0-1.0-445.0","0","0","71953","","null","","","null","49","","NaN","","","","","","","","","","","","","",""
"","response","","html-keyboard-response","329","360849","0.0-1.0-446.0-0.0","0","0","71953","","96","","","68","49","","","2","49","training","adjacent","DE","4","5","P.jpg","Q.jpg","0","1","0","",""
"","feedback","","html-keyboard-response","330","361851","0.0-1.0-447.0-0.0","0","0","71953","","null","","","null","49","","","","","","","","","","","","","","","",""
"","time_out","","html-keyboard-response","331","363855","0.0-1.0-449.0-0.0","0","0","71953","","null","","","null","49","","","","","","","","","","","","","","","",""
"","ITI","","html-keyboard-response","332","364858","0.0-1.0-450.0","0","0","71953","","null","","","null","49","","","","","","","","","","","","","","","NaN",""
"","S1","","html-keyboard-response","333","365110","0.0-1.0-452.0","0","0","71953","","null","","","null","50","","","","","","","","","","","","","","","",""
"","ISI","","html-keyboard-response","334","366113","0.0-1.0-453.0","0","0","71953","","null","","","null","50","NaN","","","","","","","","","","","","","","",""
"","S2","","html-keyboard-response","335","366365","0.0-1.0-454.0","0","0","71953","","null","","","null","50","","NaN","","","","","","","","","","","","","",""
"","response","","html-keyboard-response","336","367626","0.0-1.0-455.0-0.0","0","0","71953","","1259","","","68","50","","","2","50","training","adjacent","DE","4","5","P.jpg","Q.jpg","0","1","0","",""
"","feedback","","html-keyboard-response","337","368630","0.0-1.0-456.0-0.0","0","0","71953","","null","","","null","50","","","","","","","","","","","","","","","",""
"","time_out","","html-keyboard-response","338","370633","0.0-1.0-458.0-0.0","0","0","71953","","null","","","null","50","","","","","","","","","","","","","","","",""
"","ITI","","html-keyboard-response","339","371636","0.0-1.0-459.0","0","0","71953","","null","","","null","50","","","","","","","","","","","","","","","NaN",""
"","S1","","html-keyboard-response","340","371888","0.0-1.0-461.0","0","0","71953","","null","","","null","51","","","","","","","","","","","","","","","",""
"","ISI","","html-keyboard-response","341","372899","0.0-1.0-462.0","0","0","71953","","null","","","null","51","NaN","","","","","","","","","","","","","","",""
"","S2","","html-keyboard-response","342","373152","0.0-1.0-463.0","0","0","71953","","null","","","null","51","","NaN","","","","","","","","","","","","","",""
"","response","","html-keyboard-response","343","373548","0.0-1.0-464.0-0.0","0","0","71953","","394","","","75","51","","","2","51","training","adjacent","CB","3","2","M.jpg","N.jpg","1","0","0","",""
"","feedback","","html-keyboard-response","344","375323","0.0-1.0-465.0-0.0","0","0","71953","","null","","","null","51","","","","","","","","","","","","","","","",""
"","time_out","","html-keyboard-response","345","377326","0.0-1.0-467.0-0.0","0","0","71953","","null","","","null","51","","","","","","","","","","","","","","","",""
"","ITI","","html-keyboard-response","346","378328","0.0-1.0-468.0","0","0","71953","","null","","","null","51","","","","","","","","","","","","","","","NaN",""
"","S1","","html-keyboard-response","347","378581","0.0-1.0-470.0","0","0","71953","","null","","","null","52","","","","","","","","","","","","","","","",""
"","ISI","","html-keyboard-response","348","379583","0.0-1.0-471.0","0","0","71953","","null","","","null","52","NaN","","","","","","","","","","","","","","",""
"","S2","","html-keyboard-response","349","379837","0.0-1.0-472.0","0","0","71953","","null","","","null","52","","NaN","","","","","","","","","","","","","",""
"","response","","html-keyboard-response","350","379970","0.0-1.0-473.0-0.0","0","0","71953","","131","","","75","52","","","2","52","training","adjacent","EF","5","6","Q.jpg","L.jpg","1","1","1","",""
"","feedback","","html-keyboard-response","351","380972","0.0-1.0-474.0-0.0","0","0","71953","","null","","","null","52","","","","","","","","","","","","","","","",""
"","ITI","","html-keyboard-response","352","381974","0.0-1.0-477.0","0","0","71953","","null","","","null","52","","","","","","","","","","","","","","","NaN",""
"","S1","","html-keyboard-response","353","382227","0.0-1.0-479.0","0","0","71953","","null","","","null","53","","","","","","","","","","","","","","","",""
"","ISI","","html-keyboard-response","354","383229","0.0-1.0-480.0","0","0","71953","","null","","","null","53","NaN","","","","","","","","","","","","","","",""
"","S2","","html-keyboard-response","355","383483","0.0-1.0-481.0","0","0","71953","","null","","","null","53","","NaN","","","","","","","","","","","","","",""
"","response","","html-keyboard-response","356","383897","0.0-1.0-482.0-0.0","0","0","71953","","413","","","68","53","","","2","53","training","adjacent","CD","3","4","M.jpg","P.jpg","0","1","0","",""
"","feedback","","html-keyboard-response","357","384902","0.0-1.0-483.0-0.0","0","0","71953","","null","","","null","53","","","","","","","","","","","","","","","",""
"","time_out","","html-keyboard-response","358","386904","0.0-1.0-485.0-0.0","0","0","71953","","null","","","null","53","","","","","","","","","","","","","","","",""
"","ITI","","html-keyboard-response","359","387906","0.0-1.0-486.0","0","0","71953","","null","","","null","53","","","","","","","","","","","","","","","NaN",""
"","S1","","html-keyboard-response","360","388159","0.0-1.0-488.0","0","0","71953","","null","","","null","54","","","","","","","","","","","","","","","",""
"","ISI","","html-keyboard-response","361","389172","0.0-1.0-489.0","0","0","71953","","null","","","null","54","NaN","","","","","","","","","","","","","","",""
"","S2","","html-keyboard-response","362","389384","0.0-1.0-490.0","0","0","71953","","210","","","75","54","","k","2","54","training","adjacent","BC","2","3","N.jpg","M.jpg","1","1","1","",""
"","feedback","","html-keyboard-response","363","390387","0.0-1.0-492.0-0.0","0","0","71953","","null","","","null","54","","","","","","","","","","","","","","","",""
"","ITI","","html-keyboard-response","364","391391","0.0-1.0-495.0","0","0","71953","","null","","","null","54","","","","","","","","","","","","","","","NaN",""
"","S1","","html-keyboard-response","365","391644","0.0-1.0-497.0","0","0","71953","","null","","","null","55","","","","","","","","","","","","","","","",""
"","ISI","","html-keyboard-response","366","392646","0.0-1.0-498.0","0","0","71953","","null","","","null","55","NaN","","","","","","","","","","","","","","",""
"","S2","","html-keyboard-response","367","392657","0.0-1.0-499.0","0","0","71953","","9","","","75","55","","k","2","55","training","adjacent","AB","1","2","O.jpg","N.jpg","1","1","1","",""
"","feedback","","html-keyboard-response","368","393661","0.0-1.0-501.0-0.0","0","0","71953","","null","","","null","55","","","","","","","","","","","","","","","",""
"","ITI","","html-keyboard-response","369","394664","0.0-1.0-504.0","0","0","71953","","null","","","null","55","","","","","","","","","","","","","","","NaN",""
"","S1","","html-keyboard-response","370","394917","0.0-1.0-506.0","0","0","71953","","null","","","null","56","","","","","","","","","","","","","","","",""
"","ISI","","html-keyboard-response","371","395919","0.0-1.0-507.0","0","0","71953","","null","","","null","56","NaN","","","","","","","","","","","","","","",""
"","S2","","html-keyboard-response","372","396172","0.0-1.0-508.0","0","0","71953","","null","","","null","56","","NaN","","","","","","","","","","","","","",""
"","response","","html-keyboard-response","373","396461","0.0-1.0-509.0-0.0","0","0","71953","","287","","","68","56","","","2","56","training","adjacent","AB","1","2","O.jpg","N.jpg","0","1","0","",""
"","feedback","","html-keyboard-response","374","397464","0.0-1.0-510.0-0.0","0","0","71953","","null","","","null","56","","","","","","","","","","","","","","","",""
"","time_out","","html-keyboard-response","375","399467","0.0-1.0-512.0-0.0","0","0","71953","","null","","","null","56","","","","","","","","","","","","","","","",""
"","ITI","","html-keyboard-response","376","400471","0.0-1.0-513.0","0","0","71953","","null","","","null","56","","","","","","","","","","","","","","","NaN",""
"","S1","","html-keyboard-response","377","400723","0.0-1.0-515.0","0","0","71953","","null","","","null","57","","","","","","","","","","","","","","","",""
"","ISI","","html-keyboard-response","378","401726","0.0-1.0-516.0","0","0","71953","","null","","","null","57","NaN","","","","","","","","","","","","","","",""
"","S2","","html-keyboard-response","379","401912","0.0-1.0-517.0","0","0","71953","","184","","","68","57","","d","2","57","training","adjacent","BA","2","1","N.jpg","O.jpg","0","0","1","",""
"","feedback","","html-keyboard-response","380","402915","0.0-1.0-519.0-0.0","0","0","71953","","null","","","null","57","","","","","","","","","","","","","","","",""
"","ITI","","html-keyboard-response","381","403917","0.0-1.0-522.0","0","0","71953","","null","","","null","57","","","","","","","","","","","","","","","NaN",""
"","S1","","html-keyboard-response","382","404169","0.0-1.0-524.0","0","0","71953","","null","","","null","58","","","","","","","","","","","","","","","",""
"","ISI","","html-keyboard-response","383","405172","0.0-1.0-525.0","0","0","71953","","null","","","null","58","NaN","","","","","","","","","","","","","","",""
"","S2","","html-keyboard-response","384","405369","0.0-1.0-526.0","0","0","71953","","195","","","68","58","","d","2","58","training","adjacent","DC","4","3","P.jpg","M.jpg","0","0","1","",""
"","feedback","","html-keyboard-response","385","406373","0.0-1.0-528.0-0.0","0","0","71953","","null","","","null","58","","","","","","","","","","","","","","","",""
"","ITI","","html-keyboard-response","386","407376","0.0-1.0-531.0","0","0","71953","","null","","","null","58","","","","","","","","","","","","","","","NaN",""
"","S1","","html-keyboard-response","387","407632","0.0-1.0-533.0","0","0","71953","","null","","","null","59","","","","","","","","","","","","","","","",""
"","ISI","","html-keyboard-response","388","408635","0.0-1.0-534.0","0","0","71953","","null","","","null","59","NaN","","","","","","","","","","","","","","",""
"","S2","","html-keyboard-response","389","408883","0.0-1.0-535.0","0","0","71953","","246","","","68","59","","d","2","59","training","adjacent","GF","7","6","R.jpg","L.jpg","0","0","1","",""
"","feedback","","html-keyboard-response","390","409886","0.0-1.0-537.0-0.0","0","0","71953","","null","","","null","59","","","","","","","","","","","","","","","",""
"","ITI","","html-keyboard-response","391","410889","0.0-1.0-540.0","0","0","71953","","null","","","null","59","","","","","","","","","","","","","","","NaN",""
"","S1","","html-keyboard-response","392","411142","0.0-1.0-542.0","0","0","71953","","null","","","null","60","","","","","","","","","","","","","","","",""
"","ISI","","html-keyboard-response","393","412146","0.0-1.0-543.0","0","0","71953","","982","","","75","60","k","","","","","","","","","","","","","","",""
"","S2","","html-keyboard-response","394","412399","0.0-1.0-544.0","0","0","71953","","null","","","null","60","","NaN","","","","","","","","","","","","","",""
"","response","","html-keyboard-response","395","412586","0.0-1.0-545.0-0.0","0","0","71953","","185","","","75","60","","","2","60","training","adjacent","GF","7","6","R.jpg","L.jpg","1","0","0","",""
"","feedback","","html-keyboard-response","396","413589","0.0-1.0-546.0-0.0","0","0","71953","","null","","","null","60","","","","","","","","","","","","","","","",""
"","time_out","","html-keyboard-response","397","415591","0.0-1.0-548.0-0.0","0","0","71953","","null","","","null","60","","","","","","","","","","","","","","","",""
"","ITI","","html-keyboard-response","398","416593","0.0-1.0-549.0","0","0","71953","","null","","","null","60","","","","","","","","","","","","","","","NaN",""
"","S1","","html-keyboard-response","399","416846","0.0-1.0-551.0","0","0","71953","","null","","","null","61","","","","","","","","","","","","","","","",""
"","ISI","","html-keyboard-response","400","417847","0.0-1.0-552.0","0","0","71953","","null","","","null","61","NaN","","","","","","","","","","","","","","",""
"","S2","","html-keyboard-response","401","418100","0.0-1.0-553.0","0","0","71953","","null","","","null","61","","NaN","","","","","","","","","","","","","",""
"","response","","html-keyboard-response","402","418222","0.0-1.0-554.0-0.0","0","0","71953","","120","","","68","61","","","2","61","training","adjacent","GF","7","6","R.jpg","L.jpg","0","0","1","",""
"","feedback","","html-keyboard-response","403","419225","0.0-1.0-555.0-0.0","0","0","71953","","null","","","null","61","","","","","","","","","","","","","","","",""
"","ITI","","html-keyboard-response","404","420228","0.0-1.0-558.0","0","0","71953","","null","","","null","61","","","","","","","","","","","","","","","NaN",""
"","S1","","html-keyboard-response","405","420481","0.0-1.0-560.0","0","0","71953","","null","","","null","62","","","","","","","","","","","","","","","",""
"","ISI","","html-keyboard-response","406","421483","0.0-1.0-561.0","0","0","71953","","null","","","null","62","NaN","","","","","","","","","","","","","","",""
"","S2","","html-keyboard-response","407","421736","0.0-1.0-562.0","0","0","71953","","null","","","null","62","","NaN","","","","","","","","","","","","","",""
"","response","","html-keyboard-response","408","421870","0.0-1.0-563.0-0.0","0","0","71953","","132","","","75","62","","","2","62","training","adjacent","BC","2","3","N.jpg","M.jpg","1","1","1","",""
"","feedback","","html-keyboard-response","409","422873","0.0-1.0-564.0-0.0","0","0","71953","","null","","","null","62","","","","","","","","","","","","","","","",""
"","ITI","","html-keyboard-response","410","423876","0.0-1.0-567.0","0","0","71953","","null","","","null","62","","","","","","","","","","","","","","","NaN",""
"","S1","","html-keyboard-response","411","424143","0.0-1.0-569.0","0","0","71953","","null","","","null","63","","","","","","","","","","","","","","","",""
"","ISI","","html-keyboard-response","412","425145","0.0-1.0-570.0","0","0","71953","","null","","","null","63","NaN","","","","","","","","","","","","","","",""
"","S2","","html-keyboard-response","413","425343","0.0-1.0-571.0","0","0","71953","","196","","","75","63","","k","2","63","training","adjacent","ED","5","4","Q.jpg","P.jpg","1","0","0","",""
"","feedback","","html-keyboard-response","414","426346","0.0-1.0-573.0-0.0","0","0","71953","","null","","","null","63","","","","","","","","","","","","","","","",""
"","time_out","","html-keyboard-response","415","428349","0.0-1.0-575.0-0.0","0","0","71953","","null","","","null","63","","","","","","","","","","","","","","","",""
"","ITI","","html-keyboard-response","416","429352","0.0-1.0-576.0","0","0","71953","","null","","","null","63","","","","","","","","","","","","","","","NaN",""
"","S1","","html-keyboard-response","417","429605","0.0-1.0-578.0","0","0","71953","","null","","","null","64","","","","","","","","","","","","","","","",""
"","ISI","","html-keyboard-response","418","430608","0.0-1.0-579.0","0","0","71953","","null","","","null","64","NaN","","","","","","","","","","","","","","",""
"","S2","","html-keyboard-response","419","430861","0.0-1.0-580.0","0","0","71953","","null","","","null","64","","NaN","","","","","","","","","","","","","",""
"","response","","html-keyboard-response","420","431225","0.0-1.0-581.0-0.0","0","0","71953","","363","","","68","64","","","2","64","training","adjacent","ED","5","4","Q.jpg","P.jpg","0","0","1","",""
"","feedback","","html-keyboard-response","421","432228","0.0-1.0-582.0-0.0","0","0","71953","","null","","","null","64","","","","","","","","","","","","","","","",""
"","ITI","","html-keyboard-response","422","433230","0.0-1.0-585.0","0","0","71953","","null","","","null","64","","","","","","","","","","","","","","","NaN",""
"","S1","","html-keyboard-response","423","433483","0.0-1.0-587.0","0","0","71953","","null","","","null","65","","","","","","","","","","","","","","","",""
"","ISI","","html-keyboard-response","424","434486","0.0-1.0-588.0","0","0","71953","","null","","","null","65","NaN","","","","","","","","","","","","","","",""
"","S2","","html-keyboard-response","425","434738","0.0-1.0-589.0","0","0","71953","","null","","","null","65","","NaN","","","","","","","","","","","","","",""
"","response","","html-keyboard-response","426","435018","0.0-1.0-590.0-0.0","0","0","71953","","277","","","75","65","","","2","65","training","adjacent","AB","1","2","O.jpg","N.jpg","1","1","1","",""
"","feedback","","html-keyboard-response","427","436020","0.0-1.0-591.0-0.0","0","0","71953","","null","","","null","65","","","","","","","","","","","","","","","",""
"","ITI","","html-keyboard-response","428","437026","0.0-1.0-594.0","0","0","71953","","null","","","null","65","","","","","","","","","","","","","","","NaN",""
"","S1","","html-keyboard-response","429","437278","0.0-1.0-596.0","0","0","71953","","null","","","null","66","","","","","","","","","","","","","","","",""
"","ISI","","html-keyboard-response","430","438281","0.0-1.0-597.0","0","0","71953","","null","","","null","66","NaN","","","","","","","","","","","","","","",""
"","S2","","html-keyboard-response","431","438533","0.0-1.0-598.0","0","0","71953","","null","","","null","66","","NaN","","","","","","","","","","","","","",""
"","response","","html-keyboard-response","432","438676","0.0-1.0-599.0-0.0","0","0","71953","","141","","","68","66","","","2","66","training","adjacent","BA","2","1","N.jpg","O.jpg","0","0","1","",""
"","feedback","","html-keyboard-response","433","439679","0.0-1.0-600.0-0.0","0","0","71953","","null","","","null","66","","","","","","","","","","","","","","","",""
"","ITI","","html-keyboard-response","434","440682","0.0-1.0-603.0","0","0","71953","","null","","","null","66","","","","","","","","","","","","","","","NaN",""
"","S1","","html-keyboard-response","435","440935","0.0-1.0-605.0","0","0","71953","","null","","","null","67","","","","","","","","","","","","","","","",""
"","ISI","","html-keyboard-response","436","441938","0.0-1.0-606.0","0","0","71953","","null","","","null","67","NaN","","","","","","","","","","","","","","",""
"","S2","","html-keyboard-response","437","442191","0.0-1.0-607.0","0","0","71953","","null","","","null","67","","NaN","","","","","","","","","","","","","",""
"","response","","html-keyboard-response","438","442298","0.0-1.0-608.0-0.0","0","0","71953","","105","","","68","67","","","2","67","training","adjacent","ED","5","4","Q.jpg","P.jpg","0","0","1","",""
"","feedback","","html-keyboard-response","439","443302","0.0-1.0-609.0-0.0","0","0","71953","","null","","","null","67","","","","","","","","","","","","","","","",""
"","ITI","","html-keyboard-response","440","444305","0.0-1.0-612.0","0","0","71953","","null","","","null","67","","","","","","","","","","","","","","","NaN",""
"","S1","","html-keyboard-response","441","444558","0.0-1.0-614.0","0","0","71953","","null","","","null","68","","","","","","","","","","","","","","","",""
"","ISI","","html-keyboard-response","442","445560","0.0-1.0-615.0","0","0","71953","","null","","","null","68","NaN","","","","","","","","","","","","","","",""
"","S2","","html-keyboard-response","443","445813","0.0-1.0-616.0","0","0","71953","","null","","","null","68","","NaN","","","","","","","","","","","","","",""
"","response","","html-keyboard-response","444","445817","0.0-1.0-617.0-0.0","0","0","71953","","2","","","75","68","","","2","68","training","adjacent","DE","4","5","P.jpg","Q.jpg","1","1","1","",""
"","feedback","","html-keyboard-response","445","446819","0.0-1.0-618.0-0.0","0","0","71953","","null","","","null","68","","","","","","","","","","","","","","","",""
"","ITI","","html-keyboard-response","446","447822","0.0-1.0-621.0","0","0","71953","","null","","","null","68","","","","","","","","","","","","","","","NaN",""
"","S1","","html-keyboard-response","447","448075","0.0-1.0-623.0","0","0","71953","","null","","","null","69","","","","","","","","","","","","","","","",""
"","ISI","","html-keyboard-response","448","449077","0.0-1.0-624.0","0","0","71953","","null","","","null","69","NaN","","","","","","","","","","","","","","",""
"","S2","","html-keyboard-response","449","449335","0.0-1.0-625.0","0","0","71953","","null","","","null","69","","NaN","","","","","","","","","","","","","",""
"","response","","html-keyboard-response","450","449559","0.0-1.0-626.0-0.0","0","0","71953","","222","","","75","69","","","2","69","training","adjacent","GF","7","6","R.jpg","L.jpg","1","0","0","",""
"","feedback","","html-keyboard-response","451","450563","0.0-1.0-627.0-0.0","0","0","71953","","null","","","null","69","","","","","","","","","","","","","","","",""
"","time_out","","html-keyboard-response","452","452566","0.0-1.0-629.0-0.0","0","0","71953","","null","","","null","69","","","","","","","","","","","","","","","",""
"","ITI","","html-keyboard-response","453","453570","0.0-1.0-630.0","0","0","71953","","null","","","null","69","","","","","","","","","","","","","","","NaN",""
"","S1","","html-keyboard-response","454","453822","0.0-1.0-632.0","0","0","71953","","null","","","null","70","","","","","","","","","","","","","","","",""
"","ISI","","html-keyboard-response","455","454825","0.0-1.0-633.0","0","0","71953","","null","","","null","70","NaN","","","","","","","","","","","","","","",""
"","S2","","html-keyboard-response","456","455079","0.0-1.0-634.0","0","0","71953","","null","","","null","70","","NaN","","","","","","","","","","","","","",""
"","response","","html-keyboard-response","457","455241","0.0-1.0-635.0-0.0","0","0","71953","","161","","","75","70","","","2","70","training","adjacent","DC","4","3","P.jpg","M.jpg","1","0","0","",""
"","feedback","","html-keyboard-response","458","456244","0.0-1.0-636.0-0.0","0","0","71953","","null","","","null","70","","","","","","","","","","","","","","","",""
"","time_out","","html-keyboard-response","459","458247","0.0-1.0-638.0-0.0","0","0","71953","","null","","","null","70","","","","","","","","","","","","","","","",""
"","ITI","","html-keyboard-response","460","459250","0.0-1.0-639.0","0","0","71953","","null","","","null","70","","","","","","","","","","","","","","","NaN",""
"","S1","","html-keyboard-response","461","459504","0.0-1.0-641.0","0","0","71953","","null","","","null","71","","","","","","","","","","","","","","","",""
"","ISI","","html-keyboard-response","462","460506","0.0-1.0-642.0","0","0","71953","","null","","","null","71","NaN","","","","","","","","","","","","","","",""
"","S2","","html-keyboard-response","463","460759","0.0-1.0-643.0","0","0","71953","","null","","","null","71","","NaN","","","","","","","","","","","","","",""
"","response","","html-keyboard-response","464","460833","0.0-1.0-644.0-0.0","0","0","71953","","72","","","75","71","","","2","71","training","adjacent","CB","3","2","M.jpg","N.jpg","1","0","0","",""
"","feedback","","html-keyboard-response","465","461836","0.0-1.0-645.0-0.0","0","0","71953","","null","","","null","71","","","","","","","","","","","","","","","",""
"","time_out","","html-keyboard-response","466","463839","0.0-1.0-647.0-0.0","0","0","71953","","null","","","null","71","","","","","","","","","","","","","","","",""
"","ITI","","html-keyboard-response","467","464842","0.0-1.0-648.0","0","0","71953","","null","","","null","71","","","","","","","","","","","","","","","NaN",""
"","S1","","html-keyboard-response","468","465095","0.0-1.0-650.0","0","0","71953","","null","","","null","72","","","","","","","","","","","","","","","",""
"","ISI","","html-keyboard-response","469","466096","0.0-1.0-651.0","0","0","71953","","null","","","null","72","NaN","","","","","","","","","","","","","","",""
"","S2","","html-keyboard-response","470","466349","0.0-1.0-652.0","0","0","71953","","null","","","null","72","","NaN","","","","","","","","","","","","","",""
"","response","","html-keyboard-response","471","466366","0.0-1.0-653.0-0.0","0","0","71953","","14","","","75","72","","","2","72","training","adjacent","DC","4","3","P.jpg","M.jpg","1","0","0","",""
"","feedback","","html-keyboard-response","472","467369","0.0-1.0-654.0-0.0","0","0","71953","","null","","","null","72","","","","","","","","","","","","","","","",""
"","time_out","","html-keyboard-response","473","469371","0.0-1.0-656.0-0.0","0","0","71953","","null","","","null","72","","","","","","","","","","","","","","","",""
"","ITI","","html-keyboard-response","474","470374","0.0-1.0-657.0","0","0","71953","","null","","","null","72","","","","","","","","","","","","","","","NaN",""
"","S1","","html-keyboard-response","475","470627","0.0-1.0-659.0","0","0","71953","","null","","","null","73","","","","","","","","","","","","","","","",""
"","ISI","","html-keyboard-response","476","471630","0.0-1.0-660.0","0","0","71953","","null","","","null","73","NaN","","","","","","","","","","","","","","",""
"","S2","","html-keyboard-response","477","471882","0.0-1.0-661.0","0","0","71953","","null","","","null","73","","NaN","","","","","","","","","","","","","",""
"","response","","html-keyboard-response","478","471892","0.0-1.0-662.0-0.0","0","0","71953","","8","","","75","73","","","2","73","training","adjacent","CD","3","4","M.jpg","P.jpg","1","1","1","",""
"","feedback","","html-keyboard-response","479","472895","0.0-1.0-663.0-0.0","0","0","71953","","null","","","null","73","","","","","","","","","","","","","","","",""
"","ITI","","html-keyboard-response","480","473898","0.0-1.0-666.0","0","0","71953","","null","","","null","73","","","","","","","","","","","","","","","NaN",""
"","S1","","html-keyboard-response","481","474151","0.0-1.0-668.0","0","0","71953","","null","","","null","74","","","","","","","","","","","","","","","",""
"","ISI","","html-keyboard-response","482","475154","0.0-1.0-669.0","0","0","71953","","null","","","null","74","NaN","","","","","","","","","","","","","","",""
"","S2","","html-keyboard-response","483","475407","0.0-1.0-670.0","0","0","71953","","null","","","null","74","","NaN","","","","","","","","","","","","","",""
"","response","","html-keyboard-response","484","475765","0.0-1.0-671.0-0.0","0","0","71953","","356","","","75","74","","","2","74","training","adjacent","AB","1","2","O.jpg","N.jpg","1","1","1","",""
"","feedback","","html-keyboard-response","485","476768","0.0-1.0-672.0-0.0","0","0","71953","","null","","","null","74","","","","","","","","","","","","","","","",""
"","ITI","","html-keyboard-response","486","477771","0.0-1.0-675.0","0","0","71953","","null","","","null","74","","","","","","","","","","","","","","","NaN",""
"","S1","","html-keyboard-response","487","478024","0.0-1.0-677.0","0","0","71953","","null","","","null","75","","","","","","","","","","","","","","","",""
"","ISI","","html-keyboard-response","488","479026","0.0-1.0-678.0","0","0","71953","","null","","","null","75","NaN","","","","","","","","","","","","","","",""
"","S2","","html-keyboard-response","489","479279","0.0-1.0-679.0","0","0","71953","","null","","","null","75","","NaN","","","","","","","","","","","","","",""
"","response","","html-keyboard-response","490","479528","0.0-1.0-680.0-0.0","0","0","71953","","246","","","75","75","","","2","75","training","adjacent","FE","6","5","L.jpg","Q.jpg","1","0","0","",""
"","feedback","","html-keyboard-response","491","480531","0.0-1.0-681.0-0.0","0","0","71953","","null","","","null","75","","","","","","","","","","","","","","","",""
"","time_out","","html-keyboard-response","492","482534","0.0-1.0-683.0-0.0","0","0","71953","","null","","","null","75","","","","","","","","","","","","","","","",""
"","ITI","","html-keyboard-response","493","483536","0.0-1.0-684.0","0","0","71953","","null","","","null","75","","","","","","","","","","","","","","","NaN",""
"","S1","","html-keyboard-response","494","483789","0.0-1.0-686.0","0","0","71953","","null","","","null","76","","","","","","","","","","","","","","","",""
"","ISI","","html-keyboard-response","495","484791","0.0-1.0-687.0","0","0","71953","","null","","","null","76","NaN","","","","","","","","","","","","","","",""
"","S2","","html-keyboard-response","496","485043","0.0-1.0-688.0","0","0","71953","","null","","","null","76","","NaN","","","","","","","","","","","","","",""
"","response","","html-keyboard-response","497","485579","0.0-1.0-689.0-0.0","0","0","71953","","534","","","75","76","","","2","76","training","adjacent","FG","6","7","L.jpg","R.jpg","1","1","1","",""
"","feedback","","html-keyboard-response","498","486582","0.0-1.0-690.0-0.0","0","0","71953","","null","","","null","76","","","","","","","","","","","","","","","",""
"","ITI","","html-keyboard-response","499","487585","0.0-1.0-693.0","0","0","71953","","null","","","null","76","","","","","","","","","","","","","","","NaN",""
"","S1","","html-keyboard-response","500","487839","0.0-1.0-695.0","0","0","71953","","null","","","null","77","","","","","","","","","","","","","","","",""
"","ISI","","html-keyboard-response","501","488842","0.0-1.0-696.0","0","0","71953","","null","","","null","77","NaN","","","","","","","","","","","","","","",""
"","S2","","html-keyboard-response","502","489096","0.0-1.0-697.0","0","0","71953","","null","","","null","77","","NaN","","","","","","","","","","","","","",""
"","response","","html-keyboard-response","503","489647","0.0-1.0-698.0-0.0","0","0","71953","","548","","","68","77","","","2","77","training","adjacent","FE","6","5","L.jpg","Q.jpg","0","0","1","",""
"","feedback","","html-keyboard-response","504","490649","0.0-1.0-699.0-0.0","0","0","71953","","null","","","null","77","","","","","","","","","","","","","","","",""
"","ITI","","html-keyboard-response","505","491652","0.0-1.0-702.0","0","0","71953","","null","","","null","77","","","","","","","","","","","","","","","NaN",""
"","S1","","html-keyboard-response","506","491904","0.0-1.0-704.0","0","0","71953","","null","","","null","78","","","","","","","","","","","","","","","",""
"","ISI","","html-keyboard-response","507","492906","0.0-1.0-705.0","0","0","71953","","null","","","null","78","NaN","","","","","","","","","","","","","","",""
"","S2","","html-keyboard-response","508","493168","0.0-1.0-706.0","0","0","71953","","null","","","null","78","","NaN","","","","","","","","","","","","","",""
"","response","","html-keyboard-response","509","493439","0.0-1.0-707.0-0.0","0","0","71953","","270","","","68","78","","","2","78","training","adjacent","DE","4","5","P.jpg","Q.jpg","0","1","0","",""
"","feedback","","html-keyboard-response","510","494445","0.0-1.0-708.0-0.0","0","0","71953","","null","","","null","78","","","","","","","","","","","","","","","",""
"","time_out","","html-keyboard-response","511","496448","0.0-1.0-710.0-0.0","0","0","71953","","null","","","null","78","","","","","","","","","","","","","","","",""
"","ITI","","html-keyboard-response","512","497461","0.0-1.0-711.0","0","0","71953","","null","","","null","78","","","","","","","","","","","","","","","NaN",""
"","S1","","html-keyboard-response","513","497714","0.0-1.0-713.0","0","0","71953","","null","","","null","79","","","","","","","","","","","","","","","",""
"","ISI","","html-keyboard-response","514","498728","0.0-1.0-714.0","0","0","71953","","null","","","null","79","NaN","","","","","","","","","","","","","","",""
"","S2","","html-keyboard-response","515","498981","0.0-1.0-715.0","0","0","71953","","null","","","null","79","","NaN","","","","","","","","","","","","","",""
"","response","","html-keyboard-response","516","499057","0.0-1.0-716.0-0.0","0","0","71953","","74","","","75","79","","","2","79","training","adjacent","CD","3","4","M.jpg","P.jpg","1","1","1","",""
"","feedback","","html-keyboard-response","517","500059","0.0-1.0-717.0-0.0","0","0","71953","","null","","","null","79","","","","","","","","","","","","","","","",""
"","ITI","","html-keyboard-response","518","501062","0.0-1.0-720.0","0","0","71953","","null","","","null","79","","","","","","","","","","","","","","","NaN",""
"","S1","","html-keyboard-response","519","501315","0.0-1.0-722.0","0","0","71953","","null","","","null","80","","","","","","","","","","","","","","","",""
"","ISI","","html-keyboard-response","520","502319","0.0-1.0-723.0","0","0","71953","","null","","","null","80","NaN","","","","","","","","","","","","","","",""
"","S2","","html-keyboard-response","521","502571","0.0-1.0-724.0","0","0","71953","","null","","","null","80","","NaN","","","","","","","","","","","","","",""
"","response","","html-keyboard-response","522","502575","0.0-1.0-725.0-0.0","0","0","71953","","1","","","68","80","","","2","80","training","adjacent","BC","2","3","N.jpg","M.jpg","0","1","0","",""
"","feedback","","html-keyboard-response","523","503577","0.0-1.0-726.0-0.0","0","0","71953","","null","","","null","80","","","","","","","","","","","","","","","",""
"","time_out","","html-keyboard-response","524","505580","0.0-1.0-728.0-0.0","0","0","71953","","null","","","null","80","","","","","","","","","","","","","","","",""
"","ITI","","html-keyboard-response","525","506584","0.0-1.0-729.0","0","0","71953","","null","","","null","80","","","","","","","","","","","","","","","NaN",""
"","S1","","html-keyboard-response","526","506837","0.0-1.0-731.0","0","0","71953","","null","","","null","81","","","","","","","","","","","","","","","",""
"","ISI","","html-keyboard-response","527","507839","0.0-1.0-732.0","0","0","71953","","null","","","null","81","NaN","","","","","","","","","","","","","","",""
"","S2","","html-keyboard-response","528","508092","0.0-1.0-733.0","0","0","71953","","null","","","null","81","","NaN","","","","","","","","","","","","","",""
"","response","","html-keyboard-response","529","508331","0.0-1.0-734.0-0.0","0","0","71953","","237","","","68","81","","","2","81","training","adjacent","BC","2","3","N.jpg","M.jpg","0","1","0","",""
"","feedback","","html-keyboard-response","530","509335","0.0-1.0-735.0-0.0","0","0","71953","","null","","","null","81","","","","","","","","","","","","","","","",""
"","time_out","","html-keyboard-response","531","511338","0.0-1.0-737.0-0.0","0","0","71953","","null","","","null","81","","","","","","","","","","","","","","","",""
"","ITI","","html-keyboard-response","532","512341","0.0-1.0-738.0","0","0","71953","","null","","","null","81","","","","","","","","","","","","","","","NaN",""
"","S1","","html-keyboard-response","533","512593","0.0-1.0-740.0","0","0","71953","","null","","","null","82","","","","","","","","","","","","","","","",""
"","ISI","","html-keyboard-response","534","513596","0.0-1.0-741.0","0","0","71953","","null","","","null","82","NaN","","","","","","","","","","","","","","",""
"","S2","","html-keyboard-response","535","513849","0.0-1.0-742.0","0","0","71953","","null","","","null","82","","NaN","","","","","","","","","","","","","",""
"","response","","html-keyboard-response","536","513855","0.0-1.0-743.0-0.0","0","0","71953","","3","","","75","82","","","2","82","training","adjacent","DC","4","3","P.jpg","M.jpg","1","0","0","",""
"","feedback","","html-keyboard-response","537","514859","0.0-1.0-744.0-0.0","0","0","71953","","null","","","null","82","","","","","","","","","","","","","","","",""
"","time_out","","html-keyboard-response","538","516862","0.0-1.0-746.0-0.0","0","0","71953","","null","","","null","82","","","","","","","","","","","","","","","",""
"","ITI","","html-keyboard-response","539","517864","0.0-1.0-747.0","0","0","71953","","null","","","null","82","","","","","","","","","","","","","","","NaN",""
"","S1","","html-keyboard-response","540","518117","0.0-1.0-749.0","0","0","71953","","null","","","null","83","","","","","","","","","","","","","","","",""
"","ISI","","html-keyboard-response","541","519119","0.0-1.0-750.0","0","0","71953","","null","","","null","83","NaN","","","","","","","","","","","","","","",""
"","S2","","html-keyboard-response","542","519373","0.0-1.0-751.0","0","0","71953","","null","","","null","83","","NaN","","","","","","","","","","","","","",""
"","response","","html-keyboard-response","543","520190","0.0-1.0-752.0-0.0","0","0","71953","","815","","","68","83","","","2","83","training","adjacent","EF","5","6","Q.jpg","L.jpg","0","1","0","",""
"","feedback","","html-keyboard-response","544","521194","0.0-1.0-753.0-0.0","0","0","71953","","null","","","null","83","","","","","","","","","","","","","","","",""
"","time_out","","html-keyboard-response","545","523212","0.0-1.0-755.0-0.0","0","0","71953","","null","","","null","83","","","","","","","","","","","","","","","",""
"","ITI","","html-keyboard-response","546","524214","0.0-1.0-756.0","0","0","71953","","null","","","null","83","","","","","","","","","","","","","","","NaN",""
"","S1","","html-keyboard-response","547","524467","0.0-1.0-758.0","0","0","71953","","null","","","null","84","","","","","","","","","","","","","","","",""
"","ISI","","html-keyboard-response","548","525470","0.0-1.0-759.0","0","0","71953","","null","","","null","84","NaN","","","","","","","","","","","","","","",""
"","S2","","html-keyboard-response","549","525722","0.0-1.0-760.0","0","0","71953","","null","","","null","84","","NaN","","","","","","","","","","","","","",""
"","response","","html-keyboard-response","550","526262","0.0-1.0-761.0-0.0","0","0","71953","","539","","","75","84","","","2","84","training","adjacent","FE","6","5","L.jpg","Q.jpg","1","0","0","",""
"","feedback","","html-keyboard-response","551","527265","0.0-1.0-762.0-0.0","0","0","71953","","null","","","null","84","","","","","","","","","","","","","","","",""
"","time_out","","html-keyboard-response","552","529268","0.0-1.0-764.0-0.0","0","0","71953","","null","","","null","84","","","","","","","","","","","","","","","",""
"","ITI","","html-keyboard-response","553","530270","0.0-1.0-765.0","0","0","71953","","null","","","null","84","","","","","","","","","","","","","","","NaN",""
"","S1","","html-keyboard-response","554","530523","0.0-1.0-767.0","0","0","71953","","null","","","null","85","","","","","","","","","","","","","","","",""
"","ISI","","html-keyboard-response","555","531526","0.0-1.0-768.0","0","0","71953","","null","","","null","85","NaN","","","","","","","","","","","","","","",""
"","S2","","html-keyboard-response","556","531779","0.0-1.0-769.0","0","0","71953","","null","","","null","85","","NaN","","","","","","","","","","","","","",""
"","response","","html-keyboard-response","557","532588","0.0-1.0-770.0-0.0","0","0","71953","","808","","","75","85","","","2","85","training","adjacent","FE","6","5","L.jpg","Q.jpg","1","0","0","",""
"","feedback","","html-keyboard-response","558","533591","0.0-1.0-771.0-0.0","0","0","71953","","null","","","null","85","","","","","","","","","","","","","","","",""
"","time_out","","html-keyboard-response","559","535594","0.0-1.0-773.0-0.0","0","0","71953","","null","","","null","85","","","","","","","","","","","","","","","",""
"","ITI","","html-keyboard-response","560","536597","0.0-1.0-774.0","0","0","71953","","null","","","null","85","","","","","","","","","","","","","","","NaN",""
"","S1","","html-keyboard-response","561","536862","0.0-1.0-776.0","0","0","71953","","null","","","null","86","","","","","","","","","","","","","","","",""
"","ISI","","html-keyboard-response","562","537865","0.0-1.0-777.0","0","0","71953","","null","","","null","86","NaN","","","","","","","","","","","","","","",""
"","S2","","html-keyboard-response","563","538117","0.0-1.0-778.0","0","0","71953","","null","","","null","86","","NaN","","","","","","","","","","","","","",""
"","response","","html-keyboard-response","564","538154","0.0-1.0-779.0-0.0","0","0","71953","","35","","","68","86","","","2","86","training","adjacent","EF","5","6","Q.jpg","L.jpg","0","1","0","",""
"","feedback","","html-keyboard-response","565","539157","0.0-1.0-780.0-0.0","0","0","71953","","null","","","null","86","","","","","","","","","","","","","","","",""
"","time_out","","html-keyboard-response","566","541160","0.0-1.0-782.0-0.0","0","0","71953","","null","","","null","86","","","","","","","","","","","","","","","",""
"","ITI","","html-keyboard-response","567","542162","0.0-1.0-783.0","0","0","71953","","null","","","null","86","","","","","","","","","","","","","","","NaN",""
"","S1","","html-keyboard-response","568","542414","0.0-1.0-785.0","0","0","71953","","null","","","null","87","","","","","","","","","","","","","","","",""
"","ISI","","html-keyboard-response","569","543417","0.0-1.0-786.0","0","0","71953","","null","","","null","87","NaN","","","","","","","","","","","","","","",""
"","S2","","html-keyboard-response","570","543669","0.0-1.0-787.0","0","0","71953","","null","","","null","87","","NaN","","","","","","","","","","","","","",""
"","response","","html-keyboard-response","571","544320","0.0-1.0-788.0-0.0","0","0","71953","","650","","","75","87","","","2","87","training","adjacent","CD","3","4","M.jpg","P.jpg","1","1","1","",""
"","feedback","","html-keyboard-response","572","545323","0.0-1.0-789.0-0.0","0","0","71953","","null","","","null","87","","","","","","","","","","","","","","","",""
"","ITI","","html-keyboard-response","573","546326","0.0-1.0-792.0","0","0","71953","","null","","","null","87","","","","","","","","","","","","","","","NaN",""
"","S1","","html-keyboard-response","574","546580","0.0-1.0-794.0","0","0","71953","","null","","","null","88","","","","","","","","","","","","","","","",""
"","ISI","","html-keyboard-response","575","547583","0.0-1.0-795.0","0","0","71953","","null","","","null","88","NaN","","","","","","","","","","","","","","",""
"","S2","","html-keyboard-response","576","547836","0.0-1.0-796.0","0","0","71953","","null","","","null","88","","NaN","","","","","","","","","","","","","",""
"","response","","html-keyboard-response","577","548773","0.0-1.0-797.0-0.0","0","0","71953","","935","","","75","88","","","2","88","training","adjacent","ED","5","4","Q.jpg","P.jpg","1","0","0","",""
"","feedback","","html-keyboard-response","578","549776","0.0-1.0-798.0-0.0","0","0","71953","","null","","","null","88","","","","","","","","","","","","","","","",""
"","time_out","","html-keyboard-response","579","551779","0.0-1.0-800.0-0.0","0","0","71953","","null","","","null","88","","","","","","","","","","","","","","","",""
"","ITI","","html-keyboard-response","580","552784","0.0-1.0-801.0","0","0","71953","","null","","","null","88","","","","","","","","","","","","","","","NaN",""
"","S1","","html-keyboard-response","581","553037","0.0-1.0-803.0","0","0","71953","","null","","","null","89","","","","","","","","","","","","","","","",""
