"success","ttype","start_time","trial_type","trial_index","time_elapsed","internal_node_id","warning","missed_checkup","PID","view_history","rt","responses","repeat_instructions","key_press","index","keypress_isi","keypress_S2","block","trial_num","phase","group_type","pair_type","S1_stim","S2_stim","S1_img","S2_img","S1_chosen","S1_higher","accuracy","keypress_iti","total_bonus_tally"
"true","full_screen","d08052022hr1312","fullscreen","0","23474","0.0-0.0","0","0","48905","","","","","","","","","","","","","","","","","","","","","",""
"","instructions","","instructions","1","834866","0.0-1.0-0.0-0.0","0","0","48905","[{""page_index"":0,""viewing_time"":44636},{""page_index"":1,""viewing_time"":20521},{""page_index"":2,""viewing_time"":744426},{""page_index"":3,""viewing_time"":1806}]","811390","","","","","","","","","","","","","","","","","","","",""
"","comprehension_check","","survey-multi-choice","2","855514","0.0-1.0-0.0-1.0","0","0","48905","","20644","{""Q0"":""True"",""Q1"":""D"",""Q2"":""Once the second image appears and while the screen 'MAKE A CHOICE' is shown"",""Q3"":""Green mark"",""Q4"":""either D or K""}","1","","","","","","","","","","","","","","","","","",""
"","missed_instruction_checkup","","html-keyboard-response","3","856806","0.0-1.0-0.0-2.0-0.0","0","1","48905","","1289","","","32","","","","","","","","","","","","","","","","",""
"","instructions","","instructions","4","869766","0.0-1.0-0.1-0.1","0","0","48905","[{""page_index"":0,""viewing_time"":2474},{""page_index"":1,""viewing_time"":8784},{""page_index"":2,""viewing_time"":768},{""page_index"":3,""viewing_time"":932}]","12958","","","","","","","","","","","","","","","","","","","",""
"","comprehension_check","","survey-multi-choice","5","877418","0.0-1.0-0.1-1.1","0","0","48905","","7647","{""Q0"":""True"",""Q1"":"""",""Q2"":""Once the second image appears and while the screen 'MAKE A CHOICE' is shown"",""Q3"":""Green mark"",""Q4"":""either D or K""}","1","","","","","","","","","","","","","","","","","",""
"","missed_instruction_checkup","","html-keyboard-response","6","878782","0.0-1.0-0.1-2.1-0.1","0","1","48905","","1362","","","32","","","","","","","","","","","","","","","","",""
"","instructions","","instructions","7","901377","0.0-1.0-0.2-0.2","0","0","48905","[{""page_index"":0,""viewing_time"":1025},{""page_index"":1,""viewing_time"":15114},{""page_index"":2,""viewing_time"":5821},{""page_index"":3,""viewing_time"":634}]","22594","","","","","","","","","","","","","","","","","","","",""
"","comprehension_check","","survey-multi-choice","8","915859","0.0-1.0-0.2-1.2","0","0","48905","","14477","{""Q0"":""True"",""Q1"":""K"",""Q2"":""Once the second image appears and while the screen 'MAKE A CHOICE' is shown"",""Q3"":""Green mark"",""Q4"":""either D or K""}","0","","","","","","","","","","","","","","","","","",""
"","start_exp","","html-keyboard-response","9","921893","0.0-1.0-1.0","0","0","48905","","6031","","","32","","","","","","","","","","","","","","","","",""
"","S1","","html-keyboard-response","10","922145","0.0-1.0-2.0","0","0","48905","","null","","","null","0","","","","","","","","","","","","","","","",""
"","ISI","","html-keyboard-response","11","924148","0.0-1.0-3.0","0","0","48905","","null","","","null","0","NaN","","","","","","","","","","","","","","",""
"","S2","","html-keyboard-response","12","924401","0.0-1.0-4.0","0","0","48905","","null","","","null","0","","NaN","","","","","","","","","","","","","",""
"","response","","html-keyboard-response","13","926153","0.0-1.0-5.0-0.0","0","0","48905","","null","","","null","0","","","1","0","training","adjacent","DE","4","5","O.jpg","P.jpg","NaN","1","0","",""
"","too_slow_prompt","","html-keyboard-response","14","927155","0.0-1.0-7.0-0.0","1","0","48905","","null","","","null","","","","","","","","","","","","","","","","",""
"","time_out","","html-keyboard-response","15","929157","0.0-1.0-8.0-0.0","0","0","48905","","null","","","null","0","","","","","","","","","","","","","","","",""
"","ITI","","html-keyboard-response","16","930160","0.0-1.0-9.0","0","0","48905","","null","","","null","0","","","","","","","","","","","","","","","NaN",""
"","S1","","html-keyboard-response","17","930413","0.0-1.0-11.0","0","0","48905","","null","","","null","1","","","","","","","","","","","","","","","",""
"","ISI","","html-keyboard-response","18","932415","0.0-1.0-12.0","0","0","48905","","null","","","null","1","NaN","","","","","","","","","","","","","","",""
"","S2","","html-keyboard-response","19","932667","0.0-1.0-13.0","0","0","48905","","null","","","null","1","","NaN","","","","","","","","","","","","","",""
"","response","","html-keyboard-response","20","932996","0.0-1.0-14.0-0.0","0","0","48905","","328","","","75","1","","","1","1","training","adjacent","BC","2","3","L.jpg","N.jpg","1","1","1","",""
"","feedback","","html-keyboard-response","21","933999","0.0-1.0-15.0-0.0","0","0","48905","","null","","","null","1","","","","","","","","","","","","","","","",""
"","ITI","","html-keyboard-response","22","935001","0.0-1.0-18.0","0","0","48905","","null","","","null","1","","","","","","","","","","","","","","","NaN",""
"","S1","","html-keyboard-response","23","935253","0.0-1.0-20.0","0","0","48905","","null","","","null","2","","","","","","","","","","","","","","","",""
"","ISI","","html-keyboard-response","24","937255","0.0-1.0-21.0","0","0","48905","","null","","","null","2","NaN","","","","","","","","","","","","","","",""
"","S2","","html-keyboard-response","25","937508","0.0-1.0-22.0","0","0","48905","","null","","","null","2","","NaN","","","","","","","","","","","","","",""
"","response","","html-keyboard-response","26","937869","0.0-1.0-23.0-0.0","0","0","48905","","359","","","75","2","","","1","2","training","adjacent","FE","6","5","R.jpg","P.jpg","1","0","0","",""
"","feedback","","html-keyboard-response","27","938882","0.0-1.0-24.0-0.0","0","0","48905","","null","","","null","2","","","","","","","","","","","","","","","",""
"","time_out","","html-keyboard-response","28","940884","0.0-1.0-26.0-0.0","0","0","48905","","null","","","null","2","","","","","","","","","","","","","","","",""
"","ITI","","html-keyboard-response","29","941887","0.0-1.0-27.0","0","0","48905","","null","","","null","2","","","","","","","","","","","","","","","NaN",""
"","S1","","html-keyboard-response","30","942139","0.0-1.0-29.0","0","0","48905","","null","","","null","3","","","","","","","","","","","","","","","",""
"","ISI","","html-keyboard-response","31","944140","0.0-1.0-30.0","0","0","48905","","null","","","null","3","NaN","","","","","","","","","","","","","","",""
"","S2","","html-keyboard-response","32","944392","0.0-1.0-31.0","0","0","48905","","null","","","null","3","","NaN","","","","","","","","","","","","","",""
"","response","","html-keyboard-response","33","944580","0.0-1.0-32.0-0.0","0","0","48905","","186","","","75","3","","","1","3","training","adjacent","DC","4","3","O.jpg","N.jpg","1","0","0","",""
"","feedback","","html-keyboard-response","34","945582","0.0-1.0-33.0-0.0","0","0","48905","","null","","","null","3","","","","","","","","","","","","","","","",""
"","time_out","","html-keyboard-response","35","947585","0.0-1.0-35.0-0.0","0","0","48905","","null","","","null","3","","","","","","","","","","","","","","","",""
"","ITI","","html-keyboard-response","36","948587","0.0-1.0-36.0","0","0","48905","","null","","","null","3","","","","","","","","","","","","","","","NaN",""
"","S1","","html-keyboard-response","37","948843","0.0-1.0-38.0","0","0","48905","","null","","","null","4","","","","","","","","","","","","","","","",""
"","ISI","","html-keyboard-response","38","950845","0.0-1.0-39.0","0","0","48905","","null","","","null","4","NaN","","","","","","","","","","","","","","",""
"","S2","","html-keyboard-response","39","951097","0.0-1.0-40.0","0","0","48905","","null","","","null","4","","NaN","","","","","","","","","","","","","",""
"","response","","html-keyboard-response","40","951636","0.0-1.0-41.0-0.0","0","0","48905","","538","","","75","4","","","1","4","training","adjacent","DE","4","5","O.jpg","P.jpg","1","1","1","",""
"","feedback","","html-keyboard-response","41","952639","0.0-1.0-42.0-0.0","0","0","48905","","null","","","null","4","","","","","","","","","","","","","","","",""
"","ITI","","html-keyboard-response","42","953643","0.0-1.0-45.0","0","0","48905","","null","","","null","4","","","","","","","","","","","","","","","NaN",""
"","S1","","html-keyboard-response","43","953895","0.0-1.0-47.0","0","0","48905","","null","","","null","5","","","","","","","","","","","","","","","",""
"","ISI","","html-keyboard-response","44","955897","0.0-1.0-48.0","0","0","48905","","null","","","null","5","NaN","","","","","","","","","","","","","","",""
"","S2","","html-keyboard-response","45","956149","0.0-1.0-49.0","0","0","48905","","null","","","null","5","","NaN","","","","","","","","","","","","","",""
"","response","","html-keyboard-response","46","956781","0.0-1.0-50.0-0.0","0","0","48905","","630","","","68","5","","","1","5","training","adjacent","CB","3","2","N.jpg","L.jpg","0","0","1","",""
"","feedback","","html-keyboard-response","47","957783","0.0-1.0-51.0-0.0","0","0","48905","","null","","","null","5","","","","","","","","","","","","","","","",""
"","ITI","","html-keyboard-response","48","958786","0.0-1.0-54.0","0","0","48905","","null","","","null","5","","","","","","","","","","","","","","","NaN",""
"","S1","","html-keyboard-response","49","959038","0.0-1.0-56.0","0","0","48905","","null","","","null","6","","","","","","","","","","","","","","","",""
"","ISI","","html-keyboard-response","50","961040","0.0-1.0-57.0","0","0","48905","","null","","","null","6","NaN","","","","","","","","","","","","","","",""
"","S2","","html-keyboard-response","51","961292","0.0-1.0-58.0","0","0","48905","","null","","","null","6","","NaN","","","","","","","","","","","","","",""
"","response","","html-keyboard-response","52","961709","0.0-1.0-59.0-0.0","0","0","48905","","415","","","68","6","","","1","6","training","adjacent","DC","4","3","O.jpg","N.jpg","0","0","1","",""
"","feedback","","html-keyboard-response","53","962711","0.0-1.0-60.0-0.0","0","0","48905","","null","","","null","6","","","","","","","","","","","","","","","",""
"","ITI","","html-keyboard-response","54","963713","0.0-1.0-63.0","0","0","48905","","null","","","null","6","","","","","","","","","","","","","","","NaN",""
"","S1","","html-keyboard-response","55","963965","0.0-1.0-65.0","0","0","48905","","null","","","null","7","","","","","","","","","","","","","","","",""
"","ISI","","html-keyboard-response","56","965967","0.0-1.0-66.0","0","0","48905","","null","","","null","7","NaN","","","","","","","","","","","","","","",""
"","S2","","html-keyboard-response","57","966220","0.0-1.0-67.0","0","0","48905","","null","","","null","7","","NaN","","","","","","","","","","","","","",""
"","response","","html-keyboard-response","58","966621","0.0-1.0-68.0-0.0","0","0","48905","","400","","","75","7","","","1","7","training","adjacent","GF","7","6","Q.jpg","R.jpg","1","0","0","",""
"","feedback","","html-keyboard-response","59","967623","0.0-1.0-69.0-0.0","0","0","48905","","null","","","null","7","","","","","","","","","","","","","","","",""
"","time_out","","html-keyboard-response","60","969625","0.0-1.0-71.0-0.0","0","0","48905","","null","","","null","7","","","","","","","","","","","","","","","",""
"","ITI","","html-keyboard-response","61","970628","0.0-1.0-72.0","0","0","48905","","null","","","null","7","","","","","","","","","","","","","","","NaN",""
"","S1","","html-keyboard-response","62","970880","0.0-1.0-74.0","0","0","48905","","null","","","null","8","","","","","","","","","","","","","","","",""
"","ISI","","html-keyboard-response","63","972881","0.0-1.0-75.0","0","0","48905","","null","","","null","8","NaN","","","","","","","","","","","","","","",""
"","S2","","html-keyboard-response","64","973134","0.0-1.0-76.0","0","0","48905","","null","","","null","8","","NaN","","","","","","","","","","","","","",""
"","response","","html-keyboard-response","65","973653","0.0-1.0-77.0-0.0","0","0","48905","","517","","","75","8","","","1","8","training","adjacent","GF","7","6","Q.jpg","R.jpg","1","0","0","",""
"","feedback","","html-keyboard-response","66","974656","0.0-1.0-78.0-0.0","0","0","48905","","null","","","null","8","","","","","","","","","","","","","","","",""
"","time_out","","html-keyboard-response","67","976658","0.0-1.0-80.0-0.0","0","0","48905","","null","","","null","8","","","","","","","","","","","","","","","",""
"","ITI","","html-keyboard-response","68","977660","0.0-1.0-81.0","0","0","48905","","null","","","null","8","","","","","","","","","","","","","","","NaN",""
"","S1","","html-keyboard-response","69","977912","0.0-1.0-83.0","0","0","48905","","null","","","null","9","","","","","","","","","","","","","","","",""
"","ISI","","html-keyboard-response","70","979915","0.0-1.0-84.0","0","0","48905","","null","","","null","9","NaN","","","","","","","","","","","","","","",""
"","S2","","html-keyboard-response","71","980168","0.0-1.0-85.0","0","0","48905","","null","","","null","9","","NaN","","","","","","","","","","","","","",""
"","response","","html-keyboard-response","72","980645","0.0-1.0-86.0-0.0","0","0","48905","","476","","","68","9","","","1","9","training","adjacent","CD","3","4","N.jpg","O.jpg","0","1","0","",""
"","feedback","","html-keyboard-response","73","981647","0.0-1.0-87.0-0.0","0","0","48905","","null","","","null","9","","","","","","","","","","","","","","","",""
"","time_out","","html-keyboard-response","74","983649","0.0-1.0-89.0-0.0","0","0","48905","","null","","","null","9","","","","","","","","","","","","","","","",""
"","ITI","","html-keyboard-response","75","984651","0.0-1.0-90.0","0","0","48905","","null","","","null","9","","","","","","","","","","","","","","","NaN",""
"","S1","","html-keyboard-response","76","984904","0.0-1.0-92.0","0","0","48905","","null","","","null","10","","","","","","","","","","","","","","","",""
"","ISI","","html-keyboard-response","77","986906","0.0-1.0-93.0","0","0","48905","","null","","","null","10","NaN","","","","","","","","","","","","","","",""
"","S2","","html-keyboard-response","78","987158","0.0-1.0-94.0","0","0","48905","","null","","","null","10","","NaN","","","","","","","","","","","","","",""
"","response","","html-keyboard-response","79","987485","0.0-1.0-95.0-0.0","0","0","48905","","325","","","75","10","","","1","10","training","adjacent","FG","6","7","R.jpg","Q.jpg","1","1","1","",""
"","feedback","","html-keyboard-response","80","988487","0.0-1.0-96.0-0.0","0","0","48905","","null","","","null","10","","","","","","","","","","","","","","","",""
"","ITI","","html-keyboard-response","81","989489","0.0-1.0-99.0","0","0","48905","","null","","","null","10","","","","","","","","","","","","","","","NaN",""
"","S1","","html-keyboard-response","82","989743","0.0-1.0-101.0","0","0","48905","","null","","","null","11","","","","","","","","","","","","","","","",""
"","ISI","","html-keyboard-response","83","991745","0.0-1.0-102.0","0","0","48905","","null","","","null","11","NaN","","","","","","","","","","","","","","",""
"","S2","","html-keyboard-response","84","991997","0.0-1.0-103.0","0","0","48905","","null","","","null","11","","NaN","","","","","","","","","","","","","",""
"","response","","html-keyboard-response","85","992493","0.0-1.0-104.0-0.0","0","0","48905","","493","","","75","11","","","1","11","training","adjacent","EF","5","6","P.jpg","R.jpg","1","1","1","",""
"","feedback","","html-keyboard-response","86","993495","0.0-1.0-105.0-0.0","0","0","48905","","null","","","null","11","","","","","","","","","","","","","","","",""
"","ITI","","html-keyboard-response","87","994496","0.0-1.0-108.0","0","0","48905","","null","","","null","11","","","","","","","","","","","","","","","NaN",""
"","S1","","html-keyboard-response","88","994748","0.0-1.0-110.0","0","0","48905","","null","","","null","12","","","","","","","","","","","","","","","",""
"","ISI","","html-keyboard-response","89","996750","0.0-1.0-111.0","0","0","48905","","null","","","null","12","NaN","","","","","","","","","","","","","","",""
"","S2","","html-keyboard-response","90","997003","0.0-1.0-112.0","0","0","48905","","null","","","null","12","","NaN","","","","","","","","","","","","","",""
"","response","","html-keyboard-response","91","997764","0.0-1.0-113.0-0.0","0","0","48905","","761","","","75","12","","","1","12","training","adjacent","CD","3","4","N.jpg","O.jpg","1","1","1","",""
"","feedback","","html-keyboard-response","92","998767","0.0-1.0-114.0-0.0","0","0","48905","","null","","","null","12","","","","","","","","","","","","","","","",""
"","ITI","","html-keyboard-response","93","999771","0.0-1.0-117.0","0","0","48905","","null","","","null","12","","","","","","","","","","","","","","","NaN",""
"","S1","","html-keyboard-response","94","1000023","0.0-1.0-119.0","0","0","48905","","null","","","null","13","","","","","","","","","","","","","","","",""
"","ISI","","html-keyboard-response","95","1002025","0.0-1.0-120.0","0","0","48905","","null","","","null","13","NaN","","","","","","","","","","","","","","",""
"","S2","","html-keyboard-response","96","1002278","0.0-1.0-121.0","0","0","48905","","null","","","null","13","","NaN","","","","","","","","","","","","","",""
"","response","","html-keyboard-response","97","1002548","0.0-1.0-122.0-0.0","0","0","48905","","269","","","68","13","","","1","13","training","adjacent","GF","7","6","Q.jpg","R.jpg","0","0","1","",""
"","feedback","","html-keyboard-response","98","1003552","0.0-1.0-123.0-0.0","0","0","48905","","null","","","null","13","","","","","","","","","","","","","","","",""
"","ITI","","html-keyboard-response","99","1004553","0.0-1.0-126.0","0","0","48905","","null","","","null","13","","","","","","","","","","","","","","","NaN",""
"","S1","","html-keyboard-response","100","1004806","0.0-1.0-128.0","0","0","48905","","null","","","null","14","","","","","","","","","","","","","","","",""
"","ISI","","html-keyboard-response","101","1006808","0.0-1.0-129.0","0","0","48905","","null","","","null","14","NaN","","","","","","","","","","","","","","",""
"","S2","","html-keyboard-response","102","1007061","0.0-1.0-130.0","0","0","48905","","null","","","null","14","","NaN","","","","","","","","","","","","","",""
"","response","","html-keyboard-response","103","1007460","0.0-1.0-131.0-0.0","0","0","48905","","398","","","75","14","","","1","14","training","adjacent","FG","6","7","R.jpg","Q.jpg","1","1","1","",""
"","feedback","","html-keyboard-response","104","1008465","0.0-1.0-132.0-0.0","0","0","48905","","null","","","null","14","","","","","","","","","","","","","","","",""
"","ITI","","html-keyboard-response","105","1009467","0.0-1.0-135.0","0","0","48905","","null","","","null","14","","","","","","","","","","","","","","","NaN",""
"","S1","","html-keyboard-response","106","1009719","0.0-1.0-137.0","0","0","48905","","null","","","null","15","","","","","","","","","","","","","","","",""
"","ISI","","html-keyboard-response","107","1011722","0.0-1.0-138.0","0","0","48905","","null","","","null","15","NaN","","","","","","","","","","","","","","",""
"","S2","","html-keyboard-response","108","1011974","0.0-1.0-139.0","0","0","48905","","null","","","null","15","","NaN","","","","","","","","","","","","","",""
"","response","","html-keyboard-response","109","1013084","0.0-1.0-140.0-0.0","0","0","48905","","1108","","","68","15","","","1","15","training","adjacent","BC","2","3","L.jpg","N.jpg","0","1","0","",""
"","feedback","","html-keyboard-response","110","1014086","0.0-1.0-141.0-0.0","0","0","48905","","null","","","null","15","","","","","","","","","","","","","","","",""
"","time_out","","html-keyboard-response","111","1016088","0.0-1.0-143.0-0.0","0","0","48905","","null","","","null","15","","","","","","","","","","","","","","","",""
"","ITI","","html-keyboard-response","112","1017090","0.0-1.0-144.0","0","0","48905","","null","","","null","15","","","","","","","","","","","","","","","NaN",""
"","S1","","html-keyboard-response","113","1017343","0.0-1.0-146.0","0","0","48905","","null","","","null","16","","","","","","","","","","","","","","","",""
"","ISI","","html-keyboard-response","114","1019345","0.0-1.0-147.0","0","0","48905","","null","","","null","16","NaN","","","","","","","","","","","","","","",""
"","S2","","html-keyboard-response","115","1019597","0.0-1.0-148.0","0","0","48905","","null","","","null","16","","NaN","","","","","","","","","","","","","",""
"","response","","html-keyboard-response","116","1019836","0.0-1.0-149.0-0.0","0","0","48905","","238","","","75","16","","","1","16","training","adjacent","FG","6","7","R.jpg","Q.jpg","1","1","1","",""
"","feedback","","html-keyboard-response","117","1020839","0.0-1.0-150.0-0.0","0","0","48905","","null","","","null","16","","","","","","","","","","","","","","","",""
"","ITI","","html-keyboard-response","118","1021842","0.0-1.0-153.0","0","0","48905","","null","","","null","16","","","","","","","","","","","","","","","NaN",""
"","S1","","html-keyboard-response","119","1022094","0.0-1.0-155.0","0","0","48905","","null","","","null","17","","","","","","","","","","","","","","","",""
"","ISI","","html-keyboard-response","120","1024096","0.0-1.0-156.0","0","0","48905","","null","","","null","17","NaN","","","","","","","","","","","","","","",""
"","S2","","html-keyboard-response","121","1024348","0.0-1.0-157.0","0","0","48905","","null","","","null","17","","NaN","","","","","","","","","","","","","",""
"","response","","html-keyboard-response","122","1025052","0.0-1.0-158.0-0.0","0","0","48905","","703","","","68","17","","","1","17","training","adjacent","ED","5","4","P.jpg","O.jpg","0","0","1","",""
"","feedback","","html-keyboard-response","123","1026061","0.0-1.0-159.0-0.0","0","0","48905","","null","","","null","17","","","","","","","","","","","","","","","",""
"","ITI","","html-keyboard-response","124","1027063","0.0-1.0-162.0","0","0","48905","","null","","","null","17","","","","","","","","","","","","","","","NaN",""
"","S1","","html-keyboard-response","125","1027315","0.0-1.0-164.0","0","0","48905","","null","","","null","18","","","","","","","","","","","","","","","",""
"","ISI","","html-keyboard-response","126","1029317","0.0-1.0-165.0","0","0","48905","","null","","","null","18","NaN","","","","","","","","","","","","","","",""
"","S2","","html-keyboard-response","127","1029570","0.0-1.0-166.0","0","0","48905","","null","","","null","18","","NaN","","","","","","","","","","","","","",""
"","response","","html-keyboard-response","128","1029892","0.0-1.0-167.0-0.0","0","0","48905","","321","","","68","18","","","1","18","training","adjacent","BA","2","1","L.jpg","M.jpg","0","0","1","",""
"","feedback","","html-keyboard-response","129","1030894","0.0-1.0-168.0-0.0","0","0","48905","","null","","","null","18","","","","","","","","","","","","","","","",""
"","ITI","","html-keyboard-response","130","1031896","0.0-1.0-171.0","0","0","48905","","null","","","null","18","","","","","","","","","","","","","","","NaN",""
"","S1","","html-keyboard-response","131","1032149","0.0-1.0-173.0","0","0","48905","","null","","","null","19","","","","","","","","","","","","","","","",""
"","ISI","","html-keyboard-response","132","1034152","0.0-1.0-174.0","0","0","48905","","null","","","null","19","NaN","","","","","","","","","","","","","","",""
"","S2","","html-keyboard-response","133","1034404","0.0-1.0-175.0","0","0","48905","","null","","","null","19","","NaN","","","","","","","","","","","","","",""
"","response","","html-keyboard-response","134","1034764","0.0-1.0-176.0-0.0","0","0","48905","","359","","","75","19","","","1","19","training","adjacent","FE","6","5","R.jpg","P.jpg","1","0","0","",""
"","feedback","","html-keyboard-response","135","1035766","0.0-1.0-177.0-0.0","0","0","48905","","null","","","null","19","","","","","","","","","","","","","","","",""
"","time_out","","html-keyboard-response","136","1037769","0.0-1.0-179.0-0.0","0","0","48905","","null","","","null","19","","","","","","","","","","","","","","","",""
"","ITI","","html-keyboard-response","137","1038771","0.0-1.0-180.0","0","0","48905","","null","","","null","19","","","","","","","","","","","","","","","NaN",""
"","S1","","html-keyboard-response","138","1039023","0.0-1.0-182.0","0","0","48905","","null","","","null","20","","","","","","","","","","","","","","","",""
"","ISI","","html-keyboard-response","139","1041026","0.0-1.0-183.0","0","0","48905","","null","","","null","20","NaN","","","","","","","","","","","","","","",""
"","S2","","html-keyboard-response","140","1041278","0.0-1.0-184.0","0","0","48905","","null","","","null","20","","NaN","","","","","","","","","","","","","",""
"","response","","html-keyboard-response","141","1041572","0.0-1.0-185.0-0.0","0","0","48905","","293","","","75","20","","","1","20","training","adjacent","EF","5","6","P.jpg","R.jpg","1","1","1","",""
"","feedback","","html-keyboard-response","142","1042575","0.0-1.0-186.0-0.0","0","0","48905","","null","","","null","20","","","","","","","","","","","","","","","",""
"","ITI","","html-keyboard-response","143","1043576","0.0-1.0-189.0","0","0","48905","","null","","","null","20","","","","","","","","","","","","","","","NaN",""
"","S1","","html-keyboard-response","144","1043828","0.0-1.0-191.0","0","0","48905","","null","","","null","21","","","","","","","","","","","","","","","",""
"","ISI","","html-keyboard-response","145","1045831","0.0-1.0-192.0","0","0","48905","","null","","","null","21","NaN","","","","","","","","","","","","","","",""
"","S2","","html-keyboard-response","146","1046083","0.0-1.0-193.0","0","0","48905","","null","","","null","21","","NaN","","","","","","","","","","","","","",""
"","response","","html-keyboard-response","147","1046404","0.0-1.0-194.0-0.0","0","0","48905","","319","","","68","21","","","1","21","training","adjacent","BA","2","1","L.jpg","M.jpg","0","0","1","",""
"","feedback","","html-keyboard-response","148","1047406","0.0-1.0-195.0-0.0","0","0","48905","","null","","","null","21","","","","","","","","","","","","","","","",""
"","ITI","","html-keyboard-response","149","1048409","0.0-1.0-198.0","0","0","48905","","null","","","null","21","","","","","","","","","","","","","","","NaN",""
"","S1","","html-keyboard-response","150","1048661","0.0-1.0-200.0","0","0","48905","","null","","","null","22","","","","","","","","","","","","","","","",""
"","ISI","","html-keyboard-response","151","1050663","0.0-1.0-201.0","0","0","48905","","null","","","null","22","NaN","","","","","","","","","","","","","","",""
"","S2","","html-keyboard-response","152","1050915","0.0-1.0-202.0","0","0","48905","","null","","","null","22","","NaN","","","","","","","","","","","","","",""
"","response","","html-keyboard-response","153","1051196","0.0-1.0-203.0-0.0","0","0","48905","","279","","","75","22","","","1","22","training","adjacent","FG","6","7","R.jpg","Q.jpg","1","1","1","",""
"","feedback","","html-keyboard-response","154","1052199","0.0-1.0-204.0-0.0","0","0","48905","","null","","","null","22","","","","","","","","","","","","","","","",""
"","ITI","","html-keyboard-response","155","1053201","0.0-1.0-207.0","0","0","48905","","null","","","null","22","","","","","","","","","","","","","","","NaN",""
"","S1","","html-keyboard-response","156","1053453","0.0-1.0-209.0","0","0","48905","","null","","","null","23","","","","","","","","","","","","","","","",""
"","ISI","","html-keyboard-response","157","1055455","0.0-1.0-210.0","0","0","48905","","null","","","null","23","NaN","","","","","","","","","","","","","","",""
"","S2","","html-keyboard-response","158","1055707","0.0-1.0-211.0","0","0","48905","","null","","","null","23","","NaN","","","","","","","","","","","","","",""
"","response","","html-keyboard-response","159","1055892","0.0-1.0-212.0-0.0","0","0","48905","","183","","","68","23","","","1","23","training","adjacent","CB","3","2","N.jpg","L.jpg","0","0","1","",""
"","feedback","","html-keyboard-response","160","1056894","0.0-1.0-213.0-0.0","0","0","48905","","null","","","null","23","","","","","","","","","","","","","","","",""
"","ITI","","html-keyboard-response","161","1057896","0.0-1.0-216.0","0","0","48905","","null","","","null","23","","","","","","","","","","","","","","","NaN",""
"","S1","","html-keyboard-response","162","1058148","0.0-1.0-218.0","0","0","48905","","null","","","null","24","","","","","","","","","","","","","","","",""
"","ISI","","html-keyboard-response","163","1060150","0.0-1.0-219.0","0","0","48905","","null","","","null","24","NaN","","","","","","","","","","","","","","",""
"","S2","","html-keyboard-response","164","1060403","0.0-1.0-220.0","0","0","48905","","null","","","null","24","","NaN","","","","","","","","","","","","","",""
"","response","","html-keyboard-response","165","1060668","0.0-1.0-221.0-0.0","0","0","48905","","264","","","75","24","","","1","24","training","adjacent","BA","2","1","L.jpg","M.jpg","1","0","0","",""
"","feedback","","html-keyboard-response","166","1061670","0.0-1.0-222.0-0.0","0","0","48905","","null","","","null","24","","","","","","","","","","","","","","","",""
"","time_out","","html-keyboard-response","167","1063673","0.0-1.0-224.0-0.0","0","0","48905","","null","","","null","24","","","","","","","","","","","","","","","",""
"","ITI","","html-keyboard-response","168","1064675","0.0-1.0-225.0","0","0","48905","","null","","","null","24","","","","","","","","","","","","","","","NaN",""
"","S1","","html-keyboard-response","169","1064927","0.0-1.0-227.0","0","0","48905","","null","","","null","25","","","","","","","","","","","","","","","",""
"","ISI","","html-keyboard-response","170","1066929","0.0-1.0-228.0","0","0","48905","","null","","","null","25","NaN","","","","","","","","","","","","","","",""
"","S2","","html-keyboard-response","171","1067181","0.0-1.0-229.0","0","0","48905","","null","","","null","25","","NaN","","","","","","","","","","","","","",""
"","response","","html-keyboard-response","172","1067556","0.0-1.0-230.0-0.0","0","0","48905","","373","","","68","25","","","1","25","training","adjacent","EF","5","6","P.jpg","R.jpg","0","1","0","",""
"","feedback","","html-keyboard-response","173","1068558","0.0-1.0-231.0-0.0","0","0","48905","","null","","","null","25","","","","","","","","","","","","","","","",""
"","time_out","","html-keyboard-response","174","1070560","0.0-1.0-233.0-0.0","0","0","48905","","null","","","null","25","","","","","","","","","","","","","","","",""
"","ITI","","html-keyboard-response","175","1071563","0.0-1.0-234.0","0","0","48905","","null","","","null","25","","","","","","","","","","","","","","","NaN",""
"","S1","","html-keyboard-response","176","1071816","0.0-1.0-236.0","0","0","48905","","null","","","null","26","","","","","","","","","","","","","","","",""
"","ISI","","html-keyboard-response","177","1073818","0.0-1.0-237.0","0","0","48905","","null","","","null","26","NaN","","","","","","","","","","","","","","",""
"","S2","","html-keyboard-response","178","1074071","0.0-1.0-238.0","0","0","48905","","null","","","null","26","","NaN","","","","","","","","","","","","","",""
"","response","","html-keyboard-response","179","1074436","0.0-1.0-239.0-0.0","0","0","48905","","364","","","75","26","","","1","26","training","adjacent","CD","3","4","N.jpg","O.jpg","1","1","1","",""
"","feedback","","html-keyboard-response","180","1075438","0.0-1.0-240.0-0.0","0","0","48905","","null","","","null","26","","","","","","","","","","","","","","","",""
"","ITI","","html-keyboard-response","181","1076441","0.0-1.0-243.0","0","0","48905","","null","","","null","26","","","","","","","","","","","","","","","NaN",""
"","S1","","html-keyboard-response","182","1076693","0.0-1.0-245.0","0","0","48905","","null","","","null","27","","","","","","","","","","","","","","","",""
"","ISI","","html-keyboard-response","183","1078695","0.0-1.0-246.0","0","0","48905","","null","","","null","27","NaN","","","","","","","","","","","","","","",""
"","S2","","html-keyboard-response","184","1078948","0.0-1.0-247.0","0","0","48905","","null","","","null","27","","NaN","","","","","","","","","","","","","",""
"","response","","html-keyboard-response","185","1079428","0.0-1.0-248.0-0.0","0","0","48905","","479","","","75","27","","","1","27","training","adjacent","AB","1","2","M.jpg","L.jpg","1","1","1","",""
"","feedback","","html-keyboard-response","186","1080430","0.0-1.0-249.0-0.0","0","0","48905","","null","","","null","27","","","","","","","","","","","","","","","",""
"","ITI","","html-keyboard-response","187","1081432","0.0-1.0-252.0","0","0","48905","","null","","","null","27","","","","","","","","","","","","","","","NaN",""
"","S1","","html-keyboard-response","188","1081684","0.0-1.0-254.0","0","0","48905","","null","","","null","28","","","","","","","","","","","","","","","",""
"","ISI","","html-keyboard-response","189","1083686","0.0-1.0-255.0","0","0","48905","","null","","","null","28","NaN","","","","","","","","","","","","","","",""
"","S2","","html-keyboard-response","190","1083938","0.0-1.0-256.0","0","0","48905","","null","","","null","28","","NaN","","","","","","","","","","","","","",""
"","response","","html-keyboard-response","191","1084596","0.0-1.0-257.0-0.0","0","0","48905","","657","","","75","28","","","1","28","training","adjacent","DC","4","3","O.jpg","N.jpg","1","0","0","",""
"","feedback","","html-keyboard-response","192","1085598","0.0-1.0-258.0-0.0","0","0","48905","","null","","","null","28","","","","","","","","","","","","","","","",""
"","time_out","","html-keyboard-response","193","1087601","0.0-1.0-260.0-0.0","0","0","48905","","null","","","null","28","","","","","","","","","","","","","","","",""
"","ITI","","html-keyboard-response","194","1088603","0.0-1.0-261.0","0","0","48905","","null","","","null","28","","","","","","","","","","","","","","","NaN",""
"","S1","","html-keyboard-response","195","1088855","0.0-1.0-263.0","0","0","48905","","null","","","null","29","","","","","","","","","","","","","","","",""
"","ISI","","html-keyboard-response","196","1090856","0.0-1.0-264.0","0","0","48905","","null","","","null","29","NaN","","","","","","","","","","","","","","",""
"","S2","","html-keyboard-response","197","1091109","0.0-1.0-265.0","0","0","48905","","null","","","null","29","","NaN","","","","","","","","","","","","","",""
"","response","","html-keyboard-response","198","1091412","0.0-1.0-266.0-0.0","0","0","48905","","302","","","75","29","","","1","29","training","adjacent","ED","5","4","P.jpg","O.jpg","1","0","0","",""
"","feedback","","html-keyboard-response","199","1092416","0.0-1.0-267.0-0.0","0","0","48905","","null","","","null","29","","","","","","","","","","","","","","","",""
"","time_out","","html-keyboard-response","200","1094418","0.0-1.0-269.0-0.0","0","0","48905","","null","","","null","29","","","","","","","","","","","","","","","",""
"","ITI","","html-keyboard-response","201","1095420","0.0-1.0-270.0","0","0","48905","","null","","","null","29","","","","","","","","","","","","","","","NaN",""
"","S1","","html-keyboard-response","202","1095672","0.0-1.0-272.0","0","0","48905","","null","","","null","30","","","","","","","","","","","","","","","",""
"","ISI","","html-keyboard-response","203","1097674","0.0-1.0-273.0","0","0","48905","","null","","","null","30","NaN","","","","","","","","","","","","","","",""
"","S2","","html-keyboard-response","204","1097927","0.0-1.0-274.0","0","0","48905","","null","","","null","30","","NaN","","","","","","","","","","","","","",""
"","response","","html-keyboard-response","205","1098004","0.0-1.0-275.0-0.0","0","0","48905","","76","","","75","30","","","1","30","training","adjacent","AB","1","2","M.jpg","L.jpg","1","1","1","",""
"","feedback","","html-keyboard-response","206","1099006","0.0-1.0-276.0-0.0","0","0","48905","","null","","","null","30","","","","","","","","","","","","","","","",""
"","ITI","","html-keyboard-response","207","1100009","0.0-1.0-279.0","0","0","48905","","null","","","null","30","","","","","","","","","","","","","","","NaN",""
"","S1","","html-keyboard-response","208","1100262","0.0-1.0-281.0","0","0","48905","","null","","","null","31","","","","","","","","","","","","","","","",""
"","ISI","","html-keyboard-response","209","1102269","0.0-1.0-282.0","0","0","48905","","null","","","null","31","NaN","","","","","","","","","","","","","","",""
"","S2","","html-keyboard-response","210","1102532","0.0-1.0-283.0","0","0","48905","","null","","","null","31","","NaN","","","","","","","","","","","","","",""
"","response","","html-keyboard-response","211","1103100","0.0-1.0-284.0-0.0","0","0","48905","","567","","","68","31","","","1","31","training","adjacent","CB","3","2","N.jpg","L.jpg","0","0","1","",""
"","feedback","","html-keyboard-response","212","1104102","0.0-1.0-285.0-0.0","0","0","48905","","null","","","null","31","","","","","","","","","","","","","","","",""
"","ITI","","html-keyboard-response","213","1105103","0.0-1.0-288.0","0","0","48905","","null","","","null","31","","","","","","","","","","","","","","","NaN",""
"","S1","","html-keyboard-response","214","1105355","0.0-1.0-290.0","0","0","48905","","null","","","null","32","","","","","","","","","","","","","","","",""
"","ISI","","html-keyboard-response","215","1107357","0.0-1.0-291.0","0","0","48905","","null","","","null","32","NaN","","","","","","","","","","","","","","",""
"","S2","","html-keyboard-response","216","1107604","0.0-1.0-292.0","0","0","48905","","245","","","75","32","","k","1","32","training","adjacent","ED","5","4","P.jpg","O.jpg","1","0","0","",""
"","feedback","","html-keyboard-response","217","1108607","0.0-1.0-294.0-0.0","0","0","48905","","null","","","null","32","","","","","","","","","","","","","","","",""
"","time_out","","html-keyboard-response","218","1110608","0.0-1.0-296.0-0.0","0","0","48905","","null","","","null","32","","","","","","","","","","","","","","","",""
"","ITI","","html-keyboard-response","219","1111611","0.0-1.0-297.0","0","0","48905","","null","","","null","32","","","","","","","","","","","","","","","NaN",""
"","S1","","html-keyboard-response","220","1111863","0.0-1.0-299.0","0","0","48905","","null","","","null","33","","","","","","","","","","","","","","","",""
"","ISI","","html-keyboard-response","221","1113865","0.0-1.0-300.0","0","0","48905","","null","","","null","33","NaN","","","","","","","","","","","","","","",""
"","S2","","html-keyboard-response","222","1114117","0.0-1.0-301.0","0","0","48905","","null","","","null","33","","NaN","","","","","","","","","","","","","",""
"","response","","html-keyboard-response","223","1114564","0.0-1.0-302.0-0.0","0","0","48905","","446","","","75","33","","","1","33","training","adjacent","AB","1","2","M.jpg","L.jpg","1","1","1","",""
"","feedback","","html-keyboard-response","224","1115566","0.0-1.0-303.0-0.0","0","0","48905","","null","","","null","33","","","","","","","","","","","","","","","",""
"","ITI","","html-keyboard-response","225","1116568","0.0-1.0-306.0","0","0","48905","","null","","","null","33","","","","","","","","","","","","","","","NaN",""
"","S1","","html-keyboard-response","226","1116823","0.0-1.0-308.0","0","0","48905","","null","","","null","34","","","","","","","","","","","","","","","",""
"","ISI","","html-keyboard-response","227","1118825","0.0-1.0-309.0","0","0","48905","","null","","","null","34","NaN","","","","","","","","","","","","","","",""
"","S2","","html-keyboard-response","228","1119078","0.0-1.0-310.0","0","0","48905","","null","","","null","34","","NaN","","","","","","","","","","","","","",""
"","response","","html-keyboard-response","229","1119387","0.0-1.0-311.0-0.0","0","0","48905","","309","","","75","34","","","1","34","training","adjacent","CB","3","2","N.jpg","L.jpg","1","0","0","",""
"","feedback","","html-keyboard-response","230","1120389","0.0-1.0-312.0-0.0","0","0","48905","","null","","","null","34","","","","","","","","","","","","","","","",""
"","time_out","","html-keyboard-response","231","1122392","0.0-1.0-314.0-0.0","0","0","48905","","null","","","null","34","","","","","","","","","","","","","","","",""
"","ITI","","html-keyboard-response","232","1123394","0.0-1.0-315.0","0","0","48905","","null","","","null","34","","","","","","","","","","","","","","","NaN",""
"","S1","","html-keyboard-response","233","1123646","0.0-1.0-317.0","0","0","48905","","null","","","null","35","","","","","","","","","","","","","","","",""
"","ISI","","html-keyboard-response","234","1125648","0.0-1.0-318.0","0","0","48905","","null","","","null","35","NaN","","","","","","","","","","","","","","",""
"","S2","","html-keyboard-response","235","1125901","0.0-1.0-319.0","0","0","48905","","null","","","null","35","","NaN","","","","","","","","","","","","","",""
"","response","","html-keyboard-response","236","1126028","0.0-1.0-320.0-0.0","0","0","48905","","126","","","68","35","","","1","35","training","adjacent","ED","5","4","P.jpg","O.jpg","0","0","1","",""
"","feedback","","html-keyboard-response","237","1127030","0.0-1.0-321.0-0.0","0","0","48905","","null","","","null","35","","","","","","","","","","","","","","","",""
"","ITI","","html-keyboard-response","238","1128032","0.0-1.0-324.0","0","0","48905","","null","","","null","35","","","","","","","","","","","","","","","NaN",""
"","S1","","html-keyboard-response","239","1128285","0.0-1.0-326.0","0","0","48905","","null","","","null","36","","","","","","","","","","","","","","","",""
"","ISI","","html-keyboard-response","240","1130287","0.0-1.0-327.0","0","0","48905","","null","","","null","36","NaN","","","","","","","","","","","","","","",""
"","S2","","html-keyboard-response","241","1130539","0.0-1.0-328.0","0","0","48905","","null","","","null","36","","NaN","","","","","","","","","","","","","",""
"","response","","html-keyboard-response","242","1132291","0.0-1.0-329.0-0.0","0","0","48905","","null","","","null","36","","","1","36","training","adjacent","BC","2","3","L.jpg","N.jpg","NaN","1","0","",""
"","too_slow_prompt","","html-keyboard-response","243","1133293","0.0-1.0-331.0-0.0","1","0","48905","","null","","","null","","","","","","","","","","","","","","","","",""
"","time_out","","html-keyboard-response","244","1135295","0.0-1.0-332.0-0.0","0","0","48905","","null","","","null","36","","","","","","","","","","","","","","","",""
"","ITI","","html-keyboard-response","245","1136297","0.0-1.0-333.0","0","0","48905","","null","","","null","36","","","","","","","","","","","","","","","NaN",""
"","S1","","html-keyboard-response","246","1136551","0.0-1.0-335.0","0","0","48905","","null","","","null","37","","","","","","","","","","","","","","","",""
"","ISI","","html-keyboard-response","247","1138552","0.0-1.0-336.0","0","0","48905","","null","","","null","37","NaN","","","","","","","","","","","","","","",""
"","S2","","html-keyboard-response","248","1138804","0.0-1.0-337.0","0","0","48905","","null","","","null","37","","NaN","","","","","","","","","","","","","",""
"","response","","html-keyboard-response","249","1139227","0.0-1.0-338.0-0.0","0","0","48905","","422","","","68","37","","","1","37","training","adjacent","FE","6","5","R.jpg","P.jpg","0","0","1","",""
"","feedback","","html-keyboard-response","250","1140229","0.0-1.0-339.0-0.0","0","0","48905","","null","","","null","37","","","","","","","","","","","","","","","",""
"","ITI","","html-keyboard-response","251","1141231","0.0-1.0-342.0","0","0","48905","","null","","","null","37","","","","","","","","","","","","","","","NaN",""
"","S1","","html-keyboard-response","252","1141483","0.0-1.0-344.0","0","0","48905","","null","","","null","38","","","","","","","","","","","","","","","",""
"","ISI","","html-keyboard-response","253","1143486","0.0-1.0-345.0","0","0","48905","","null","","","null","38","NaN","","","","","","","","","","","","","","",""
"","S2","","html-keyboard-response","254","1143738","0.0-1.0-346.0","0","0","48905","","null","","","null","38","","NaN","","","","","","","","","","","","","",""
"","response","","html-keyboard-response","255","1143931","0.0-1.0-347.0-0.0","0","0","48905","","191","","","68","38","","","1","38","training","adjacent","CD","3","4","N.jpg","O.jpg","0","1","0","",""
"","feedback","","html-keyboard-response","256","1144933","0.0-1.0-348.0-0.0","0","0","48905","","null","","","null","38","","","","","","","","","","","","","","","",""
"","time_out","","html-keyboard-response","257","1146936","0.0-1.0-350.0-0.0","0","0","48905","","null","","","null","38","","","","","","","","","","","","","","","",""
"","ITI","","html-keyboard-response","258","1147938","0.0-1.0-351.0","0","0","48905","","null","","","null","38","","","","","","","","","","","","","","","NaN",""
"","S1","","html-keyboard-response","259","1148190","0.0-1.0-353.0","0","0","48905","","null","","","null","39","","","","","","","","","","","","","","","",""
"","ISI","","html-keyboard-response","260","1150192","0.0-1.0-354.0","0","0","48905","","null","","","null","39","NaN","","","","","","","","","","","","","","",""
"","S2","","html-keyboard-response","261","1150444","0.0-1.0-355.0","0","0","48905","","null","","","null","39","","NaN","","","","","","","","","","","","","",""
"","response","","html-keyboard-response","262","1150475","0.0-1.0-356.0-0.0","0","0","48905","","29","","","75","39","","","1","39","training","adjacent","DE","4","5","O.jpg","P.jpg","1","1","1","",""
"","feedback","","html-keyboard-response","263","1151478","0.0-1.0-357.0-0.0","0","0","48905","","null","","","null","39","","","","","","","","","","","","","","","",""
"","ITI","","html-keyboard-response","264","1152480","0.0-1.0-360.0","0","0","48905","","null","","","null","39","","","","","","","","","","","","","","","NaN",""
"","S1","","html-keyboard-response","265","1152732","0.0-1.0-362.0","0","0","48905","","null","","","null","40","","","","","","","","","","","","","","","",""
"","ISI","","html-keyboard-response","266","1154734","0.0-1.0-363.0","0","0","48905","","null","","","null","40","NaN","","","","","","","","","","","","","","",""
"","S2","","html-keyboard-response","267","1154986","0.0-1.0-364.0","0","0","48905","","null","","","null","40","","NaN","","","","","","","","","","","","","",""
"","response","","html-keyboard-response","268","1155187","0.0-1.0-365.0-0.0","0","0","48905","","199","","","68","40","","","1","40","training","adjacent","AB","1","2","M.jpg","L.jpg","0","1","0","",""
"","feedback","","html-keyboard-response","269","1156190","0.0-1.0-366.0-0.0","0","0","48905","","null","","","null","40","","","","","","","","","","","","","","","",""
"","time_out","","html-keyboard-response","270","1158192","0.0-1.0-368.0-0.0","0","0","48905","","null","","","null","40","","","","","","","","","","","","","","","",""
"","ITI","","html-keyboard-response","271","1159195","0.0-1.0-369.0","0","0","48905","","null","","","null","40","","","","","","","","","","","","","","","NaN",""
"","S1","","html-keyboard-response","272","1159447","0.0-1.0-371.0","0","0","48905","","null","","","null","41","","","","","","","","","","","","","","","",""
"","ISI","","html-keyboard-response","273","1161448","0.0-1.0-372.0","0","0","48905","","null","","","null","41","NaN","","","","","","","","","","","","","","",""
"","S2","","html-keyboard-response","274","1161701","0.0-1.0-373.0","0","0","48905","","null","","","null","41","","NaN","","","","","","","","","","","","","",""
"","response","","html-keyboard-response","275","1162099","0.0-1.0-374.0-0.0","0","0","48905","","396","","","75","41","","","1","41","training","adjacent","DE","4","5","O.jpg","P.jpg","1","1","1","",""
"","feedback","","html-keyboard-response","276","1163102","0.0-1.0-375.0-0.0","0","0","48905","","null","","","null","41","","","","","","","","","","","","","","","",""
"","ITI","","html-keyboard-response","277","1164105","0.0-1.0-378.0","0","0","48905","","null","","","null","41","","","","","","","","","","","","","","","NaN",""
"","S1","","html-keyboard-response","278","1164358","0.0-1.0-380.0","0","0","48905","","null","","","null","42","","","","","","","","","","","","","","","",""
"","ISI","","html-keyboard-response","279","1166373","0.0-1.0-381.0","0","0","48905","","null","","","null","42","NaN","","","","","","","","","","","","","","",""
"","S2","","html-keyboard-response","280","1166626","0.0-1.0-382.0","0","0","48905","","null","","","null","42","","NaN","","","","","","","","","","","","","",""
"","response","","html-keyboard-response","281","1167155","0.0-1.0-383.0-0.0","0","0","48905","","528","","","75","42","","","1","42","training","adjacent","FE","6","5","R.jpg","P.jpg","1","0","0","",""
"","feedback","","html-keyboard-response","282","1168157","0.0-1.0-384.0-0.0","0","0","48905","","null","","","null","42","","","","","","","","","","","","","","","",""
"","time_out","","html-keyboard-response","283","1170160","0.0-1.0-386.0-0.0","0","0","48905","","null","","","null","42","","","","","","","","","","","","","","","",""
"","ITI","","html-keyboard-response","284","1171162","0.0-1.0-387.0","0","0","48905","","null","","","null","42","","","","","","","","","","","","","","","NaN",""
"","S1","","html-keyboard-response","285","1171414","0.0-1.0-389.0","0","0","48905","","null","","","null","43","","","","","","","","","","","","","","","",""
"","ISI","","html-keyboard-response","286","1173416","0.0-1.0-390.0","0","0","48905","","null","","","null","43","NaN","","","","","","","","","","","","","","",""
"","S2","","html-keyboard-response","287","1173669","0.0-1.0-391.0","0","0","48905","","null","","","null","43","","NaN","","","","","","","","","","","","","",""
"","response","","html-keyboard-response","288","1174683","0.0-1.0-392.0-0.0","0","0","48905","","1013","","","75","43","","","1","43","training","adjacent","BA","2","1","L.jpg","M.jpg","1","0","0","",""
"","feedback","","html-keyboard-response","289","1175686","0.0-1.0-393.0-0.0","0","0","48905","","null","","","null","43","","","","","","","","","","","","","","","",""
"","time_out","","html-keyboard-response","290","1177688","0.0-1.0-395.0-0.0","0","0","48905","","null","","","null","43","","","","","","","","","","","","","","","",""
"","ITI","","html-keyboard-response","291","1178690","0.0-1.0-396.0","0","0","48905","","null","","","null","43","","","","","","","","","","","","","","","NaN",""
"","S1","","html-keyboard-response","292","1178942","0.0-1.0-398.0","0","0","48905","","null","","","null","44","","","","","","","","","","","","","","","",""
"","ISI","","html-keyboard-response","293","1180955","0.0-1.0-399.0","0","0","48905","","null","","","null","44","NaN","","","","","","","","","","","","","","",""
"","S2","","html-keyboard-response","294","1181207","0.0-1.0-400.0","0","0","48905","","null","","","null","44","","NaN","","","","","","","","","","","","","",""
"","response","","html-keyboard-response","295","1181595","0.0-1.0-401.0-0.0","0","0","48905","","387","","","75","44","","","1","44","training","adjacent","DC","4","3","O.jpg","N.jpg","1","0","0","",""
"","feedback","","html-keyboard-response","296","1182597","0.0-1.0-402.0-0.0","0","0","48905","","null","","","null","44","","","","","","","","","","","","","","","",""
"","time_out","","html-keyboard-response","297","1184600","0.0-1.0-404.0-0.0","0","0","48905","","null","","","null","44","","","","","","","","","","","","","","","",""
"","ITI","","html-keyboard-response","298","1185602","0.0-1.0-405.0","0","0","48905","","null","","","null","44","","","","","","","","","","","","","","","NaN",""
"","S1","","html-keyboard-response","299","1185854","0.0-1.0-407.0","0","0","48905","","null","","","null","45","","","","","","","","","","","","","","","",""
"","ISI","","html-keyboard-response","300","1187856","0.0-1.0-408.0","0","0","48905","","null","","","null","45","NaN","","","","","","","","","","","","","","",""
"","S2","","html-keyboard-response","301","1188108","0.0-1.0-409.0","0","0","48905","","null","","","null","45","","NaN","","","","","","","","","","","","","",""
"","response","","html-keyboard-response","302","1188763","0.0-1.0-410.0-0.0","0","0","48905","","654","","","68","45","","","1","45","training","adjacent","BC","2","3","L.jpg","N.jpg","0","1","0","",""
"","feedback","","html-keyboard-response","303","1189766","0.0-1.0-411.0-0.0","0","0","48905","","null","","","null","45","","","","","","","","","","","","","","","",""
"","time_out","","html-keyboard-response","304","1191768","0.0-1.0-413.0-0.0","0","0","48905","","null","","","null","45","","","","","","","","","","","","","","","",""
"","ITI","","html-keyboard-response","305","1192770","0.0-1.0-414.0","0","0","48905","","null","","","null","45","","","","","","","","","","","","","","","NaN",""
"","S1","","html-keyboard-response","306","1193022","0.0-1.0-416.0","0","0","48905","","null","","","null","46","","","","","","","","","","","","","","","",""
"","ISI","","html-keyboard-response","307","1195024","0.0-1.0-417.0","0","0","48905","","null","","","null","46","NaN","","","","","","","","","","","","","","",""
"","S2","","html-keyboard-response","308","1195276","0.0-1.0-418.0","0","0","48905","","null","","","null","46","","NaN","","","","","","","","","","","","","",""
"","response","","html-keyboard-response","309","1195379","0.0-1.0-419.0-0.0","0","0","48905","","101","","","68","46","","","1","46","training","adjacent","GF","7","6","Q.jpg","R.jpg","0","0","1","",""
"","feedback","","html-keyboard-response","310","1196382","0.0-1.0-420.0-0.0","0","0","48905","","null","","","null","46","","","","","","","","","","","","","","","",""
"","ITI","","html-keyboard-response","311","1197383","0.0-1.0-423.0","0","0","48905","","null","","","null","46","","","","","","","","","","","","","","","NaN",""
"","S1","","html-keyboard-response","312","1197636","0.0-1.0-425.0","0","0","48905","","null","","","null","47","","","","","","","","","","","","","","","",""
"","ISI","","html-keyboard-response","313","1199638","0.0-1.0-426.0","0","0","48905","","null","","","null","47","NaN","","","","","","","","","","","","","","",""
"","S2","","html-keyboard-response","314","1199892","0.0-1.0-427.0","0","0","48905","","null","","","null","47","","NaN","","","","","","","","","","","","","",""
"","response","","html-keyboard-response","315","1200171","0.0-1.0-428.0-0.0","0","0","48905","","278","","","75","47","","","1","47","training","adjacent","EF","5","6","P.jpg","R.jpg","1","1","1","",""
"","feedback","","html-keyboard-response","316","1201173","0.0-1.0-429.0-0.0","0","0","48905","","null","","","null","47","","","","","","","","","","","","","","","",""
"","ITI","","html-keyboard-response","317","1202175","0.0-1.0-432.0","0","0","48905","","null","","","null","47","","","","","","","","","","","","","","","NaN",""
"","block_over","","html-keyboard-response","318","1223539","0.0-1.0-433.0-0.0","0","0","48905","","21362","","","32","47","","","","","","","","","","","","","","","",""
"","S1","","html-keyboard-response","319","1223791","0.0-1.0-434.0","0","0","48905","","null","","","null","48","","","","","","","","","","","","","","","",""
"","ISI","","html-keyboard-response","320","1225793","0.0-1.0-435.0","0","0","48905","","null","","","null","48","NaN","","","","","","","","","","","","","","",""
"","S2","","html-keyboard-response","321","1226045","0.0-1.0-436.0","0","0","48905","","null","","","null","48","","NaN","","","","","","","","","","","","","",""
"","response","","html-keyboard-response","322","1226547","0.0-1.0-437.0-0.0","0","0","48905","","500","","","68","48","","","2","48","training","adjacent","BA","2","1","L.jpg","M.jpg","0","0","1","",""
"","feedback","","html-keyboard-response","323","1227549","0.0-1.0-438.0-0.0","0","0","48905","","null","","","null","48","","","","","","","","","","","","","","","",""
"","ITI","","html-keyboard-response","324","1228551","0.0-1.0-441.0","0","0","48905","","null","","","null","48","","","","","","","","","","","","","","","NaN",""
"","S1","","html-keyboard-response","325","1228804","0.0-1.0-443.0","0","0","48905","","null","","","null","49","","","","","","","","","","","","","","","",""
"","ISI","","html-keyboard-response","326","1230806","0.0-1.0-444.0","0","0","48905","","null","","","null","49","NaN","","","","","","","","","","","","","","",""
"","S2","","html-keyboard-response","327","1231058","0.0-1.0-445.0","0","0","48905","","null","","","null","49","","NaN","","","","","","","","","","","","","",""
"","response","","html-keyboard-response","328","1231851","0.0-1.0-446.0-0.0","0","0","48905","","791","","","75","49","","","2","49","training","adjacent","DE","4","5","O.jpg","P.jpg","1","1","1","",""
"","feedback","","html-keyboard-response","329","1232853","0.0-1.0-447.0-0.0","0","0","48905","","null","","","null","49","","","","","","","","","","","","","","","",""
"","ITI","","html-keyboard-response","330","1233854","0.0-1.0-450.0","0","0","48905","","null","","","null","49","","","","","","","","","","","","","","","NaN",""
"","S1","","html-keyboard-response","331","1234107","0.0-1.0-452.0","0","0","48905","","null","","","null","50","","","","","","","","","","","","","","","",""
"","ISI","","html-keyboard-response","332","1236109","0.0-1.0-453.0","0","0","48905","","null","","","null","50","NaN","","","","","","","","","","","","","","",""
"","S2","","html-keyboard-response","333","1236363","0.0-1.0-454.0","0","0","48905","","null","","","null","50","","NaN","","","","","","","","","","","","","",""
"","response","","html-keyboard-response","334","1236467","0.0-1.0-455.0-0.0","0","0","48905","","103","","","68","50","","","2","50","training","adjacent","BA","2","1","L.jpg","M.jpg","0","0","1","",""
"","feedback","","html-keyboard-response","335","1237469","0.0-1.0-456.0-0.0","0","0","48905","","null","","","null","50","","","","","","","","","","","","","","","",""
"","ITI","","html-keyboard-response","336","1238472","0.0-1.0-459.0","0","0","48905","","null","","","null","50","","","","","","","","","","","","","","","NaN",""
"","S1","","html-keyboard-response","337","1238725","0.0-1.0-461.0","0","0","48905","","null","","","null","51","","","","","","","","","","","","","","","",""
"","ISI","","html-keyboard-response","338","1240726","0.0-1.0-462.0","0","0","48905","","null","","","null","51","NaN","","","","","","","","","","","","","","",""
"","S2","","html-keyboard-response","339","1240979","0.0-1.0-463.0","0","0","48905","","null","","","null","51","","NaN","","","","","","","","","","","","","",""
"","response","","html-keyboard-response","340","1241571","0.0-1.0-464.0-0.0","0","0","48905","","591","","","68","51","","","2","51","training","adjacent","CD","3","4","N.jpg","O.jpg","0","1","0","",""
"","feedback","","html-keyboard-response","341","1242573","0.0-1.0-465.0-0.0","0","0","48905","","null","","","null","51","","","","","","","","","","","","","","","",""
"","time_out","","html-keyboard-response","342","1244576","0.0-1.0-467.0-0.0","0","0","48905","","null","","","null","51","","","","","","","","","","","","","","","",""
"","ITI","","html-keyboard-response","343","1245578","0.0-1.0-468.0","0","0","48905","","null","","","null","51","","","","","","","","","","","","","","","NaN",""
"","S1","","html-keyboard-response","344","1245830","0.0-1.0-470.0","0","0","48905","","null","","","null","52","","","","","","","","","","","","","","","",""
"","ISI","","html-keyboard-response","345","1247832","0.0-1.0-471.0","0","0","48905","","null","","","null","52","NaN","","","","","","","","","","","","","","",""
"","S2","","html-keyboard-response","346","1248085","0.0-1.0-472.0","0","0","48905","","null","","","null","52","","NaN","","","","","","","","","","","","","",""
"","response","","html-keyboard-response","347","1248356","0.0-1.0-473.0-0.0","0","0","48905","","270","","","68","52","","","2","52","training","adjacent","BA","2","1","L.jpg","M.jpg","0","0","1","",""
"","feedback","","html-keyboard-response","348","1249358","0.0-1.0-474.0-0.0","0","0","48905","","null","","","null","52","","","","","","","","","","","","","","","",""
"","ITI","","html-keyboard-response","349","1250360","0.0-1.0-477.0","0","0","48905","","null","","","null","52","","","","","","","","","","","","","","","NaN",""
"","S1","","html-keyboard-response","350","1250613","0.0-1.0-479.0","0","0","48905","","null","","","null","53","","","","","","","","","","","","","","","",""
"","ISI","","html-keyboard-response","351","1252615","0.0-1.0-480.0","0","0","48905","","null","","","null","53","NaN","","","","","","","","","","","","","","",""
"","S2","","html-keyboard-response","352","1252868","0.0-1.0-481.0","0","0","48905","","null","","","null","53","","NaN","","","","","","","","","","","","","",""
"","response","","html-keyboard-response","353","1253082","0.0-1.0-482.0-0.0","0","0","48905","","213","","","68","53","","","2","53","training","adjacent","DE","4","5","O.jpg","P.jpg","0","1","0","",""
"","feedback","","html-keyboard-response","354","1254085","0.0-1.0-483.0-0.0","0","0","48905","","null","","","null","53","","","","","","","","","","","","","","","",""
"","time_out","","html-keyboard-response","355","1256087","0.0-1.0-485.0-0.0","0","0","48905","","null","","","null","53","","","","","","","","","","","","","","","",""
"","ITI","","html-keyboard-response","356","1257090","0.0-1.0-486.0","0","0","48905","","null","","","null","53","","","","","","","","","","","","","","","NaN",""
"","S1","","html-keyboard-response","357","1257342","0.0-1.0-488.0","0","0","48905","","null","","","null","54","","","","","","","","","","","","","","","",""
"","ISI","","html-keyboard-response","358","1259344","0.0-1.0-489.0","0","0","48905","","null","","","null","54","NaN","","","","","","","","","","","","","","",""
"","S2","","html-keyboard-response","359","1259596","0.0-1.0-490.0","0","0","48905","","null","","","null","54","","NaN","","","","","","","","","","","","","",""
"","response","","html-keyboard-response","360","1259731","0.0-1.0-491.0-0.0","0","0","48905","","134","","","75","54","","","2","54","training","adjacent","AB","1","2","M.jpg","L.jpg","1","1","1","",""
"","feedback","","html-keyboard-response","361","1260733","0.0-1.0-492.0-0.0","0","0","48905","","null","","","null","54","","","","","","","","","","","","","","","",""
"","ITI","","html-keyboard-response","362","1261735","0.0-1.0-495.0","0","0","48905","","null","","","null","54","","","","","","","","","","","","","","","NaN",""
"","S1","","html-keyboard-response","363","1261987","0.0-1.0-497.0","0","0","48905","","null","","","null","55","","","","","","","","","","","","","","","",""
"","ISI","","html-keyboard-response","364","1263990","0.0-1.0-498.0","0","0","48905","","null","","","null","55","NaN","","","","","","","","","","","","","","",""
"","S2","","html-keyboard-response","365","1264243","0.0-1.0-499.0","0","0","48905","","null","","","null","55","","NaN","","","","","","","","","","","","","",""
"","response","","html-keyboard-response","366","1264506","0.0-1.0-500.0-0.0","0","0","48905","","261","","","68","55","","","2","55","training","adjacent","GF","7","6","Q.jpg","R.jpg","0","0","1","",""
"","feedback","","html-keyboard-response","367","1265509","0.0-1.0-501.0-0.0","0","0","48905","","null","","","null","55","","","","","","","","","","","","","","","",""
"","ITI","","html-keyboard-response","368","1266512","0.0-1.0-504.0","0","0","48905","","null","","","null","55","","","","","","","","","","","","","","","NaN",""
"","S1","","html-keyboard-response","369","1266764","0.0-1.0-506.0","0","0","48905","","null","","","null","56","","","","","","","","","","","","","","","",""
"","ISI","","html-keyboard-response","370","1268766","0.0-1.0-507.0","0","0","48905","","null","","","null","56","NaN","","","","","","","","","","","","","","",""
"","S2","","html-keyboard-response","371","1269018","0.0-1.0-508.0","0","0","48905","","null","","","null","56","","NaN","","","","","","","","","","","","","",""
"","response","","html-keyboard-response","372","1269666","0.0-1.0-509.0-0.0","0","0","48905","","648","","","75","56","","","2","56","training","adjacent","FE","6","5","R.jpg","P.jpg","1","0","0","",""
"","feedback","","html-keyboard-response","373","1270669","0.0-1.0-510.0-0.0","0","0","48905","","null","","","null","56","","","","","","","","","","","","","","","",""
"","time_out","","html-keyboard-response","374","1272672","0.0-1.0-512.0-0.0","0","0","48905","","null","","","null","56","","","","","","","","","","","","","","","",""
"","ITI","","html-keyboard-response","375","1273674","0.0-1.0-513.0","0","0","48905","","null","","","null","56","","","","","","","","","","","","","","","NaN",""
"","S1","","html-keyboard-response","376","1273926","0.0-1.0-515.0","0","0","48905","","null","","","null","57","","","","","","","","","","","","","","","",""
"","ISI","","html-keyboard-response","377","1275929","0.0-1.0-516.0","0","0","48905","","null","","","null","57","NaN","","","","","","","","","","","","","","",""
"","S2","","html-keyboard-response","378","1276190","0.0-1.0-517.0","0","0","48905","","null","","","null","57","","NaN","","","","","","","","","","","","","",""
"","response","","html-keyboard-response","379","1276635","0.0-1.0-518.0-0.0","0","0","48905","","444","","","75","57","","","2","57","training","adjacent","ED","5","4","P.jpg","O.jpg","1","0","0","",""
"","feedback","","html-keyboard-response","380","1277648","0.0-1.0-519.0-0.0","0","0","48905","","null","","","null","57","","","","","","","","","","","","","","","",""
"","time_out","","html-keyboard-response","381","1279651","0.0-1.0-521.0-0.0","0","0","48905","","null","","","null","57","","","","","","","","","","","","","","","",""
"","ITI","","html-keyboard-response","382","1280653","0.0-1.0-522.0","0","0","48905","","null","","","null","57","","","","","","","","","","","","","","","NaN",""
"","S1","","html-keyboard-response","383","1280906","0.0-1.0-524.0","0","0","48905","","null","","","null","58","","","","","","","","","","","","","","","",""
"","ISI","","html-keyboard-response","384","1282908","0.0-1.0-525.0","0","0","48905","","null","","","null","58","NaN","","","","","","","","","","","","","","",""
"","S2","","html-keyboard-response","385","1283161","0.0-1.0-526.0","0","0","48905","","null","","","null","58","","NaN","","","","","","","","","","","","","",""
"","response","","html-keyboard-response","386","1283218","0.0-1.0-527.0-0.0","0","0","48905","","55","","","75","58","","","2","58","training","adjacent","DE","4","5","O.jpg","P.jpg","1","1","1","",""
"","feedback","","html-keyboard-response","387","1284221","0.0-1.0-528.0-0.0","0","0","48905","","null","","","null","58","","","","","","","","","","","","","","","",""
"","ITI","","html-keyboard-response","388","1285223","0.0-1.0-531.0","0","0","48905","","null","","","null","58","","","","","","","","","","","","","","","NaN",""
"","S1","","html-keyboard-response","389","1285475","0.0-1.0-533.0","0","0","48905","","null","","","null","59","","","","","","","","","","","","","","","",""
"","ISI","","html-keyboard-response","390","1287478","0.0-1.0-534.0","0","0","48905","","null","","","null","59","NaN","","","","","","","","","","","","","","",""
"","S2","","html-keyboard-response","391","1287729","0.0-1.0-535.0","0","0","48905","","null","","","null","59","","NaN","","","","","","","","","","","","","",""
"","response","","html-keyboard-response","392","1289290","0.0-1.0-536.0-0.0","0","0","48905","","1558","","","68","59","","","2","59","training","adjacent","DC","4","3","O.jpg","N.jpg","0","0","1","",""
"","feedback","","html-keyboard-response","393","1290292","0.0-1.0-537.0-0.0","0","0","48905","","null","","","null","59","","","","","","","","","","","","","","","",""
"","ITI","","html-keyboard-response","394","1291294","0.0-1.0-540.0","0","0","48905","","null","","","null","59","","","","","","","","","","","","","","","NaN",""
"","S1","","html-keyboard-response","395","1291546","0.0-1.0-542.0","0","0","48905","","null","","","null","60","","","","","","","","","","","","","","","",""
"","ISI","","html-keyboard-response","396","1293549","0.0-1.0-543.0","0","0","48905","","null","","","null","60","NaN","","","","","","","","","","","","","","",""
"","S2","","html-keyboard-response","397","1293801","0.0-1.0-544.0","0","0","48905","","null","","","null","60","","NaN","","","","","","","","","","","","","",""
"","response","","html-keyboard-response","398","1294153","0.0-1.0-545.0-0.0","0","0","48905","","350","","","68","60","","","2","60","training","adjacent","BC","2","3","L.jpg","N.jpg","0","1","0","",""
"","feedback","","html-keyboard-response","399","1295156","0.0-1.0-546.0-0.0","0","0","48905","","null","","","null","60","","","","","","","","","","","","","","","",""
"","time_out","","html-keyboard-response","400","1297173","0.0-1.0-548.0-0.0","0","0","48905","","null","","","null","60","","","","","","","","","","","","","","","",""
"","ITI","","html-keyboard-response","401","1298176","0.0-1.0-549.0","0","0","48905","","null","","","null","60","","","","","","","","","","","","","","","NaN",""
"","S1","","html-keyboard-response","402","1298428","0.0-1.0-551.0","0","0","48905","","null","","","null","61","","","","","","","","","","","","","","","",""
"","ISI","","html-keyboard-response","403","1300430","0.0-1.0-552.0","0","0","48905","","null","","","null","61","NaN","","","","","","","","","","","","","","",""
"","S2","","html-keyboard-response","404","1300682","0.0-1.0-553.0","0","0","48905","","null","","","null","61","","NaN","","","","","","","","","","","","","",""
"","response","","html-keyboard-response","405","1301049","0.0-1.0-554.0-0.0","0","0","48905","","365","","","68","61","","","2","61","training","adjacent","GF","7","6","Q.jpg","R.jpg","0","0","1","",""
"","feedback","","html-keyboard-response","406","1302052","0.0-1.0-555.0-0.0","0","0","48905","","null","","","null","61","","","","","","","","","","","","","","","",""
"","ITI","","html-keyboard-response","407","1303054","0.0-1.0-558.0","0","0","48905","","null","","","null","61","","","","","","","","","","","","","","","NaN",""
"","S1","","html-keyboard-response","408","1303307","0.0-1.0-560.0","0","0","48905","","null","","","null","62","","","","","","","","","","","","","","","",""
"","ISI","","html-keyboard-response","409","1305309","0.0-1.0-561.0","0","0","48905","","null","","","null","62","NaN","","","","","","","","","","","","","","",""
"","S2","","html-keyboard-response","410","1305561","0.0-1.0-562.0","0","0","48905","","null","","","null","62","","NaN","","","","","","","","","","","","","",""
"","response","","html-keyboard-response","411","1306081","0.0-1.0-563.0-0.0","0","0","48905","","518","","","68","62","","","2","62","training","adjacent","CD","3","4","N.jpg","O.jpg","0","1","0","",""
"","feedback","","html-keyboard-response","412","1307083","0.0-1.0-564.0-0.0","0","0","48905","","null","","","null","62","","","","","","","","","","","","","","","",""
"","time_out","","html-keyboard-response","413","1309086","0.0-1.0-566.0-0.0","0","0","48905","","null","","","null","62","","","","","","","","","","","","","","","",""
"","ITI","","html-keyboard-response","414","1310088","0.0-1.0-567.0","0","0","48905","","null","","","null","62","","","","","","","","","","","","","","","NaN",""
"","S1","","html-keyboard-response","415","1310341","0.0-1.0-569.0","0","0","48905","","null","","","null","63","","","","","","","","","","","","","","","",""
"","ISI","","html-keyboard-response","416","1312343","0.0-1.0-570.0","0","0","48905","","null","","","null","63","NaN","","","","","","","","","","","","","","",""
"","S2","","html-keyboard-response","417","1312596","0.0-1.0-571.0","0","0","48905","","null","","","null","63","","NaN","","","","","","","","","","","","","",""
"","response","","html-keyboard-response","418","1312705","0.0-1.0-572.0-0.0","0","0","48905","","108","","","75","63","","","2","63","training","adjacent","CB","3","2","N.jpg","L.jpg","1","0","0","",""
"","feedback","","html-keyboard-response","419","1313707","0.0-1.0-573.0-0.0","0","0","48905","","null","","","null","63","","","","","","","","","","","","","","","",""
"","time_out","","html-keyboard-response","420","1315711","0.0-1.0-575.0-0.0","0","0","48905","","null","","","null","63","","","","","","","","","","","","","","","",""
"","ITI","","html-keyboard-response","421","1316713","0.0-1.0-576.0","0","0","48905","","null","","","null","63","","","","","","","","","","","","","","","NaN",""
"","S1","","html-keyboard-response","422","1316965","0.0-1.0-578.0","0","0","48905","","null","","","null","64","","","","","","","","","","","","","","","",""
"","ISI","","html-keyboard-response","423","1318967","0.0-1.0-579.0","0","0","48905","","null","","","null","64","NaN","","","","","","","","","","","","","","",""
"","S2","","html-keyboard-response","424","1319219","0.0-1.0-580.0","0","0","48905","","null","","","null","64","","NaN","","","","","","","","","","","","","",""
"","response","","html-keyboard-response","425","1319977","0.0-1.0-581.0-0.0","0","0","48905","","756","","","75","64","","","2","64","training","adjacent","AB","1","2","M.jpg","L.jpg","1","1","1","",""
"","feedback","","html-keyboard-response","426","1320981","0.0-1.0-582.0-0.0","0","0","48905","","null","","","null","64","","","","","","","","","","","","","","","",""
"","ITI","","html-keyboard-response","427","1321983","0.0-1.0-585.0","0","0","48905","","null","","","null","64","","","","","","","","","","","","","","","NaN",""
"","S1","","html-keyboard-response","428","1322235","0.0-1.0-587.0","0","0","48905","","null","","","null","65","","","","","","","","","","","","","","","",""
"","ISI","","html-keyboard-response","429","1324237","0.0-1.0-588.0","0","0","48905","","null","","","null","65","NaN","","","","","","","","","","","","","","",""
"","S2","","html-keyboard-response","430","1324489","0.0-1.0-589.0","0","0","48905","","null","","","null","65","","NaN","","","","","","","","","","","","","",""
"","response","","html-keyboard-response","431","1325177","0.0-1.0-590.0-0.0","0","0","48905","","687","","","68","65","","","2","65","training","adjacent","CD","3","4","N.jpg","O.jpg","0","1","0","",""
"","feedback","","html-keyboard-response","432","1326180","0.0-1.0-591.0-0.0","0","0","48905","","null","","","null","65","","","","","","","","","","","","","","","",""
"","time_out","","html-keyboard-response","433","1328183","0.0-1.0-593.0-0.0","0","0","48905","","null","","","null","65","","","","","","","","","","","","","","","",""
"","ITI","","html-keyboard-response","434","1329184","0.0-1.0-594.0","0","0","48905","","null","","","null","65","","","","","","","","","","","","","","","NaN",""
"","S1","","html-keyboard-response","435","1329437","0.0-1.0-596.0","0","0","48905","","null","","","null","66","","","","","","","","","","","","","","","",""
"","ISI","","html-keyboard-response","436","1331439","0.0-1.0-597.0","0","0","48905","","null","","","null","66","NaN","","","","","","","","","","","","","","",""
"","S2","","html-keyboard-response","437","1331692","0.0-1.0-598.0","0","0","48905","","null","","","null","66","","NaN","","","","","","","","","","","","","",""
"","response","","html-keyboard-response","438","1332273","0.0-1.0-599.0-0.0","0","0","48905","","579","","","68","66","","","2","66","training","adjacent","EF","5","6","P.jpg","R.jpg","0","1","0","",""
"","feedback","","html-keyboard-response","439","1333275","0.0-1.0-600.0-0.0","0","0","48905","","null","","","null","66","","","","","","","","","","","","","","","",""
"","time_out","","html-keyboard-response","440","1335277","0.0-1.0-602.0-0.0","0","0","48905","","null","","","null","66","","","","","","","","","","","","","","","",""
"","ITI","","html-keyboard-response","441","1336281","0.0-1.0-603.0","0","0","48905","","null","","","null","66","","","","","","","","","","","","","","","NaN",""
"","S1","","html-keyboard-response","442","1336533","0.0-1.0-605.0","0","0","48905","","null","","","null","67","","","","","","","","","","","","","","","",""
"","ISI","","html-keyboard-response","443","1338536","0.0-1.0-606.0","0","0","48905","","null","","","null","67","NaN","","","","","","","","","","","","","","",""
"","S2","","html-keyboard-response","444","1338787","0.0-1.0-607.0","0","0","48905","","null","","","null","67","","NaN","","","","","","","","","","","","","",""
"","response","","html-keyboard-response","445","1339417","0.0-1.0-608.0-0.0","0","0","48905","","628","","","68","67","","","2","67","training","adjacent","BC","2","3","L.jpg","N.jpg","0","1","0","",""
"","feedback","","html-keyboard-response","446","1340420","0.0-1.0-609.0-0.0","0","0","48905","","null","","","null","67","","","","","","","","","","","","","","","",""
"","time_out","","html-keyboard-response","447","1342422","0.0-1.0-611.0-0.0","0","0","48905","","null","","","null","67","","","","","","","","","","","","","","","",""
"","ITI","","html-keyboard-response","448","1343424","0.0-1.0-612.0","0","0","48905","","null","","","null","67","","","","","","","","","","","","","","","NaN",""
"","S1","","html-keyboard-response","449","1343675","0.0-1.0-614.0","0","0","48905","","null","","","null","68","","","","","","","","","","","","","","","",""
"","ISI","","html-keyboard-response","450","1345677","0.0-1.0-615.0","0","0","48905","","null","","","null","68","NaN","","","","","","","","","","","","","","",""
"","S2","","html-keyboard-response","451","1345930","0.0-1.0-616.0","0","0","48905","","null","","","null","68","","NaN","","","","","","","","","","","","","",""
"","response","","html-keyboard-response","452","1346985","0.0-1.0-617.0-0.0","0","0","48905","","1053","","","75","68","","","2","68","training","adjacent","AB","1","2","M.jpg","L.jpg","1","1","1","",""
"","feedback","","html-keyboard-response","453","1347988","0.0-1.0-618.0-0.0","0","0","48905","","null","","","null","68","","","","","","","","","","","","","","","",""
"","ITI","","html-keyboard-response","454","1348990","0.0-1.0-621.0","0","0","48905","","null","","","null","68","","","","","","","","","","","","","","","NaN",""
"","S1","","html-keyboard-response","455","1349243","0.0-1.0-623.0","0","0","48905","","null","","","null","69","","","","","","","","","","","","","","","",""
"","ISI","","html-keyboard-response","456","1351245","0.0-1.0-624.0","0","0","48905","","null","","","null","69","NaN","","","","","","","","","","","","","","",""
"","S2","","html-keyboard-response","457","1351497","0.0-1.0-625.0","0","0","48905","","null","","","null","69","","NaN","","","","","","","","","","","","","",""
"","response","","html-keyboard-response","458","1352585","0.0-1.0-626.0-0.0","0","0","48905","","1086","","","68","69","","","2","69","training","adjacent","ED","5","4","P.jpg","O.jpg","0","0","1","",""
"","feedback","","html-keyboard-response","459","1353587","0.0-1.0-627.0-0.0","0","0","48905","","null","","","null","69","","","","","","","","","","","","","","","",""
"","ITI","","html-keyboard-response","460","1354589","0.0-1.0-630.0","0","0","48905","","null","","","null","69","","","","","","","","","","","","","","","NaN",""
"","S1","","html-keyboard-response","461","1354841","0.0-1.0-632.0","0","0","48905","","null","","","null","70","","","","","","","","","","","","","","","",""
"","ISI","","html-keyboard-response","462","1356844","0.0-1.0-633.0","0","0","48905","","null","","","null","70","NaN","","","","","","","","","","","","","","",""
"","S2","","html-keyboard-response","463","1357096","0.0-1.0-634.0","0","0","48905","","null","","","null","70","","NaN","","","","","","","","","","","","","",""
"","response","","html-keyboard-response","464","1358577","0.0-1.0-635.0-0.0","0","0","48905","","1479","","","68","70","","","2","70","training","adjacent","DC","4","3","O.jpg","N.jpg","0","0","1","",""
"","feedback","","html-keyboard-response","465","1359580","0.0-1.0-636.0-0.0","0","0","48905","","null","","","null","70","","","","","","","","","","","","","","","",""
"","ITI","","html-keyboard-response","466","1360582","0.0-1.0-639.0","0","0","48905","","null","","","null","70","","","","","","","","","","","","","","","NaN",""
"","S1","","html-keyboard-response","467","1360835","0.0-1.0-641.0","0","0","48905","","null","","","null","71","","","","","","","","","","","","","","","",""
"","ISI","","html-keyboard-response","468","1362836","0.0-1.0-642.0","0","0","48905","","null","","","null","71","NaN","","","","","","","","","","","","","","",""
"","S2","","html-keyboard-response","469","1363094","0.0-1.0-643.0","0","0","48905","","null","","","null","71","","NaN","","","","","","","","","","","","","",""
"","response","","html-keyboard-response","470","1363441","0.0-1.0-644.0-0.0","0","0","48905","","346","","","75","71","","","2","71","training","adjacent","GF","7","6","Q.jpg","R.jpg","1","0","0","",""
"","feedback","","html-keyboard-response","471","1364444","0.0-1.0-645.0-0.0","0","0","48905","","null","","","null","71","","","","","","","","","","","","","","","",""
"","time_out","","html-keyboard-response","472","1366446","0.0-1.0-647.0-0.0","0","0","48905","","null","","","null","71","","","","","","","","","","","","","","","",""
"","ITI","","html-keyboard-response","473","1367448","0.0-1.0-648.0","0","0","48905","","null","","","null","71","","","","","","","","","","","","","","","NaN",""
"","S1","","html-keyboard-response","474","1367701","0.0-1.0-650.0","0","0","48905","","null","","","null","72","","","","","","","","","","","","","","","",""
"","ISI","","html-keyboard-response","475","1369703","0.0-1.0-651.0","0","0","48905","","null","","","null","72","NaN","","","","","","","","","","","","","","",""
"","S2","","html-keyboard-response","476","1369955","0.0-1.0-652.0","0","0","48905","","null","","","null","72","","NaN","","","","","","","","","","","","","",""
"","response","","html-keyboard-response","477","1370225","0.0-1.0-653.0-0.0","0","0","48905","","268","","","68","72","","","2","72","training","adjacent","FE","6","5","R.jpg","P.jpg","0","0","1","",""
"","feedback","","html-keyboard-response","478","1371227","0.0-1.0-654.0-0.0","0","0","48905","","null","","","null","72","","","","","","","","","","","","","","","",""
"","ITI","","html-keyboard-response","479","1372229","0.0-1.0-657.0","0","0","48905","","null","","","null","72","","","","","","","","","","","","","","","NaN",""
"","S1","","html-keyboard-response","480","1372482","0.0-1.0-659.0","0","0","48905","","null","","","null","73","","","","","","","","","","","","","","","",""
"","ISI","","html-keyboard-response","481","1374485","0.0-1.0-660.0","0","0","48905","","null","","","null","73","NaN","","","","","","","","","","","","","","",""
"","S2","","html-keyboard-response","482","1374738","0.0-1.0-661.0","0","0","48905","","null","","","null","73","","NaN","","","","","","","","","","","","","",""
"","response","","html-keyboard-response","483","1375265","0.0-1.0-662.0-0.0","0","0","48905","","526","","","68","73","","","2","73","training","adjacent","EF","5","6","P.jpg","R.jpg","0","1","0","",""
"","feedback","","html-keyboard-response","484","1376268","0.0-1.0-663.0-0.0","0","0","48905","","null","","","null","73","","","","","","","","","","","","","","","",""
"","time_out","","html-keyboard-response","485","1378270","0.0-1.0-665.0-0.0","0","0","48905","","null","","","null","73","","","","","","","","","","","","","","","",""
"","ITI","","html-keyboard-response","486","1379272","0.0-1.0-666.0","0","0","48905","","null","","","null","73","","","","","","","","","","","","","","","NaN",""
"","S1","","html-keyboard-response","487","1379524","0.0-1.0-668.0","0","0","48905","","null","","","null","74","","","","","","","","","","","","","","","",""
"","ISI","","html-keyboard-response","488","1381527","0.0-1.0-669.0","0","0","48905","","483","","","68","74","d","","","","","","","","","","","","","","",""
"","S2","","html-keyboard-response","489","1381779","0.0-1.0-670.0","0","0","48905","","null","","","null","74","","NaN","","","","","","","","","","","","","",""
"","response","","html-keyboard-response","490","1382305","0.0-1.0-671.0-0.0","0","0","48905","","525","","","68","74","","","2","74","training","adjacent","CD","3","4","N.jpg","O.jpg","0","1","0","",""
"","feedback","","html-keyboard-response","491","1383307","0.0-1.0-672.0-0.0","0","0","48905","","null","","","null","74","","","","","","","","","","","","","","","",""
"","time_out","","html-keyboard-response","492","1385310","0.0-1.0-674.0-0.0","0","0","48905","","null","","","null","74","","","","","","","","","","","","","","","",""
"","ITI","","html-keyboard-response","493","1386312","0.0-1.0-675.0","0","0","48905","","null","","","null","74","","","","","","","","","","","","","","","NaN",""
"","S1","","html-keyboard-response","494","1386565","0.0-1.0-677.0","0","0","48905","","null","","","null","75","","","","","","","","","","","","","","","",""
"","ISI","","html-keyboard-response","495","1388566","0.0-1.0-678.0","0","0","48905","","219","","","75","75","k","","","","","","","","","","","","","","",""
"","S2","","html-keyboard-response","496","1388819","0.0-1.0-679.0","0","0","48905","","null","","","null","75","","NaN","","","","","","","","","","","","","",""
"","response","","html-keyboard-response","497","1388993","0.0-1.0-680.0-0.0","0","0","48905","","173","","","75","75","","","2","75","training","adjacent","CB","3","2","N.jpg","L.jpg","1","0","0","",""
"","feedback","","html-keyboard-response","498","1389995","0.0-1.0-681.0-0.0","0","0","48905","","null","","","null","75","","","","","","","","","","","","","","","",""
"","time_out","","html-keyboard-response","499","1392007","0.0-1.0-683.0-0.0","0","0","48905","","null","","","null","75","","","","","","","","","","","","","","","",""
"","ITI","","html-keyboard-response","500","1393010","0.0-1.0-684.0","0","0","48905","","null","","","null","75","","","","","","","","","","","","","","","NaN",""
"","S1","","html-keyboard-response","501","1393263","0.0-1.0-686.0","0","0","48905","","null","","","null","76","","","","","","","","","","","","","","","",""
"","ISI","","html-keyboard-response","502","1395264","0.0-1.0-687.0","0","0","48905","","null","","","null","76","NaN","","","","","","","","","","","","","","",""
"","S2","","html-keyboard-response","503","1395516","0.0-1.0-688.0","0","0","48905","","null","","","null","76","","NaN","","","","","","","","","","","","","",""
"","response","","html-keyboard-response","504","1396001","0.0-1.0-689.0-0.0","0","0","48905","","483","","","68","76","","","2","76","training","adjacent","ED","5","4","P.jpg","O.jpg","0","0","1","",""
"","feedback","","html-keyboard-response","505","1397003","0.0-1.0-690.0-0.0","0","0","48905","","null","","","null","76","","","","","","","","","","","","","","","",""
"","ITI","","html-keyboard-response","506","1398005","0.0-1.0-693.0","0","0","48905","","null","","","null","76","","","","","","","","","","","","","","","NaN",""
"","S1","","html-keyboard-response","507","1398257","0.0-1.0-695.0","0","0","48905","","null","","","null","77","","","","","","","","","","","","","","","",""
"","ISI","","html-keyboard-response","508","1400259","0.0-1.0-696.0","0","0","48905","","null","","","null","77","NaN","","","","","","","","","","","","","","",""
"","S2","","html-keyboard-response","509","1400511","0.0-1.0-697.0","0","0","48905","","null","","","null","77","","NaN","","","","","","","","","","","","","",""
"","response","","html-keyboard-response","510","1402263","0.0-1.0-698.0-0.0","0","0","48905","","null","","","null","77","","","2","77","training","adjacent","EF","5","6","P.jpg","R.jpg","NaN","1","0","",""
"","too_slow_prompt","","html-keyboard-response","511","1403266","0.0-1.0-700.0-0.0","1","0","48905","","null","","","null","","","","","","","","","","","","","","","","",""
"","time_out","","html-keyboard-response","512","1405268","0.0-1.0-701.0-0.0","0","0","48905","","null","","","null","77","","","","","","","","","","","","","","","",""
"","ITI","","html-keyboard-response","513","1406272","0.0-1.0-702.0","0","0","48905","","null","","","null","77","","","","","","","","","","","","","","","NaN",""
"","S1","","html-keyboard-response","514","1406524","0.0-1.0-704.0","0","0","48905","","null","","","null","78","","","","","","","","","","","","","","","",""
"","ISI","","html-keyboard-response","515","1408526","0.0-1.0-705.0","0","0","48905","","null","","","null","78","NaN","","","","","","","","","","","","","","",""
"","S2","","html-keyboard-response","516","1408779","0.0-1.0-706.0","0","0","48905","","null","","","null","78","","NaN","","","","","","","","","","","","","",""
"","response","","html-keyboard-response","517","1409033","0.0-1.0-707.0-0.0","0","0","48905","","252","","","75","78","","","2","78","training","adjacent","AB","1","2","M.jpg","L.jpg","1","1","1","",""
"","feedback","","html-keyboard-response","518","1410037","0.0-1.0-708.0-0.0","0","0","48905","","null","","","null","78","","","","","","","","","","","","","","","",""
"","ITI","","html-keyboard-response","519","1411040","0.0-1.0-711.0","0","0","48905","","null","","","null","78","","","","","","","","","","","","","","","NaN",""
"","S1","","html-keyboard-response","520","1411293","0.0-1.0-713.0","0","0","48905","","null","","","null","79","","","","","","","","","","","","","","","",""
"","ISI","","html-keyboard-response","521","1413296","0.0-1.0-714.0","0","0","48905","","null","","","null","79","NaN","","","","","","","","","","","","","","",""
"","S2","","html-keyboard-response","522","1413549","0.0-1.0-715.0","0","0","48905","","null","","","null","79","","NaN","","","","","","","","","","","","","",""
"","response","","html-keyboard-response","523","1413994","0.0-1.0-716.0-0.0","0","0","48905","","444","","","75","79","","","2","79","training","adjacent","BA","2","1","L.jpg","M.jpg","1","0","0","",""
"","feedback","","html-keyboard-response","524","1414997","0.0-1.0-717.0-0.0","0","0","48905","","null","","","null","79","","","","","","","","","","","","","","","",""
"","time_out","","html-keyboard-response","525","1416999","0.0-1.0-719.0-0.0","0","0","48905","","null","","","null","79","","","","","","","","","","","","","","","",""
"","ITI","","html-keyboard-response","526","1418002","0.0-1.0-720.0","0","0","48905","","null","","","null","79","","","","","","","","","","","","","","","NaN",""
"","S1","","html-keyboard-response","527","1418255","0.0-1.0-722.0","0","0","48905","","null","","","null","80","","","","","","","","","","","","","","","",""
"","ISI","","html-keyboard-response","528","1420257","0.0-1.0-723.0","0","0","48905","","null","","","null","80","NaN","","","","","","","","","","","","","","",""
"","S2","","html-keyboard-response","529","1420509","0.0-1.0-724.0","0","0","48905","","null","","","null","80","","NaN","","","","","","","","","","","","","",""
"","response","","html-keyboard-response","530","1420545","0.0-1.0-725.0-0.0","0","0","48905","","35","","","68","80","","","2","80","training","adjacent","CB","3","2","N.jpg","L.jpg","0","0","1","",""
"","feedback","","html-keyboard-response","531","1421548","0.0-1.0-726.0-0.0","0","0","48905","","null","","","null","80","","","","","","","","","","","","","","","",""
"","ITI","","html-keyboard-response","532","1422551","0.0-1.0-729.0","0","0","48905","","null","","","null","80","","","","","","","","","","","","","","","NaN",""
"","S1","","html-keyboard-response","533","1422804","0.0-1.0-731.0","0","0","48905","","null","","","null","81","","","","","","","","","","","","","","","",""
"","ISI","","html-keyboard-response","534","1424805","0.0-1.0-732.0","0","0","48905","","null","","","null","81","NaN","","","","","","","","","","","","","","",""
"","S2","","html-keyboard-response","535","1425058","0.0-1.0-733.0","0","0","48905","","null","","","null","81","","NaN","","","","","","","","","","","","","",""
"","response","","html-keyboard-response","536","1425465","0.0-1.0-734.0-0.0","0","0","48905","","406","","","75","81","","","2","81","training","adjacent","DC","4","3","O.jpg","N.jpg","1","0","0","",""
"","feedback","","html-keyboard-response","537","1426468","0.0-1.0-735.0-0.0","0","0","48905","","null","","","null","81","","","","","","","","","","","","","","","",""
"","time_out","","html-keyboard-response","538","1428471","0.0-1.0-737.0-0.0","0","0","48905","","null","","","null","81","","","","","","","","","","","","","","","",""
"","ITI","","html-keyboard-response","539","1429473","0.0-1.0-738.0","0","0","48905","","null","","","null","81","","","","","","","","","","","","","","","NaN",""
"","S1","","html-keyboard-response","540","1429725","0.0-1.0-740.0","0","0","48905","","null","","","null","82","","","","","","","","","","","","","","","",""
"","ISI","","html-keyboard-response","541","1431728","0.0-1.0-741.0","0","0","48905","","null","","","null","82","NaN","","","","","","","","","","","","","","",""
"","S2","","html-keyboard-response","542","1431980","0.0-1.0-742.0","0","0","48905","","null","","","null","82","","NaN","","","","","","","","","","","","","",""
"","response","","html-keyboard-response","543","1432305","0.0-1.0-743.0-0.0","0","0","48905","","324","","","75","82","","","2","82","training","adjacent","GF","7","6","Q.jpg","R.jpg","1","0","0","",""
"","feedback","","html-keyboard-response","544","1433308","0.0-1.0-744.0-0.0","0","0","48905","","null","","","null","82","","","","","","","","","","","","","","","",""
"","time_out","","html-keyboard-response","545","1435310","0.0-1.0-746.0-0.0","0","0","48905","","null","","","null","82","","","","","","","","","","","","","","","",""
"","ITI","","html-keyboard-response","546","1436313","0.0-1.0-747.0","0","0","48905","","null","","","null","82","","","","","","","","","","","","","","","NaN",""
"","S1","","html-keyboard-response","547","1436564","0.0-1.0-749.0","0","0","48905","","null","","","null","83","","","","","","","","","","","","","","","",""
"","ISI","","html-keyboard-response","548","1438567","0.0-1.0-750.0","0","0","48905","","null","","","null","83","NaN","","","","","","","","","","","","","","",""
"","S2","","html-keyboard-response","549","1438819","0.0-1.0-751.0","0","0","48905","","null","","","null","83","","NaN","","","","","","","","","","","","","",""
"","response","","html-keyboard-response","550","1439737","0.0-1.0-752.0-0.0","0","0","48905","","917","","","68","83","","","2","83","training","adjacent","FG","6","7","R.jpg","Q.jpg","0","1","0","",""
"","feedback","","html-keyboard-response","551","1440739","0.0-1.0-753.0-0.0","0","0","48905","","null","","","null","83","","","","","","","","","","","","","","","",""
"","time_out","","html-keyboard-response","552","1442753","0.0-1.0-755.0-0.0","0","0","48905","","null","","","null","83","","","","","","","","","","","","","","","",""
"","ITI","","html-keyboard-response","553","1443756","0.0-1.0-756.0","0","0","48905","","null","","","null","83","","","","","","","","","","","","","","","NaN",""
"","S1","","html-keyboard-response","554","1444009","0.0-1.0-758.0","0","0","48905","","null","","","null","84","","","","","","","","","","","","","","","",""
"","ISI","","html-keyboard-response","555","1446020","0.0-1.0-759.0","0","0","48905","","null","","","null","84","NaN","","","","","","","","","","","","","","",""
"","S2","","html-keyboard-response","556","1446273","0.0-1.0-760.0","0","0","48905","","null","","","null","84","","NaN","","","","","","","","","","","","","",""
"","response","","html-keyboard-response","557","1446297","0.0-1.0-761.0-0.0","0","0","48905","","23","","","75","84","","","2","84","training","adjacent","DC","4","3","O.jpg","N.jpg","1","0","0","",""
"","feedback","","html-keyboard-response","558","1447301","0.0-1.0-762.0-0.0","0","0","48905","","null","","","null","84","","","","","","","","","","","","","","","",""
"","time_out","","html-keyboard-response","559","1449302","0.0-1.0-764.0-0.0","0","0","48905","","null","","","null","84","","","","","","","","","","","","","","","",""
"","ITI","","html-keyboard-response","560","1450304","0.0-1.0-765.0","0","0","48905","","null","","","null","84","","","","","","","","","","","","","","","NaN",""
"","S1","","html-keyboard-response","561","1450556","0.0-1.0-767.0","0","0","48905","","null","","","null","85","","","","","","","","","","","","","","","",""
"","ISI","","html-keyboard-response","562","1452559","0.0-1.0-768.0","0","0","48905","","null","","","null","85","NaN","","","","","","","","","","","","","","",""
"","S2","","html-keyboard-response","563","1452812","0.0-1.0-769.0","0","0","48905","","null","","","null","85","","NaN","","","","","","","","","","","","","",""
"","response","","html-keyboard-response","564","1453361","0.0-1.0-770.0-0.0","0","0","48905","","548","","","68","85","","","2","85","training","adjacent","BC","2","3","L.jpg","N.jpg","0","1","0","",""
"","feedback","","html-keyboard-response","565","1454364","0.0-1.0-771.0-0.0","0","0","48905","","null","","","null","85","","","","","","","","","","","","","","","",""
"","time_out","","html-keyboard-response","566","1456366","0.0-1.0-773.0-0.0","0","0","48905","","null","","","null","85","","","","","","","","","","","","","","","",""
"","ITI","","html-keyboard-response","567","1457369","0.0-1.0-774.0","0","0","48905","","null","","","null","85","","","","","","","","","","","","","","","NaN",""
"","S1","","html-keyboard-response","568","1457621","0.0-1.0-776.0","0","0","48905","","null","","","null","86","","","","","","","","","","","","","","","",""
"","ISI","","html-keyboard-response","569","1459623","0.0-1.0-777.0","0","0","48905","","null","","","null","86","NaN","","","","","","","","","","","","","","",""
"","S2","","html-keyboard-response","570","1459875","0.0-1.0-778.0","0","0","48905","","null","","","null","86","","NaN","","","","","","","","","","","","","",""
"","response","","html-keyboard-response","571","1459945","0.0-1.0-779.0-0.0","0","0","48905","","68","","","75","86","","","2","86","training","adjacent","BC","2","3","L.jpg","N.jpg","1","1","1","",""
"","feedback","","html-keyboard-response","572","1460947","0.0-1.0-780.0-0.0","0","0","48905","","null","","","null","86","","","","","","","","","","","","","","","",""
"","ITI","","html-keyboard-response","573","1461950","0.0-1.0-783.0","0","0","48905","","null","","","null","86","","","","","","","","","","","","","","","NaN",""
"","S1","","html-keyboard-response","574","1462215","0.0-1.0-785.0","0","0","48905","","null","","","null","87","","","","","","","","","","","","","","","",""
"","ISI","","html-keyboard-response","575","1464217","0.0-1.0-786.0","0","0","48905","","null","","","null","87","NaN","","","","","","","","","","","","","","",""
