"success","ttype","start_time","trial_type","trial_index","time_elapsed","internal_node_id","warning","missed_checkup","PID","view_history","rt","responses","repeat_instructions","key_press","index","keypress_isi","keypress_S2","block","trial_num","phase","group_type","pair_type","S1_stim","S2_stim","S1_img","S2_img","S1_chosen","S1_higher","accuracy","keypress_iti","total_bonus_tally"
"true","full_screen","d07292022hr2244","fullscreen","0","12337","0.0-0.0","0","0","30555","","","","","","","","","","","","","","","","","","","","","",""
"","instructions","","instructions","1","48352","0.0-1.0-0.0-0.0","0","0","30555","[{""page_index"":0,""viewing_time"":5141},{""page_index"":1,""viewing_time"":12152},{""page_index"":2,""viewing_time"":15283},{""page_index"":3,""viewing_time"":3436}]","36013","","","","","","","","","","","","","","","","","","","",""
"","comprehension_check","","survey-multi-choice","2","60288","0.0-1.0-0.0-1.0","0","0","30555","","11932","{""Q0"":""True"",""Q1"":""D"",""Q2"":""When you see the prompt 'MAKE A CHOICE' after the second image was presented"",""Q3"":""Green mark"",""Q4"":""either D or K""}","1","","","","","","","","","","","","","","","","","",""
"","missed_instruction_checkup","","html-keyboard-response","3","62112","0.0-1.0-0.0-2.0-0.0","0","1","30555","","1820","","","32","","","","","","","","","","","","","","","","",""
"","instructions","","instructions","4","72154","0.0-1.0-0.1-0.1","0","0","30555","[{""page_index"":0,""viewing_time"":3859},{""page_index"":1,""viewing_time"":5036},{""page_index"":2,""viewing_time"":588},{""page_index"":3,""viewing_time"":556}]","10040","","","","","","","","","","","","","","","","","","","",""
"","comprehension_check","","survey-multi-choice","5","81372","0.0-1.0-0.1-1.1","0","0","30555","","9214","{""Q0"":""True"",""Q1"":""K"",""Q2"":""When you see the prompt 'MAKE A CHOICE' after the second image was presented"",""Q3"":""Green mark"",""Q4"":""either D or K""}","0","","","","","","","","","","","","","","","","","",""
"","start_exp","","html-keyboard-response","6","82905","0.0-1.0-1.0","0","0","30555","","1530","","","32","","","","","","","","","","","","","","","","",""
"","S1","","html-keyboard-response","7","83173","0.0-1.0-2.0","0","0","30555","","null","","","null","0","","","","","","","","","","","","","","","",""
"","ISI","","html-keyboard-response","8","85176","0.0-1.0-3.0","0","0","30555","","null","","","null","0","NaN","","","","","","","","","","","","","","",""
"","S2","","html-keyboard-response","9","85429","0.0-1.0-4.0","0","0","30555","","null","","","null","0","","NaN","","","","","","","","","","","","","",""
"","response","","html-keyboard-response","10","85656","0.0-1.0-5.0","0","0","30555","","226","","","75","0","","","1","0","training","adjacent","FE","6","5","R.jpg","N.jpg","1","0","0","",""
"","feedback","","html-keyboard-response","11","86659","0.0-1.0-6.0-0.0","0","0","30555","","null","","","null","0","","","","","","","","","","","","","","","",""
"","time_out","","html-keyboard-response","12","88661","0.0-1.0-8.0-0.0","0","0","30555","","null","","","null","0","","","","","","","","","","","","","","","",""
"","ITI","","html-keyboard-response","13","89664","0.0-1.0-9.0","0","0","30555","","null","","","null","0","","","","","","","","","","","","","","","NaN",""
"","S1","","html-keyboard-response","14","89916","0.0-1.0-11.0","0","0","30555","","null","","","null","1","","","","","","","","","","","","","","","",""
"","ISI","","html-keyboard-response","15","91919","0.0-1.0-12.0","0","0","30555","","61","","","75","1","k","","","","","","","","","","","","","","",""
"","S2","","html-keyboard-response","16","92172","0.0-1.0-13.0","0","0","30555","","null","","","null","1","","NaN","","","","","","","","","","","","","",""
"","response","","html-keyboard-response","17","92616","0.0-1.0-14.0","0","0","30555","","443","","","75","1","","","1","1","training","adjacent","EF","5","6","N.jpg","R.jpg","1","1","1","",""
"","feedback","","html-keyboard-response","18","93619","0.0-1.0-15.0-0.0","0","0","30555","","null","","","null","1","","","","","","","","","","","","","","","",""
"","ITI","","html-keyboard-response","19","94622","0.0-1.0-18.0","0","0","30555","","null","","","null","1","","","","","","","","","","","","","","","NaN",""
"","S1","","html-keyboard-response","20","94875","0.0-1.0-20.0","0","0","30555","","null","","","null","2","","","","","","","","","","","","","","","",""
"","ISI","","html-keyboard-response","21","96877","0.0-1.0-21.0","0","0","30555","","null","","","null","2","NaN","","","","","","","","","","","","","","",""
"","S2","","html-keyboard-response","22","97129","0.0-1.0-22.0","0","0","30555","","null","","","null","2","","NaN","","","","","","","","","","","","","",""
"","response","","html-keyboard-response","23","97560","0.0-1.0-23.0","0","0","30555","","429","","","75","2","","","1","2","training","adjacent","AB","1","2","Q.jpg","O.jpg","1","1","1","",""
"","feedback","","html-keyboard-response","24","98564","0.0-1.0-24.0-0.0","0","0","30555","","null","","","null","2","","","","","","","","","","","","","","","",""
"","ITI","","html-keyboard-response","25","99566","0.0-1.0-27.0","0","0","30555","","null","","","null","2","","","","","","","","","","","","","","","NaN",""
"","S1","","html-keyboard-response","26","99819","0.0-1.0-29.0","0","0","30555","","null","","","null","3","","","","","","","","","","","","","","","",""
"","ISI","","html-keyboard-response","27","101821","0.0-1.0-30.0","0","0","30555","","null","","","null","3","NaN","","","","","","","","","","","","","","",""
"","S2","","html-keyboard-response","28","102075","0.0-1.0-31.0","0","0","30555","","null","","","null","3","","NaN","","","","","","","","","","","","","",""
"","response","","html-keyboard-response","29","102555","0.0-1.0-32.0","0","0","30555","","478","","","68","3","","","1","3","training","adjacent","DE","4","5","L.jpg","N.jpg","0","1","0","",""
"","feedback","","html-keyboard-response","30","103559","0.0-1.0-33.0-0.0","0","0","30555","","null","","","null","3","","","","","","","","","","","","","","","",""
"","time_out","","html-keyboard-response","31","105562","0.0-1.0-35.0-0.0","0","0","30555","","null","","","null","3","","","","","","","","","","","","","","","",""
"","ITI","","html-keyboard-response","32","106565","0.0-1.0-36.0","0","0","30555","","null","","","null","3","","","","","","","","","","","","","","","NaN",""
"","S1","","html-keyboard-response","33","106817","0.0-1.0-38.0","0","0","30555","","null","","","null","4","","","","","","","","","","","","","","","",""
"","ISI","","html-keyboard-response","34","108822","0.0-1.0-39.0","0","0","30555","","null","","","null","4","NaN","","","","","","","","","","","","","","",""
"","S2","","html-keyboard-response","35","109076","0.0-1.0-40.0","0","0","30555","","null","","","null","4","","NaN","","","","","","","","","","","","","",""
"","response","","html-keyboard-response","36","109408","0.0-1.0-41.0","0","0","30555","","331","","","75","4","","","1","4","training","adjacent","FE","6","5","R.jpg","N.jpg","1","0","0","",""
"","feedback","","html-keyboard-response","37","110411","0.0-1.0-42.0-0.0","0","0","30555","","null","","","null","4","","","","","","","","","","","","","","","",""
"","time_out","","html-keyboard-response","38","112413","0.0-1.0-44.0-0.0","0","0","30555","","null","","","null","4","","","","","","","","","","","","","","","",""
"","ITI","","html-keyboard-response","39","113416","0.0-1.0-45.0","0","0","30555","","null","","","null","4","","","","","","","","","","","","","","","NaN",""
"","S1","","html-keyboard-response","40","113669","0.0-1.0-47.0","0","0","30555","","null","","","null","5","","","","","","","","","","","","","","","",""
"","ISI","","html-keyboard-response","41","115671","0.0-1.0-48.0","0","0","30555","","null","","","null","5","NaN","","","","","","","","","","","","","","",""
"","S2","","html-keyboard-response","42","115925","0.0-1.0-49.0","0","0","30555","","null","","","null","5","","NaN","","","","","","","","","","","","","",""
"","response","","html-keyboard-response","43","116235","0.0-1.0-50.0","0","0","30555","","309","","","75","5","","","1","5","training","adjacent","DC","4","3","L.jpg","M.jpg","1","0","0","",""
"","feedback","","html-keyboard-response","44","117238","0.0-1.0-51.0-0.0","0","0","30555","","null","","","null","5","","","","","","","","","","","","","","","",""
"","time_out","","html-keyboard-response","45","119240","0.0-1.0-53.0-0.0","0","0","30555","","null","","","null","5","","","","","","","","","","","","","","","",""
"","ITI","","html-keyboard-response","46","120242","0.0-1.0-54.0","0","0","30555","","null","","","null","5","","","","","","","","","","","","","","","NaN",""
"","S1","","html-keyboard-response","47","120495","0.0-1.0-56.0","0","0","30555","","null","","","null","6","","","","","","","","","","","","","","","",""
"","ISI","","html-keyboard-response","48","122498","0.0-1.0-57.0","0","0","30555","","null","","","null","6","NaN","","","","","","","","","","","","","","",""
"","S2","","html-keyboard-response","49","122750","0.0-1.0-58.0","0","0","30555","","null","","","null","6","","NaN","","","","","","","","","","","","","",""
"","response","","html-keyboard-response","50","124416","0.0-1.0-59.0","0","0","30555","","1665","","","68","6","","","1","6","training","adjacent","EF","5","6","N.jpg","R.jpg","0","1","0","",""
"","feedback","","html-keyboard-response","51","125420","0.0-1.0-60.0-0.0","0","0","30555","","null","","","null","6","","","","","","","","","","","","","","","",""
"","time_out","","html-keyboard-response","52","127424","0.0-1.0-62.0-0.0","0","0","30555","","null","","","null","6","","","","","","","","","","","","","","","",""
"","ITI","","html-keyboard-response","53","128426","0.0-1.0-63.0","0","0","30555","","null","","","null","6","","","","","","","","","","","","","","","NaN",""
"","S1","","html-keyboard-response","54","128687","0.0-1.0-65.0","0","0","30555","","null","","","null","7","","","","","","","","","","","","","","","",""
"","ISI","","html-keyboard-response","55","130691","0.0-1.0-66.0","0","0","30555","","null","","","null","7","NaN","","","","","","","","","","","","","","",""
"","S2","","html-keyboard-response","56","130943","0.0-1.0-67.0","0","0","30555","","null","","","null","7","","NaN","","","","","","","","","","","","","",""
"","response","","html-keyboard-response","57","132946","0.0-1.0-68.0","0","0","30555","","null","","","null","7","","","1","7","training","adjacent","BA","2","1","O.jpg","Q.jpg","NaN","0","0","",""
"","too_slow_prompt","","html-keyboard-response","58","133949","0.0-1.0-70.0-0.0","1","0","30555","","null","","","null","","","","","","","","","","","","","","","","",""
"","time_out","","html-keyboard-response","59","135951","0.0-1.0-71.0-0.0","0","0","30555","","null","","","null","7","","","","","","","","","","","","","","","",""
"","ITI","","html-keyboard-response","60","136953","0.0-1.0-72.0","0","0","30555","","null","","","null","7","","","","","","","","","","","","","","","NaN",""
"","S1","","html-keyboard-response","61","137207","0.0-1.0-74.0","0","0","30555","","null","","","null","8","","","","","","","","","","","","","","","",""
"","ISI","","html-keyboard-response","62","139210","0.0-1.0-75.0","0","0","30555","","83","","","75","8","k","","","","","","","","","","","","","","",""
"","S2","","html-keyboard-response","63","139462","0.0-1.0-76.0","0","0","30555","","null","","","null","8","","NaN","","","","","","","","","","","","","",""
"","response","","html-keyboard-response","64","141465","0.0-1.0-77.0","0","0","30555","","null","","","null","8","","","1","8","training","adjacent","DE","4","5","L.jpg","N.jpg","NaN","1","0","",""
"","too_slow_prompt","","html-keyboard-response","65","142467","0.0-1.0-79.0-0.0","1","0","30555","","null","","","null","","","","","","","","","","","","","","","","",""
"","time_out","","html-keyboard-response","66","144470","0.0-1.0-80.0-0.0","0","0","30555","","null","","","null","8","","","","","","","","","","","","","","","",""
"","ITI","","html-keyboard-response","67","145474","0.0-1.0-81.0","0","0","30555","","null","","","null","8","","","","","","","","","","","","","","","NaN",""
"","S1","","html-keyboard-response","68","145726","0.0-1.0-83.0","0","0","30555","","null","","","null","9","","","","","","","","","","","","","","","",""
"","ISI","","html-keyboard-response","69","147728","0.0-1.0-84.0","0","0","30555","","null","","","null","9","NaN","","","","","","","","","","","","","","",""
"","S2","","html-keyboard-response","70","147982","0.0-1.0-85.0","0","0","30555","","null","","","null","9","","NaN","","","","","","","","","","","","","",""
"","response","","html-keyboard-response","71","148900","0.0-1.0-86.0","0","0","30555","","916","","","75","9","","","1","9","training","adjacent","BA","2","1","O.jpg","Q.jpg","1","0","0","",""
"","feedback","","html-keyboard-response","72","149903","0.0-1.0-87.0-0.0","0","0","30555","","null","","","null","9","","","","","","","","","","","","","","","",""
"","time_out","","html-keyboard-response","73","151906","0.0-1.0-89.0-0.0","0","0","30555","","null","","","null","9","","","","","","","","","","","","","","","",""
"","ITI","","html-keyboard-response","74","152909","0.0-1.0-90.0","0","0","30555","","null","","","null","9","","","","","","","","","","","","","","","NaN",""
"","S1","","html-keyboard-response","75","153162","0.0-1.0-92.0","0","0","30555","","null","","","null","10","","","","","","","","","","","","","","","",""
"","ISI","","html-keyboard-response","76","155166","0.0-1.0-93.0","0","0","30555","","null","","","null","10","NaN","","","","","","","","","","","","","","",""
"","S2","","html-keyboard-response","77","155419","0.0-1.0-94.0","0","0","30555","","null","","","null","10","","NaN","","","","","","","","","","","","","",""
"","response","","html-keyboard-response","78","156073","0.0-1.0-95.0","0","0","30555","","651","","","75","10","","","1","10","training","adjacent","BC","2","3","O.jpg","M.jpg","1","1","1","",""
"","feedback","","html-keyboard-response","79","157083","0.0-1.0-96.0-0.0","0","0","30555","","null","","","null","10","","","","","","","","","","","","","","","",""
"","ITI","","html-keyboard-response","80","158086","0.0-1.0-99.0","0","0","30555","","null","","","null","10","","","","","","","","","","","","","","","NaN",""
"","S1","","html-keyboard-response","81","158338","0.0-1.0-101.0","0","0","30555","","null","","","null","11","","","","","","","","","","","","","","","",""
"","ISI","","html-keyboard-response","82","160340","0.0-1.0-102.0","0","0","30555","","null","","","null","11","NaN","","","","","","","","","","","","","","",""
"","S2","","html-keyboard-response","83","160594","0.0-1.0-103.0","0","0","30555","","null","","","null","11","","NaN","","","","","","","","","","","","","",""
"","response","","html-keyboard-response","84","161485","0.0-1.0-104.0","0","0","30555","","889","","","75","11","","","1","11","training","adjacent","ED","5","4","N.jpg","L.jpg","1","0","0","",""
"","feedback","","html-keyboard-response","85","162487","0.0-1.0-105.0-0.0","0","0","30555","","null","","","null","11","","","","","","","","","","","","","","","",""
"","time_out","","html-keyboard-response","86","164490","0.0-1.0-107.0-0.0","0","0","30555","","null","","","null","11","","","","","","","","","","","","","","","",""
"","ITI","","html-keyboard-response","87","165493","0.0-1.0-108.0","0","0","30555","","null","","","null","11","","","","","","","","","","","","","","","NaN",""
"","S1","","html-keyboard-response","88","165746","0.0-1.0-110.0","0","0","30555","","null","","","null","12","","","","","","","","","","","","","","","",""
"","ISI","","html-keyboard-response","89","167749","0.0-1.0-111.0","0","0","30555","","null","","","null","12","NaN","","","","","","","","","","","","","","",""
"","S2","","html-keyboard-response","90","168002","0.0-1.0-112.0","0","0","30555","","null","","","null","12","","NaN","","","","","","","","","","","","","",""
"","response","","html-keyboard-response","91","168480","0.0-1.0-113.0","0","0","30555","","477","","","75","12","","","1","12","training","adjacent","AB","1","2","Q.jpg","O.jpg","1","1","1","",""
"","feedback","","html-keyboard-response","92","169482","0.0-1.0-114.0-0.0","0","0","30555","","null","","","null","12","","","","","","","","","","","","","","","",""
"","ITI","","html-keyboard-response","93","170485","0.0-1.0-117.0","0","0","30555","","null","","","null","12","","","","","","","","","","","","","","","NaN",""
"","S1","","html-keyboard-response","94","170737","0.0-1.0-119.0","0","0","30555","","null","","","null","13","","","","","","","","","","","","","","","",""
"","ISI","","html-keyboard-response","95","172742","0.0-1.0-120.0","0","0","30555","","null","","","null","13","NaN","","","","","","","","","","","","","","",""
"","S2","","html-keyboard-response","96","172994","0.0-1.0-121.0","0","0","30555","","null","","","null","13","","NaN","","","","","","","","","","","","","",""
"","response","","html-keyboard-response","97","174904","0.0-1.0-122.0","0","0","30555","","1908","","","75","13","","","1","13","training","adjacent","CB","3","2","M.jpg","O.jpg","1","0","0","",""
"","feedback","","html-keyboard-response","98","175907","0.0-1.0-123.0-0.0","0","0","30555","","null","","","null","13","","","","","","","","","","","","","","","",""
"","time_out","","html-keyboard-response","99","177909","0.0-1.0-125.0-0.0","0","0","30555","","null","","","null","13","","","","","","","","","","","","","","","",""
"","ITI","","html-keyboard-response","100","178912","0.0-1.0-126.0","0","0","30555","","null","","","null","13","","","","","","","","","","","","","","","NaN",""
"","S1","","html-keyboard-response","101","179164","0.0-1.0-128.0","0","0","30555","","null","","","null","14","","","","","","","","","","","","","","","",""
"","ISI","","html-keyboard-response","102","181166","0.0-1.0-129.0","0","0","30555","","482","","","75","14","k","","","","","","","","","","","","","","",""
"","S2","","html-keyboard-response","103","181419","0.0-1.0-130.0","0","0","30555","","null","","","null","14","","NaN","","","","","","","","","","","","","",""
"","response","","html-keyboard-response","104","182643","0.0-1.0-131.0","0","0","30555","","1222","","","75","14","","","1","14","training","adjacent","EF","5","6","N.jpg","R.jpg","1","1","1","",""
"","feedback","","html-keyboard-response","105","183646","0.0-1.0-132.0-0.0","0","0","30555","","null","","","null","14","","","","","","","","","","","","","","","",""
"","ITI","","html-keyboard-response","106","184649","0.0-1.0-135.0","0","0","30555","","null","","","null","14","","","","","","","","","","","","","","","NaN",""
"","S1","","html-keyboard-response","107","184904","0.0-1.0-137.0","0","0","30555","","null","","","null","15","","","","","","","","","","","","","","","",""
"","ISI","","html-keyboard-response","108","186907","0.0-1.0-138.0","0","0","30555","","null","","","null","15","NaN","","","","","","","","","","","","","","",""
"","S2","","html-keyboard-response","109","187161","0.0-1.0-139.0","0","0","30555","","null","","","null","15","","NaN","","","","","","","","","","","","","",""
"","response","","html-keyboard-response","110","187412","0.0-1.0-140.0","0","0","30555","","249","","","75","15","","","1","15","training","adjacent","BA","2","1","O.jpg","Q.jpg","1","0","0","",""
"","feedback","","html-keyboard-response","111","188415","0.0-1.0-141.0-0.0","0","0","30555","","null","","","null","15","","","","","","","","","","","","","","","",""
"","time_out","","html-keyboard-response","112","190417","0.0-1.0-143.0-0.0","0","0","30555","","null","","","null","15","","","","","","","","","","","","","","","",""
"","ITI","","html-keyboard-response","113","191419","0.0-1.0-144.0","0","0","30555","","null","","","null","15","","","","","","","","","","","","","","","NaN",""
"","S1","","html-keyboard-response","114","191672","0.0-1.0-146.0","0","0","30555","","null","","","null","16","","","","","","","","","","","","","","","",""
"","ISI","","html-keyboard-response","115","193674","0.0-1.0-147.0","0","0","30555","","15","","","75","16","k","","","","","","","","","","","","","","",""
"","S2","","html-keyboard-response","116","193927","0.0-1.0-148.0","0","0","30555","","null","","","null","16","","NaN","","","","","","","","","","","","","",""
"","response","","html-keyboard-response","117","194440","0.0-1.0-149.0","0","0","30555","","512","","","75","16","","","1","16","training","adjacent","AB","1","2","Q.jpg","O.jpg","1","1","1","",""
"","feedback","","html-keyboard-response","118","195445","0.0-1.0-150.0-0.0","0","0","30555","","null","","","null","16","","","","","","","","","","","","","","","",""
"","ITI","","html-keyboard-response","119","196448","0.0-1.0-153.0","0","0","30555","","null","","","null","16","","","","","","","","","","","","","","","NaN",""
"","S1","","html-keyboard-response","120","196715","0.0-1.0-155.0","0","0","30555","","null","","","null","17","","","","","","","","","","","","","","","",""
"","ISI","","html-keyboard-response","121","198719","0.0-1.0-156.0","0","0","30555","","null","","","null","17","NaN","","","","","","","","","","","","","","",""
"","S2","","html-keyboard-response","122","198971","0.0-1.0-157.0","0","0","30555","","244","","","75","17","","k","","","","","","","","","","","","","",""
"","response","","html-keyboard-response","123","200972","0.0-1.0-158.0","0","0","30555","","null","","","null","17","","","1","17","training","adjacent","ED","5","4","N.jpg","L.jpg","NaN","0","0","",""
"","too_slow_prompt","","html-keyboard-response","124","201975","0.0-1.0-160.0-0.0","1","0","30555","","null","","","null","","","","","","","","","","","","","","","","",""
"","time_out","","html-keyboard-response","125","203978","0.0-1.0-161.0-0.0","0","0","30555","","null","","","null","17","","","","","","","","","","","","","","","",""
"","ITI","","html-keyboard-response","126","204980","0.0-1.0-162.0","0","0","30555","","null","","","null","17","","","","","","","","","","","","","","","NaN",""
"","S1","","html-keyboard-response","127","205233","0.0-1.0-164.0","0","0","30555","","null","","","null","18","","","","","","","","","","","","","","","",""
"","ISI","","html-keyboard-response","128","207235","0.0-1.0-165.0","0","0","30555","","110","","","75","18","k","","","","","","","","","","","","","","",""
"","S2","","html-keyboard-response","129","207487","0.0-1.0-166.0","0","0","30555","","null","","","null","18","","NaN","","","","","","","","","","","","","",""
"","response","","html-keyboard-response","130","207552","0.0-1.0-167.0","0","0","30555","","63","","","75","18","","","1","18","training","adjacent","CD","3","4","M.jpg","L.jpg","1","1","1","",""
"","feedback","","html-keyboard-response","131","208555","0.0-1.0-168.0-0.0","0","0","30555","","null","","","null","18","","","","","","","","","","","","","","","",""
"","ITI","","html-keyboard-response","132","209557","0.0-1.0-171.0","0","0","30555","","null","","","null","18","","","","","","","","","","","","","","","NaN",""
"","S1","","html-keyboard-response","133","209810","0.0-1.0-173.0","0","0","30555","","null","","","null","19","","","","","","","","","","","","","","","",""
"","ISI","","html-keyboard-response","134","211812","0.0-1.0-174.0","0","0","30555","","929","","","75","19","k","","","","","","","","","","","","","","",""
"","S2","","html-keyboard-response","135","212066","0.0-1.0-175.0","0","0","30555","","null","","","null","19","","NaN","","","","","","","","","","","","","",""
"","response","","html-keyboard-response","136","212400","0.0-1.0-176.0","0","0","30555","","333","","","75","19","","","1","19","training","adjacent","DC","4","3","L.jpg","M.jpg","1","0","0","",""
"","feedback","","html-keyboard-response","137","213418","0.0-1.0-177.0-0.0","0","0","30555","","null","","","null","19","","","","","","","","","","","","","","","",""
"","time_out","","html-keyboard-response","138","215420","0.0-1.0-179.0-0.0","0","0","30555","","null","","","null","19","","","","","","","","","","","","","","","",""
"","ITI","","html-keyboard-response","139","216422","0.0-1.0-180.0","0","0","30555","","null","","","null","19","","","","","","","","","","","","","","","NaN",""
"","S1","","html-keyboard-response","140","216675","0.0-1.0-182.0","0","0","30555","","null","","","null","20","","","","","","","","","","","","","","","",""
"","ISI","","html-keyboard-response","141","218678","0.0-1.0-183.0","0","0","30555","","180","","","75","20","k","","","","","","","","","","","","","","",""
"","S2","","html-keyboard-response","142","218946","0.0-1.0-184.0","0","0","30555","","null","","","null","20","","NaN","","","","","","","","","","","","","",""
"","response","","html-keyboard-response","143","219160","0.0-1.0-185.0","0","0","30555","","213","","","75","20","","","1","20","training","adjacent","BA","2","1","O.jpg","Q.jpg","1","0","0","",""
"","feedback","","html-keyboard-response","144","220162","0.0-1.0-186.0-0.0","0","0","30555","","null","","","null","20","","","","","","","","","","","","","","","",""
"","time_out","","html-keyboard-response","145","222166","0.0-1.0-188.0-0.0","0","0","30555","","null","","","null","20","","","","","","","","","","","","","","","",""
"","ITI","","html-keyboard-response","146","223169","0.0-1.0-189.0","0","0","30555","","null","","","null","20","","","","","","","","","","","","","","","NaN",""
"","S1","","html-keyboard-response","147","223421","0.0-1.0-191.0","0","0","30555","","null","","","null","21","","","","","","","","","","","","","","","",""
"","ISI","","html-keyboard-response","148","225423","0.0-1.0-192.0","0","0","30555","","13","","","75","21","k","","","","","","","","","","","","","","",""
"","S2","","html-keyboard-response","149","225676","0.0-1.0-193.0","0","0","30555","","null","","","null","21","","NaN","","","","","","","","","","","","","",""
"","response","","html-keyboard-response","150","226200","0.0-1.0-194.0","0","0","30555","","522","","","75","21","","","1","21","training","adjacent","BC","2","3","O.jpg","M.jpg","1","1","1","",""
"","feedback","","html-keyboard-response","151","227203","0.0-1.0-195.0-0.0","0","0","30555","","null","","","null","21","","","","","","","","","","","","","","","",""
"","ITI","","html-keyboard-response","152","228205","0.0-1.0-198.0","0","0","30555","","null","","","null","21","","","","","","","","","","","","","","","NaN",""
"","S1","","html-keyboard-response","153","228457","0.0-1.0-200.0","0","0","30555","","null","","","null","22","","","","","","","","","","","","","","","",""
"","ISI","","html-keyboard-response","154","230459","0.0-1.0-201.0","0","0","30555","","null","","","null","22","NaN","","","","","","","","","","","","","","",""
"","S2","","html-keyboard-response","155","230712","0.0-1.0-202.0","0","0","30555","","null","","","null","22","","NaN","","","","","","","","","","","","","",""
"","response","","html-keyboard-response","156","231145","0.0-1.0-203.0","0","0","30555","","431","","","75","22","","","1","22","training","adjacent","GF","7","6","P.jpg","R.jpg","1","0","0","",""
"","feedback","","html-keyboard-response","157","232148","0.0-1.0-204.0-0.0","0","0","30555","","null","","","null","22","","","","","","","","","","","","","","","",""
"","time_out","","html-keyboard-response","158","234151","0.0-1.0-206.0-0.0","0","0","30555","","null","","","null","22","","","","","","","","","","","","","","","",""
"","ITI","","html-keyboard-response","159","235153","0.0-1.0-207.0","0","0","30555","","null","","","null","22","","","","","","","","","","","","","","","NaN",""
"","S1","","html-keyboard-response","160","235406","0.0-1.0-209.0","0","0","30555","","null","","","null","23","","","","","","","","","","","","","","","",""
"","ISI","","html-keyboard-response","161","237409","0.0-1.0-210.0","0","0","30555","","null","","","null","23","NaN","","","","","","","","","","","","","","",""
"","S2","","html-keyboard-response","162","237662","0.0-1.0-211.0","0","0","30555","","null","","","null","23","","NaN","","","","","","","","","","","","","",""
"","response","","html-keyboard-response","163","238083","0.0-1.0-212.0","0","0","30555","","418","","","68","23","","","1","23","training","adjacent","FG","6","7","R.jpg","P.jpg","0","1","0","",""
"","feedback","","html-keyboard-response","164","239085","0.0-1.0-213.0-0.0","0","0","30555","","null","","","null","23","","","","","","","","","","","","","","","",""
"","time_out","","html-keyboard-response","165","241088","0.0-1.0-215.0-0.0","0","0","30555","","null","","","null","23","","","","","","","","","","","","","","","",""
"","ITI","","html-keyboard-response","166","242092","0.0-1.0-216.0","0","0","30555","","null","","","null","23","","","","","","","","","","","","","","","NaN",""
"","S1","","html-keyboard-response","167","242345","0.0-1.0-218.0","0","0","30555","","null","","","null","24","","","","","","","","","","","","","","","",""
"","ISI","","html-keyboard-response","168","244347","0.0-1.0-219.0","0","0","30555","","null","","","null","24","NaN","","","","","","","","","","","","","","",""
"","S2","","html-keyboard-response","169","244600","0.0-1.0-220.0","0","0","30555","","null","","","null","24","","NaN","","","","","","","","","","","","","",""
"","response","","html-keyboard-response","170","244929","0.0-1.0-221.0","0","0","30555","","327","","","75","24","","","1","24","training","adjacent","GF","7","6","P.jpg","R.jpg","1","0","0","",""
"","feedback","","html-keyboard-response","171","245931","0.0-1.0-222.0-0.0","0","0","30555","","null","","","null","24","","","","","","","","","","","","","","","",""
"","time_out","","html-keyboard-response","172","247934","0.0-1.0-224.0-0.0","0","0","30555","","null","","","null","24","","","","","","","","","","","","","","","",""
"","ITI","","html-keyboard-response","173","248937","0.0-1.0-225.0","0","0","30555","","606","","","75","24","","","","","","","","","","","","","","","k",""
"","S1","","html-keyboard-response","174","249190","0.0-1.0-227.0","0","0","30555","","null","","","null","25","","","","","","","","","","","","","","","",""
"","ISI","","html-keyboard-response","175","251194","0.0-1.0-228.0","0","0","30555","","null","","","null","25","NaN","","","","","","","","","","","","","","",""
"","S2","","html-keyboard-response","176","251448","0.0-1.0-229.0","0","0","30555","","null","","","null","25","","NaN","","","","","","","","","","","","","",""
"","response","","html-keyboard-response","177","251584","0.0-1.0-230.0","0","0","30555","","134","","","75","25","","","1","25","training","adjacent","ED","5","4","N.jpg","L.jpg","1","0","0","",""
"","feedback","","html-keyboard-response","178","252587","0.0-1.0-231.0-0.0","0","0","30555","","null","","","null","25","","","","","","","","","","","","","","","",""
"","time_out","","html-keyboard-response","179","254591","0.0-1.0-233.0-0.0","0","0","30555","","null","","","null","25","","","","","","","","","","","","","","","",""
"","ITI","","html-keyboard-response","180","255594","0.0-1.0-234.0","0","0","30555","","null","","","null","25","","","","","","","","","","","","","","","NaN",""
"","S1","","html-keyboard-response","181","255847","0.0-1.0-236.0","0","0","30555","","null","","","null","26","","","","","","","","","","","","","","","",""
"","ISI","","html-keyboard-response","182","257850","0.0-1.0-237.0","0","0","30555","","392","","","75","26","k","","","","","","","","","","","","","","",""
"","S2","","html-keyboard-response","183","258102","0.0-1.0-238.0","0","0","30555","","null","","","null","26","","NaN","","","","","","","","","","","","","",""
"","response","","html-keyboard-response","184","258464","0.0-1.0-239.0","0","0","30555","","361","","","75","26","","","1","26","training","adjacent","BC","2","3","O.jpg","M.jpg","1","1","1","",""
"","feedback","","html-keyboard-response","185","259468","0.0-1.0-240.0-0.0","0","0","30555","","null","","","null","26","","","","","","","","","","","","","","","",""
"","ITI","","html-keyboard-response","186","260477","0.0-1.0-243.0","0","0","30555","","null","","","null","26","","","","","","","","","","","","","","","NaN",""
"","S1","","html-keyboard-response","187","260730","0.0-1.0-245.0","0","0","30555","","null","","","null","27","","","","","","","","","","","","","","","",""
"","ISI","","html-keyboard-response","188","262734","0.0-1.0-246.0","0","0","30555","","null","","","null","27","NaN","","","","","","","","","","","","","","",""
"","S2","","html-keyboard-response","189","262988","0.0-1.0-247.0","0","0","30555","","null","","","null","27","","NaN","","","","","","","","","","","","","",""
"","response","","html-keyboard-response","190","263106","0.0-1.0-248.0","0","0","30555","","117","","","75","27","","","1","27","training","adjacent","CB","3","2","M.jpg","O.jpg","1","0","0","",""
"","feedback","","html-keyboard-response","191","264109","0.0-1.0-249.0-0.0","0","0","30555","","null","","","null","27","","","","","","","","","","","","","","","",""
"","time_out","","html-keyboard-response","192","266112","0.0-1.0-251.0-0.0","0","0","30555","","null","","","null","27","","","","","","","","","","","","","","","",""
"","ITI","","html-keyboard-response","193","267116","0.0-1.0-252.0","0","0","30555","","null","","","null","27","","","","","","","","","","","","","","","NaN",""
"","S1","","html-keyboard-response","194","267370","0.0-1.0-254.0","0","0","30555","","null","","","null","28","","","","","","","","","","","","","","","",""
"","ISI","","html-keyboard-response","195","269373","0.0-1.0-255.0","0","0","30555","","null","","","null","28","NaN","","","","","","","","","","","","","","",""
"","S2","","html-keyboard-response","196","269626","0.0-1.0-256.0","0","0","30555","","null","","","null","28","","NaN","","","","","","","","","","","","","",""
"","response","","html-keyboard-response","197","269664","0.0-1.0-257.0","0","0","30555","","37","","","75","28","","","1","28","training","adjacent","FG","6","7","R.jpg","P.jpg","1","1","1","",""
"","feedback","","html-keyboard-response","198","270667","0.0-1.0-258.0-0.0","0","0","30555","","null","","","null","28","","","","","","","","","","","","","","","",""
"","ITI","","html-keyboard-response","199","271669","0.0-1.0-261.0","0","0","30555","","null","","","null","28","","","","","","","","","","","","","","","NaN",""
"","S1","","html-keyboard-response","200","271923","0.0-1.0-263.0","0","0","30555","","null","","","null","29","","","","","","","","","","","","","","","",""
"","ISI","","html-keyboard-response","201","273925","0.0-1.0-264.0","0","0","30555","","null","","","null","29","NaN","","","","","","","","","","","","","","",""
"","S2","","html-keyboard-response","202","274178","0.0-1.0-265.0","0","0","30555","","null","","","null","29","","NaN","","","","","","","","","","","","","",""
"","response","","html-keyboard-response","203","274187","0.0-1.0-266.0","0","0","30555","","7","","","75","29","","","1","29","training","adjacent","DE","4","5","L.jpg","N.jpg","1","1","1","",""
"","feedback","","html-keyboard-response","204","275190","0.0-1.0-267.0-0.0","0","0","30555","","null","","","null","29","","","","","","","","","","","","","","","",""
"","ITI","","html-keyboard-response","205","276193","0.0-1.0-270.0","0","0","30555","","null","","","null","29","","","","","","","","","","","","","","","NaN",""
"","S1","","html-keyboard-response","206","276445","0.0-1.0-272.0","0","0","30555","","null","","","null","30","","","","","","","","","","","","","","","",""
"","ISI","","html-keyboard-response","207","278448","0.0-1.0-273.0","0","0","30555","","null","","","null","30","NaN","","","","","","","","","","","","","","",""
"","S2","","html-keyboard-response","208","278700","0.0-1.0-274.0","0","0","30555","","null","","","null","30","","NaN","","","","","","","","","","","","","",""
"","response","","html-keyboard-response","209","278987","0.0-1.0-275.0","0","0","30555","","284","","","75","30","","","1","30","training","adjacent","FG","6","7","R.jpg","P.jpg","1","1","1","",""
"","feedback","","html-keyboard-response","210","279991","0.0-1.0-276.0-0.0","0","0","30555","","null","","","null","30","","","","","","","","","","","","","","","",""
"","ITI","","html-keyboard-response","211","280994","0.0-1.0-279.0","0","0","30555","","null","","","null","30","","","","","","","","","","","","","","","NaN",""
"","S1","","html-keyboard-response","212","281247","0.0-1.0-281.0","0","0","30555","","null","","","null","31","","","","","","","","","","","","","","","",""
"","ISI","","html-keyboard-response","213","283250","0.0-1.0-282.0","0","0","30555","","null","","","null","31","NaN","","","","","","","","","","","","","","",""
"","S2","","html-keyboard-response","214","283503","0.0-1.0-283.0","0","0","30555","","null","","","null","31","","NaN","","","","","","","","","","","","","",""
"","response","","html-keyboard-response","215","283744","0.0-1.0-284.0","0","0","30555","","240","","","68","31","","","1","31","training","adjacent","GF","7","6","P.jpg","R.jpg","0","0","1","",""
"","feedback","","html-keyboard-response","216","284747","0.0-1.0-285.0-0.0","0","0","30555","","null","","","null","31","","","","","","","","","","","","","","","",""
"","ITI","","html-keyboard-response","217","285751","0.0-1.0-288.0","0","0","30555","","null","","","null","31","","","","","","","","","","","","","","","NaN",""
"","S1","","html-keyboard-response","218","286003","0.0-1.0-290.0","0","0","30555","","null","","","null","32","","","","","","","","","","","","","","","",""
"","ISI","","html-keyboard-response","219","288006","0.0-1.0-291.0","0","0","30555","","null","","","null","32","NaN","","","","","","","","","","","","","","",""
"","S2","","html-keyboard-response","220","288259","0.0-1.0-292.0","0","0","30555","","null","","","null","32","","NaN","","","","","","","","","","","","","",""
"","response","","html-keyboard-response","221","290262","0.0-1.0-293.0","0","0","30555","","null","","","null","32","","","1","32","training","adjacent","AB","1","2","Q.jpg","O.jpg","NaN","1","0","",""
"","too_slow_prompt","","html-keyboard-response","222","291265","0.0-1.0-295.0-0.0","1","0","30555","","null","","","null","","","","","","","","","","","","","","","","",""
"","time_out","","html-keyboard-response","223","293268","0.0-1.0-296.0-0.0","0","0","30555","","null","","","null","32","","","","","","","","","","","","","","","",""
"","ITI","","html-keyboard-response","224","294271","0.0-1.0-297.0","0","0","30555","","null","","","null","32","","","","","","","","","","","","","","","NaN",""
"","S1","","html-keyboard-response","225","294530","0.0-1.0-299.0","0","0","30555","","null","","","null","33","","","","","","","","","","","","","","","",""
"","ISI","","html-keyboard-response","226","296532","0.0-1.0-300.0","0","0","30555","","null","","","null","33","NaN","","","","","","","","","","","","","","",""
"","S2","","html-keyboard-response","227","296784","0.0-1.0-301.0","0","0","30555","","null","","","null","33","","NaN","","","","","","","","","","","","","",""
"","response","","html-keyboard-response","228","296786","0.0-1.0-302.0","0","0","30555","","0","","","75","33","","","1","33","training","adjacent","DC","4","3","L.jpg","M.jpg","1","0","0","",""
"","feedback","","html-keyboard-response","229","297789","0.0-1.0-303.0-0.0","0","0","30555","","null","","","null","33","","","","","","","","","","","","","","","",""
"","time_out","","html-keyboard-response","230","299791","0.0-1.0-305.0-0.0","0","0","30555","","null","","","null","33","","","","","","","","","","","","","","","",""
"","ITI","","html-keyboard-response","231","300795","0.0-1.0-306.0","0","0","30555","","null","","","null","33","","","","","","","","","","","","","","","NaN",""
"","S1","","html-keyboard-response","232","301048","0.0-1.0-308.0","0","0","30555","","null","","","null","34","","","","","","","","","","","","","","","",""
"","ISI","","html-keyboard-response","233","303051","0.0-1.0-309.0","0","0","30555","","265","","","75","34","k","","","","","","","","","","","","","","",""
"","S2","","html-keyboard-response","234","303304","0.0-1.0-310.0","0","0","30555","","null","","","null","34","","NaN","","","","","","","","","","","","","",""
"","response","","html-keyboard-response","235","303592","0.0-1.0-311.0","0","0","30555","","286","","","75","34","","","1","34","training","adjacent","FG","6","7","R.jpg","P.jpg","1","1","1","",""
"","feedback","","html-keyboard-response","236","304595","0.0-1.0-312.0-0.0","0","0","30555","","null","","","null","34","","","","","","","","","","","","","","","",""
"","ITI","","html-keyboard-response","237","305599","0.0-1.0-315.0","0","0","30555","","null","","","null","34","","","","","","","","","","","","","","","NaN",""
"","S1","","html-keyboard-response","238","305852","0.0-1.0-317.0","0","0","30555","","null","","","null","35","","","","","","","","","","","","","","","",""
"","ISI","","html-keyboard-response","239","307855","0.0-1.0-318.0","0","0","30555","","387","","","75","35","k","","","","","","","","","","","","","","",""
"","S2","","html-keyboard-response","240","308108","0.0-1.0-319.0","0","0","30555","","null","","","null","35","","NaN","","","","","","","","","","","","","",""
"","response","","html-keyboard-response","241","308345","0.0-1.0-320.0","0","0","30555","","235","","","75","35","","","1","35","training","adjacent","CD","3","4","M.jpg","L.jpg","1","1","1","",""
"","feedback","","html-keyboard-response","242","309347","0.0-1.0-321.0-0.0","0","0","30555","","null","","","null","35","","","","","","","","","","","","","","","",""
"","ITI","","html-keyboard-response","243","310350","0.0-1.0-324.0","0","0","30555","","null","","","null","35","","","","","","","","","","","","","","","NaN",""
"","S1","","html-keyboard-response","244","310603","0.0-1.0-326.0","0","0","30555","","null","","","null","36","","","","","","","","","","","","","","","",""
"","ISI","","html-keyboard-response","245","312607","0.0-1.0-327.0","0","0","30555","","404","","","75","36","k","","","","","","","","","","","","","","",""
"","S2","","html-keyboard-response","246","312860","0.0-1.0-328.0","0","0","30555","","null","","","null","36","","NaN","","","","","","","","","","","","","",""
"","response","","html-keyboard-response","247","313451","0.0-1.0-329.0","0","0","30555","","589","","","75","36","","","1","36","training","adjacent","CD","3","4","M.jpg","L.jpg","1","1","1","",""
"","feedback","","html-keyboard-response","248","314453","0.0-1.0-330.0-0.0","0","0","30555","","null","","","null","36","","","","","","","","","","","","","","","",""
"","ITI","","html-keyboard-response","249","315457","0.0-1.0-333.0","0","0","30555","","null","","","null","36","","","","","","","","","","","","","","","NaN",""
"","S1","","html-keyboard-response","250","315709","0.0-1.0-335.0","0","0","30555","","null","","","null","37","","","","","","","","","","","","","","","",""
"","ISI","","html-keyboard-response","251","317712","0.0-1.0-336.0","0","0","30555","","442","","","75","37","k","","","","","","","","","","","","","","",""
"","S2","","html-keyboard-response","252","317965","0.0-1.0-337.0","0","0","30555","","null","","","null","37","","NaN","","","","","","","","","","","","","",""
"","response","","html-keyboard-response","253","318017","0.0-1.0-338.0","0","0","30555","","49","","","75","37","","","1","37","training","adjacent","ED","5","4","N.jpg","L.jpg","1","0","0","",""
"","feedback","","html-keyboard-response","254","319020","0.0-1.0-339.0-0.0","0","0","30555","","null","","","null","37","","","","","","","","","","","","","","","",""
"","time_out","","html-keyboard-response","255","321024","0.0-1.0-341.0-0.0","0","0","30555","","null","","","null","37","","","","","","","","","","","","","","","",""
"","ITI","","html-keyboard-response","256","322027","0.0-1.0-342.0","0","0","30555","","447","","","75","37","","","","","","","","","","","","","","","k",""
"","S1","","html-keyboard-response","257","322281","0.0-1.0-344.0","0","0","30555","","null","","","null","38","","","","","","","","","","","","","","","",""
"","ISI","","html-keyboard-response","258","324283","0.0-1.0-345.0","0","0","30555","","246","","","75","38","k","","","","","","","","","","","","","","",""
"","S2","","html-keyboard-response","259","324536","0.0-1.0-346.0","0","0","30555","","null","","","null","38","","NaN","","","","","","","","","","","","","",""
"","response","","html-keyboard-response","260","324717","0.0-1.0-347.0","0","0","30555","","178","","","75","38","","","1","38","training","adjacent","GF","7","6","P.jpg","R.jpg","1","0","0","",""
"","feedback","","html-keyboard-response","261","325719","0.0-1.0-348.0-0.0","0","0","30555","","null","","","null","38","","","","","","","","","","","","","","","",""
"","time_out","","html-keyboard-response","262","327722","0.0-1.0-350.0-0.0","0","0","30555","","null","","","null","38","","","","","","","","","","","","","","","",""
"","ITI","","html-keyboard-response","263","328731","0.0-1.0-351.0","0","0","30555","","null","","","null","38","","","","","","","","","","","","","","","NaN",""
"","S1","","html-keyboard-response","264","328992","0.0-1.0-353.0","0","0","30555","","null","","","null","39","","","","","","","","","","","","","","","",""
"","ISI","","html-keyboard-response","265","330995","0.0-1.0-354.0","0","0","30555","","482","","","75","39","k","","","","","","","","","","","","","","",""
"","S2","","html-keyboard-response","266","331247","0.0-1.0-355.0","0","0","30555","","null","","","null","39","","NaN","","","","","","","","","","","","","",""
"","response","","html-keyboard-response","267","331665","0.0-1.0-356.0","0","0","30555","","415","","","75","39","","","1","39","training","adjacent","DC","4","3","L.jpg","M.jpg","1","0","0","",""
"","feedback","","html-keyboard-response","268","332668","0.0-1.0-357.0-0.0","0","0","30555","","null","","","null","39","","","","","","","","","","","","","","","",""
"","time_out","","html-keyboard-response","269","334671","0.0-1.0-359.0-0.0","0","0","30555","","null","","","null","39","","","","","","","","","","","","","","","",""
"","ITI","","html-keyboard-response","270","335673","0.0-1.0-360.0","0","0","30555","","null","","","null","39","","","","","","","","","","","","","","","NaN",""
"","S1","","html-keyboard-response","271","335926","0.0-1.0-362.0","0","0","30555","","null","","","null","40","","","","","","","","","","","","","","","",""
"","ISI","","html-keyboard-response","272","337929","0.0-1.0-363.0","0","0","30555","","220","","","75","40","k","","","","","","","","","","","","","","",""
"","S2","","html-keyboard-response","273","338182","0.0-1.0-364.0","0","0","30555","","null","","","null","40","","NaN","","","","","","","","","","","","","",""
"","response","","html-keyboard-response","274","338240","0.0-1.0-365.0","0","0","30555","","57","","","75","40","","","1","40","training","adjacent","DE","4","5","L.jpg","N.jpg","1","1","1","",""
"","feedback","","html-keyboard-response","275","339243","0.0-1.0-366.0-0.0","0","0","30555","","null","","","null","40","","","","","","","","","","","","","","","",""
"","ITI","","html-keyboard-response","276","340246","0.0-1.0-369.0","0","0","30555","","null","","","null","40","","","","","","","","","","","","","","","NaN",""
"","S1","","html-keyboard-response","277","340498","0.0-1.0-371.0","0","0","30555","","null","","","null","41","","","","","","","","","","","","","","","",""
"","ISI","","html-keyboard-response","278","342501","0.0-1.0-372.0","0","0","30555","","469","","","75","41","k","","","","","","","","","","","","","","",""
"","S2","","html-keyboard-response","279","342753","0.0-1.0-373.0","0","0","30555","","null","","","null","41","","NaN","","","","","","","","","","","","","",""
"","response","","html-keyboard-response","280","343521","0.0-1.0-374.0","0","0","30555","","765","","","75","41","","","1","41","training","adjacent","EF","5","6","N.jpg","R.jpg","1","1","1","",""
"","feedback","","html-keyboard-response","281","344524","0.0-1.0-375.0-0.0","0","0","30555","","null","","","null","41","","","","","","","","","","","","","","","",""
"","ITI","","html-keyboard-response","282","345526","0.0-1.0-378.0","0","0","30555","","null","","","null","41","","","","","","","","","","","","","","","NaN",""
"","S1","","html-keyboard-response","283","345779","0.0-1.0-380.0","0","0","30555","","null","","","null","42","","","","","","","","","","","","","","","",""
"","ISI","","html-keyboard-response","284","347782","0.0-1.0-381.0","0","0","30555","","324","","","75","42","k","","","","","","","","","","","","","","",""
"","S2","","html-keyboard-response","285","348035","0.0-1.0-382.0","0","0","30555","","null","","","null","42","","NaN","","","","","","","","","","","","","",""
"","response","","html-keyboard-response","286","348100","0.0-1.0-383.0","0","0","30555","","63","","","75","42","","","1","42","training","adjacent","CB","3","2","M.jpg","O.jpg","1","0","0","",""
"","feedback","","html-keyboard-response","287","349102","0.0-1.0-384.0-0.0","0","0","30555","","null","","","null","42","","","","","","","","","","","","","","","",""
"","time_out","","html-keyboard-response","288","351105","0.0-1.0-386.0-0.0","0","0","30555","","null","","","null","42","","","","","","","","","","","","","","","",""
"","ITI","","html-keyboard-response","289","352108","0.0-1.0-387.0","0","0","30555","","null","","","null","42","","","","","","","","","","","","","","","NaN",""
"","S1","","html-keyboard-response","290","352362","0.0-1.0-389.0","0","0","30555","","null","","","null","43","","","","","","","","","","","","","","","",""
"","ISI","","html-keyboard-response","291","354364","0.0-1.0-390.0","0","0","30555","","188","","","75","43","k","","","","","","","","","","","","","","",""
"","S2","","html-keyboard-response","292","354618","0.0-1.0-391.0","0","0","30555","","null","","","null","43","","NaN","","","","","","","","","","","","","",""
"","response","","html-keyboard-response","293","355041","0.0-1.0-392.0","0","0","30555","","420","","","75","43","","","1","43","training","adjacent","CD","3","4","M.jpg","L.jpg","1","1","1","",""
"","feedback","","html-keyboard-response","294","356044","0.0-1.0-393.0-0.0","0","0","30555","","null","","","null","43","","","","","","","","","","","","","","","",""
"","ITI","","html-keyboard-response","295","357047","0.0-1.0-396.0","0","0","30555","","null","","","null","43","","","","","","","","","","","","","","","NaN",""
"","S1","","html-keyboard-response","296","357301","0.0-1.0-398.0","0","0","30555","","null","","","null","44","","","","","","","","","","","","","","","",""
"","ISI","","html-keyboard-response","297","359303","0.0-1.0-399.0","0","0","30555","","378","","","75","44","k","","","","","","","","","","","","","","",""
"","S2","","html-keyboard-response","298","359556","0.0-1.0-400.0","0","0","30555","","null","","","null","44","","NaN","","","","","","","","","","","","","",""
"","response","","html-keyboard-response","299","360178","0.0-1.0-401.0","0","0","30555","","620","","","68","44","","","1","44","training","adjacent","FE","6","5","R.jpg","N.jpg","0","0","1","",""
"","feedback","","html-keyboard-response","300","361181","0.0-1.0-402.0-0.0","0","0","30555","","null","","","null","44","","","","","","","","","","","","","","","",""
"","ITI","","html-keyboard-response","301","362185","0.0-1.0-405.0","0","0","30555","","null","","","null","44","","","","","","","","","","","","","","","NaN",""
"","S1","","html-keyboard-response","302","362438","0.0-1.0-407.0","0","0","30555","","null","","","null","45","","","","","","","","","","","","","","","",""
"","ISI","","html-keyboard-response","303","364441","0.0-1.0-408.0","0","0","30555","","null","","","null","45","NaN","","","","","","","","","","","","","","",""
"","S2","","html-keyboard-response","304","364706","0.0-1.0-409.0","0","0","30555","","null","","","null","45","","NaN","","","","","","","","","","","","","",""
"","response","","html-keyboard-response","305","364904","0.0-1.0-410.0","0","0","30555","","197","","","75","45","","","1","45","training","adjacent","BC","2","3","O.jpg","M.jpg","1","1","1","",""
"","feedback","","html-keyboard-response","306","365908","0.0-1.0-411.0-0.0","0","0","30555","","null","","","null","45","","","","","","","","","","","","","","","",""
"","ITI","","html-keyboard-response","307","366911","0.0-1.0-414.0","0","0","30555","","null","","","null","45","","","","","","","","","","","","","","","NaN",""
"","S1","","html-keyboard-response","308","367164","0.0-1.0-416.0","0","0","30555","","null","","","null","46","","","","","","","","","","","","","","","",""
"","ISI","","html-keyboard-response","309","369167","0.0-1.0-417.0","0","0","30555","","null","","","null","46","NaN","","","","","","","","","","","","","","",""
"","S2","","html-keyboard-response","310","369421","0.0-1.0-418.0","0","0","30555","","null","","","null","46","","NaN","","","","","","","","","","","","","",""
"","response","","html-keyboard-response","311","369800","0.0-1.0-419.0","0","0","30555","","378","","","75","46","","","1","46","training","adjacent","FE","6","5","R.jpg","N.jpg","1","0","0","",""
"","feedback","","html-keyboard-response","312","370804","0.0-1.0-420.0-0.0","0","0","30555","","null","","","null","46","","","","","","","","","","","","","","","",""
"","time_out","","html-keyboard-response","313","372806","0.0-1.0-422.0-0.0","0","0","30555","","null","","","null","46","","","","","","","","","","","","","","","",""
"","ITI","","html-keyboard-response","314","373823","0.0-1.0-423.0","0","0","30555","","null","","","null","46","","","","","","","","","","","","","","","NaN",""
"","S1","","html-keyboard-response","315","374075","0.0-1.0-425.0","0","0","30555","","null","","","null","47","","","","","","","","","","","","","","","",""
"","ISI","","html-keyboard-response","316","376078","0.0-1.0-426.0","0","0","30555","","null","","","null","47","NaN","","","","","","","","","","","","","","",""
"","S2","","html-keyboard-response","317","376332","0.0-1.0-427.0","0","0","30555","","252","","","75","47","","k","","","","","","","","","","","","","",""
"","response","","html-keyboard-response","318","378335","0.0-1.0-428.0","0","0","30555","","null","","","null","47","","","1","47","training","adjacent","CB","3","2","M.jpg","O.jpg","NaN","0","0","",""
"","too_slow_prompt","","html-keyboard-response","319","379339","0.0-1.0-430.0-0.0","1","0","30555","","null","","","null","","","","","","","","","","","","","","","","",""
"","time_out","","html-keyboard-response","320","381343","0.0-1.0-431.0-0.0","0","0","30555","","null","","","null","47","","","","","","","","","","","","","","","",""
"","ITI","","html-keyboard-response","321","382345","0.0-1.0-432.0","0","0","30555","","null","","","null","47","","","","","","","","","","","","","","","NaN",""
"","block_over","","html-keyboard-response","322","942908","0.0-1.0-433.0-0.0","0","0","30555","","560561","","","32","47","","","","","","","","","","","","","","","",""
"","S1","","html-keyboard-response","323","943161","0.0-1.0-434.0","0","0","30555","","null","","","null","48","","","","","","","","","","","","","","","",""
"","ISI","","html-keyboard-response","324","945164","0.0-1.0-435.0","0","0","30555","","null","","","null","48","NaN","","","","","","","","","","","","","","",""
"","S2","","html-keyboard-response","325","945416","0.0-1.0-436.0","0","0","30555","","null","","","null","48","","NaN","","","","","","","","","","","","","",""
"","response","","html-keyboard-response","326","945785","0.0-1.0-437.0","0","0","30555","","366","","","75","48","","","2","48","training","adjacent","EF","5","6","N.jpg","R.jpg","1","1","1","",""
"","feedback","","html-keyboard-response","327","946788","0.0-1.0-438.0-0.0","0","0","30555","","null","","","null","48","","","","","","","","","","","","","","","",""
"","ITI","","html-keyboard-response","328","947791","0.0-1.0-441.0","0","0","30555","","null","","","null","48","","","","","","","","","","","","","","","NaN",""
"","S1","","html-keyboard-response","329","948045","0.0-1.0-443.0","0","0","30555","","null","","","null","49","","","","","","","","","","","","","","","",""
"","ISI","","html-keyboard-response","330","950047","0.0-1.0-444.0","0","0","30555","","null","","","null","49","NaN","","","","","","","","","","","","","","",""
"","S2","","html-keyboard-response","331","950300","0.0-1.0-445.0","0","0","30555","","null","","","null","49","","NaN","","","","","","","","","","","","","",""
"","response","","html-keyboard-response","332","950337","0.0-1.0-446.0","0","0","30555","","35","","","68","49","","","2","49","training","adjacent","ED","5","4","N.jpg","L.jpg","0","0","1","",""
"","feedback","","html-keyboard-response","333","951341","0.0-1.0-447.0-0.0","0","0","30555","","null","","","null","49","","","","","","","","","","","","","","","",""
"","ITI","","html-keyboard-response","334","952346","0.0-1.0-450.0","0","0","30555","","null","","","null","49","","","","","","","","","","","","","","","NaN",""
"","S1","","html-keyboard-response","335","952598","0.0-1.0-452.0","0","0","30555","","null","","","null","50","","","","","","","","","","","","","","","",""
"","ISI","","html-keyboard-response","336","954601","0.0-1.0-453.0","0","0","30555","","null","","","null","50","NaN","","","","","","","","","","","","","","",""
"","S2","","html-keyboard-response","337","954853","0.0-1.0-454.0","0","0","30555","","null","","","null","50","","NaN","","","","","","","","","","","","","",""
"","response","","html-keyboard-response","338","955244","0.0-1.0-455.0","0","0","30555","","388","","","75","50","","","2","50","training","adjacent","CD","3","4","M.jpg","L.jpg","1","1","1","",""
"","feedback","","html-keyboard-response","339","956247","0.0-1.0-456.0-0.0","0","0","30555","","null","","","null","50","","","","","","","","","","","","","","","",""
"","ITI","","html-keyboard-response","340","957250","0.0-1.0-459.0","0","0","30555","","null","","","null","50","","","","","","","","","","","","","","","NaN",""
"","S1","","html-keyboard-response","341","957503","0.0-1.0-461.0","0","0","30555","","null","","","null","51","","","","","","","","","","","","","","","",""
"","ISI","","html-keyboard-response","342","959506","0.0-1.0-462.0","0","0","30555","","null","","","null","51","NaN","","","","","","","","","","","","","","",""
"","S2","","html-keyboard-response","343","959766","0.0-1.0-463.0","0","0","30555","","null","","","null","51","","NaN","","","","","","","","","","","","","",""
"","response","","html-keyboard-response","344","960273","0.0-1.0-464.0","0","0","30555","","504","","","75","51","","","2","51","training","adjacent","EF","5","6","N.jpg","R.jpg","1","1","1","",""
"","feedback","","html-keyboard-response","345","961276","0.0-1.0-465.0-0.0","0","0","30555","","null","","","null","51","","","","","","","","","","","","","","","",""
"","ITI","","html-keyboard-response","346","962279","0.0-1.0-468.0","0","0","30555","","null","","","null","51","","","","","","","","","","","","","","","NaN",""
"","S1","","html-keyboard-response","347","962531","0.0-1.0-470.0","0","0","30555","","null","","","null","52","","","","","","","","","","","","","","","",""
"","ISI","","html-keyboard-response","348","964534","0.0-1.0-471.0","0","0","30555","","null","","","null","52","NaN","","","","","","","","","","","","","","",""
"","S2","","html-keyboard-response","349","964787","0.0-1.0-472.0","0","0","30555","","null","","","null","52","","NaN","","","","","","","","","","","","","",""
"","response","","html-keyboard-response","350","965678","0.0-1.0-473.0","0","0","30555","","888","","","75","52","","","2","52","training","adjacent","CD","3","4","M.jpg","L.jpg","1","1","1","",""
"","feedback","","html-keyboard-response","351","966682","0.0-1.0-474.0-0.0","0","0","30555","","null","","","null","52","","","","","","","","","","","","","","","",""
"","ITI","","html-keyboard-response","352","967684","0.0-1.0-477.0","0","0","30555","","null","","","null","52","","","","","","","","","","","","","","","NaN",""
"","S1","","html-keyboard-response","353","967937","0.0-1.0-479.0","0","0","30555","","null","","","null","53","","","","","","","","","","","","","","","",""
"","ISI","","html-keyboard-response","354","969942","0.0-1.0-480.0","0","0","30555","","null","","","null","53","NaN","","","","","","","","","","","","","","",""
"","S2","","html-keyboard-response","355","970196","0.0-1.0-481.0","0","0","30555","","null","","","null","53","","NaN","","","","","","","","","","","","","",""
"","response","","html-keyboard-response","356","971241","0.0-1.0-482.0","0","0","30555","","1043","","","68","53","","","2","53","training","adjacent","DC","4","3","L.jpg","M.jpg","0","0","1","",""
"","feedback","","html-keyboard-response","357","972243","0.0-1.0-483.0-0.0","0","0","30555","","null","","","null","53","","","","","","","","","","","","","","","",""
"","ITI","","html-keyboard-response","358","973247","0.0-1.0-486.0","0","0","30555","","null","","","null","53","","","","","","","","","","","","","","","NaN",""
"","S1","","html-keyboard-response","359","973511","0.0-1.0-488.0","0","0","30555","","null","","","null","54","","","","","","","","","","","","","","","",""
"","ISI","","html-keyboard-response","360","975514","0.0-1.0-489.0","0","0","30555","","null","","","null","54","NaN","","","","","","","","","","","","","","",""
"","S2","","html-keyboard-response","361","975767","0.0-1.0-490.0","0","0","30555","","null","","","null","54","","NaN","","","","","","","","","","","","","",""
"","response","","html-keyboard-response","362","977748","0.0-1.0-491.0","0","0","30555","","1979","","","75","54","","","2","54","training","adjacent","EF","5","6","N.jpg","R.jpg","1","1","1","",""
"","feedback","","html-keyboard-response","363","978751","0.0-1.0-492.0-0.0","0","0","30555","","null","","","null","54","","","","","","","","","","","","","","","",""
"","ITI","","html-keyboard-response","364","979754","0.0-1.0-495.0","0","0","30555","","null","","","null","54","","","","","","","","","","","","","","","NaN",""
"","S1","","html-keyboard-response","365","980006","0.0-1.0-497.0","0","0","30555","","null","","","null","55","","","","","","","","","","","","","","","",""
"","ISI","","html-keyboard-response","366","982009","0.0-1.0-498.0","0","0","30555","","null","","","null","55","NaN","","","","","","","","","","","","","","",""
"","S2","","html-keyboard-response","367","982263","0.0-1.0-499.0","0","0","30555","","null","","","null","55","","NaN","","","","","","","","","","","","","",""
"","response","","html-keyboard-response","368","984267","0.0-1.0-500.0","0","0","30555","","null","","","null","55","","","2","55","training","adjacent","ED","5","4","N.jpg","L.jpg","NaN","0","0","",""
"","too_slow_prompt","","html-keyboard-response","369","985271","0.0-1.0-502.0-0.0","1","0","30555","","null","","","null","","","","","","","","","","","","","","","","",""
"","time_out","","html-keyboard-response","370","987273","0.0-1.0-503.0-0.0","0","0","30555","","null","","","null","55","","","","","","","","","","","","","","","",""
"","ITI","","html-keyboard-response","371","988276","0.0-1.0-504.0","0","0","30555","","665","","","75","55","","","","","","","","","","","","","","","k",""
"","S1","","html-keyboard-response","372","988530","0.0-1.0-506.0","0","0","30555","","null","","","null","56","","","","","","","","","","","","","","","",""
"","ISI","","html-keyboard-response","373","990533","0.0-1.0-507.0","0","0","30555","","149","","","75","56","k","","","","","","","","","","","","","","",""
"","S2","","html-keyboard-response","374","990785","0.0-1.0-508.0","0","0","30555","","null","","","null","56","","NaN","","","","","","","","","","","","","",""
"","response","","html-keyboard-response","375","991137","0.0-1.0-509.0","0","0","30555","","350","","","75","56","","","2","56","training","adjacent","FG","6","7","R.jpg","P.jpg","1","1","1","",""
"","feedback","","html-keyboard-response","376","992141","0.0-1.0-510.0-0.0","0","0","30555","","null","","","null","56","","","","","","","","","","","","","","","",""
"","ITI","","html-keyboard-response","377","993143","0.0-1.0-513.0","0","0","30555","","null","","","null","56","","","","","","","","","","","","","","","NaN",""
"","S1","","html-keyboard-response","378","993397","0.0-1.0-515.0","0","0","30555","","null","","","null","57","","","","","","","","","","","","","","","",""
"","ISI","","html-keyboard-response","379","995399","0.0-1.0-516.0","0","0","30555","","null","","","null","57","NaN","","","","","","","","","","","","","","",""
"","S2","","html-keyboard-response","380","995652","0.0-1.0-517.0","0","0","30555","","224","","","75","57","","k","","","","","","","","","","","","","",""
"","response","","html-keyboard-response","381","997655","0.0-1.0-518.0","0","0","30555","","null","","","null","57","","","2","57","training","adjacent","CB","3","2","M.jpg","O.jpg","NaN","0","0","",""
"","too_slow_prompt","","html-keyboard-response","382","998658","0.0-1.0-520.0-0.0","1","0","30555","","null","","","null","","","","","","","","","","","","","","","","",""
"","time_out","","html-keyboard-response","383","1000661","0.0-1.0-521.0-0.0","0","0","30555","","null","","","null","57","","","","","","","","","","","","","","","",""
"","ITI","","html-keyboard-response","384","1001665","0.0-1.0-522.0","0","0","30555","","null","","","null","57","","","","","","","","","","","","","","","NaN",""
"","S1","","html-keyboard-response","385","1001918","0.0-1.0-524.0","0","0","30555","","null","","","null","58","","","","","","","","","","","","","","","",""
"","ISI","","html-keyboard-response","386","1003921","0.0-1.0-525.0","0","0","30555","","17","","","75","58","k","","","","","","","","","","","","","","",""
"","S2","","html-keyboard-response","387","1004174","0.0-1.0-526.0","0","0","30555","","null","","","null","58","","NaN","","","","","","","","","","","","","",""
"","response","","html-keyboard-response","388","1004505","0.0-1.0-527.0","0","0","30555","","330","","","75","58","","","2","58","training","adjacent","DE","4","5","L.jpg","N.jpg","1","1","1","",""
"","feedback","","html-keyboard-response","389","1005508","0.0-1.0-528.0-0.0","0","0","30555","","null","","","null","58","","","","","","","","","","","","","","","",""
"","ITI","","html-keyboard-response","390","1006511","0.0-1.0-531.0","0","0","30555","","null","","","null","58","","","","","","","","","","","","","","","NaN",""
"","S1","","html-keyboard-response","391","1006764","0.0-1.0-533.0","0","0","30555","","null","","","null","59","","","","","","","","","","","","","","","",""
"","ISI","","html-keyboard-response","392","1008767","0.0-1.0-534.0","0","0","30555","","null","","","null","59","NaN","","","","","","","","","","","","","","",""
"","S2","","html-keyboard-response","393","1009019","0.0-1.0-535.0","0","0","30555","","null","","","null","59","","NaN","","","","","","","","","","","","","",""
"","response","","html-keyboard-response","394","1009372","0.0-1.0-536.0","0","0","30555","","351","","","75","59","","","2","59","training","adjacent","BA","2","1","O.jpg","Q.jpg","1","0","0","",""
"","feedback","","html-keyboard-response","395","1010375","0.0-1.0-537.0-0.0","0","0","30555","","null","","","null","59","","","","","","","","","","","","","","","",""
"","time_out","","html-keyboard-response","396","1012378","0.0-1.0-539.0-0.0","0","0","30555","","null","","","null","59","","","","","","","","","","","","","","","",""
"","ITI","","html-keyboard-response","397","1013380","0.0-1.0-540.0","0","0","30555","","29","","","75","59","","","","","","","","","","","","","","","k",""
"","S1","","html-keyboard-response","398","1013633","0.0-1.0-542.0","0","0","30555","","null","","","null","60","","","","","","","","","","","","","","","",""
"","ISI","","html-keyboard-response","399","1015636","0.0-1.0-543.0","0","0","30555","","286","","","75","60","k","","","","","","","","","","","","","","",""
"","S2","","html-keyboard-response","400","1015889","0.0-1.0-544.0","0","0","30555","","null","","","null","60","","NaN","","","","","","","","","","","","","",""
"","response","","html-keyboard-response","401","1016073","0.0-1.0-545.0","0","0","30555","","183","","","75","60","","","2","60","training","adjacent","FE","6","5","R.jpg","N.jpg","1","0","0","",""
"","feedback","","html-keyboard-response","402","1017078","0.0-1.0-546.0-0.0","0","0","30555","","null","","","null","60","","","","","","","","","","","","","","","",""
"","time_out","","html-keyboard-response","403","1019081","0.0-1.0-548.0-0.0","0","0","30555","","null","","","null","60","","","","","","","","","","","","","","","",""
"","ITI","","html-keyboard-response","404","1020084","0.0-1.0-549.0","0","0","30555","","null","","","null","60","","","","","","","","","","","","","","","NaN",""
"","S1","","html-keyboard-response","405","1020338","0.0-1.0-551.0","0","0","30555","","null","","","null","61","","","","","","","","","","","","","","","",""
"","ISI","","html-keyboard-response","406","1022340","0.0-1.0-552.0","0","0","30555","","40","","","75","61","k","","","","","","","","","","","","","","",""
"","S2","","html-keyboard-response","407","1022593","0.0-1.0-553.0","0","0","30555","","null","","","null","61","","NaN","","","","","","","","","","","","","",""
"","response","","html-keyboard-response","408","1022801","0.0-1.0-554.0","0","0","30555","","206","","","75","61","","","2","61","training","adjacent","BA","2","1","O.jpg","Q.jpg","1","0","0","",""
"","feedback","","html-keyboard-response","409","1023803","0.0-1.0-555.0-0.0","0","0","30555","","null","","","null","61","","","","","","","","","","","","","","","",""
"","time_out","","html-keyboard-response","410","1025806","0.0-1.0-557.0-0.0","0","0","30555","","null","","","null","61","","","","","","","","","","","","","","","",""
"","ITI","","html-keyboard-response","411","1026808","0.0-1.0-558.0","0","0","30555","","null","","","null","61","","","","","","","","","","","","","","","NaN",""
"","S1","","html-keyboard-response","412","1027062","0.0-1.0-560.0","0","0","30555","","null","","","null","62","","","","","","","","","","","","","","","",""
"","ISI","","html-keyboard-response","413","1029065","0.0-1.0-561.0","0","0","30555","","57","","","75","62","k","","","","","","","","","","","","","","",""
"","S2","","html-keyboard-response","414","1029318","0.0-1.0-562.0","0","0","30555","","null","","","null","62","","NaN","","","","","","","","","","","","","",""
"","response","","html-keyboard-response","415","1031320","0.0-1.0-563.0","0","0","30555","","null","","","null","62","","","2","62","training","adjacent","FG","6","7","R.jpg","P.jpg","NaN","1","0","",""
"","too_slow_prompt","","html-keyboard-response","416","1032323","0.0-1.0-565.0-0.0","1","0","30555","","null","","","null","","","","","","","","","","","","","","","","",""
"","time_out","","html-keyboard-response","417","1034327","0.0-1.0-566.0-0.0","0","0","30555","","null","","","null","62","","","","","","","","","","","","","","","",""
"","ITI","","html-keyboard-response","418","1035329","0.0-1.0-567.0","0","0","30555","","855","","","75","62","","","","","","","","","","","","","","","k",""
"","S1","","html-keyboard-response","419","1035582","0.0-1.0-569.0","0","0","30555","","null","","","null","63","","","","","","","","","","","","","","","",""
"","ISI","","html-keyboard-response","420","1037584","0.0-1.0-570.0","0","0","30555","","null","","","null","63","NaN","","","","","","","","","","","","","","",""
"","S2","","html-keyboard-response","421","1037838","0.0-1.0-571.0","0","0","30555","","null","","","null","63","","NaN","","","","","","","","","","","","","",""
"","response","","html-keyboard-response","422","1038296","0.0-1.0-572.0","0","0","30555","","456","","","75","63","","","2","63","training","adjacent","GF","7","6","P.jpg","R.jpg","1","0","0","",""
"","feedback","","html-keyboard-response","423","1039300","0.0-1.0-573.0-0.0","0","0","30555","","null","","","null","63","","","","","","","","","","","","","","","",""
"","time_out","","html-keyboard-response","424","1041307","0.0-1.0-575.0-0.0","0","0","30555","","null","","","null","63","","","","","","","","","","","","","","","",""
"","ITI","","html-keyboard-response","425","1042309","0.0-1.0-576.0","0","0","30555","","null","","","null","63","","","","","","","","","","","","","","","NaN",""
"","S1","","html-keyboard-response","426","1042561","0.0-1.0-578.0","0","0","30555","","null","","","null","64","","","","","","","","","","","","","","","",""
"","ISI","","html-keyboard-response","427","1044563","0.0-1.0-579.0","0","0","30555","","null","","","null","64","NaN","","","","","","","","","","","","","","",""
"","S2","","html-keyboard-response","428","1044816","0.0-1.0-580.0","0","0","30555","","null","","","null","64","","NaN","","","","","","","","","","","","","",""
"","response","","html-keyboard-response","429","1046819","0.0-1.0-581.0","0","0","30555","","null","","","null","64","","","2","64","training","adjacent","DE","4","5","L.jpg","N.jpg","NaN","1","0","",""
"","too_slow_prompt","","html-keyboard-response","430","1047823","0.0-1.0-583.0-0.0","1","0","30555","","null","","","null","","","","","","","","","","","","","","","","",""
"","time_out","","html-keyboard-response","431","1049826","0.0-1.0-584.0-0.0","0","0","30555","","null","","","null","64","","","","","","","","","","","","","","","",""
"","ITI","","html-keyboard-response","432","1050829","0.0-1.0-585.0","0","0","30555","","null","","","null","64","","","","","","","","","","","","","","","NaN",""
"","S1","","html-keyboard-response","433","1051082","0.0-1.0-587.0","0","0","30555","","null","","","null","65","","","","","","","","","","","","","","","",""
"","ISI","","html-keyboard-response","434","1053085","0.0-1.0-588.0","0","0","30555","","null","","","null","65","NaN","","","","","","","","","","","","","","",""
"","S2","","html-keyboard-response","435","1053337","0.0-1.0-589.0","0","0","30555","","null","","","null","65","","NaN","","","","","","","","","","","","","",""
"","response","","html-keyboard-response","436","1053816","0.0-1.0-590.0","0","0","30555","","477","","","75","65","","","2","65","training","adjacent","DC","4","3","L.jpg","M.jpg","1","0","0","",""
"","feedback","","html-keyboard-response","437","1054819","0.0-1.0-591.0-0.0","0","0","30555","","null","","","null","65","","","","","","","","","","","","","","","",""
"","time_out","","html-keyboard-response","438","1056822","0.0-1.0-593.0-0.0","0","0","30555","","null","","","null","65","","","","","","","","","","","","","","","",""
"","ITI","","html-keyboard-response","439","1057824","0.0-1.0-594.0","0","0","30555","","null","","","null","65","","","","","","","","","","","","","","","NaN",""
"","S1","","html-keyboard-response","440","1058077","0.0-1.0-596.0","0","0","30555","","null","","","null","66","","","","","","","","","","","","","","","",""
"","ISI","","html-keyboard-response","441","1060080","0.0-1.0-597.0","0","0","30555","","1558","","","75","66","k","","","","","","","","","","","","","","",""
"","S2","","html-keyboard-response","442","1060334","0.0-1.0-598.0","0","0","30555","","null","","","null","66","","NaN","","","","","","","","","","","","","",""
"","response","","html-keyboard-response","443","1062337","0.0-1.0-599.0","0","0","30555","","null","","","null","66","","","2","66","training","adjacent","FG","6","7","R.jpg","P.jpg","NaN","1","0","",""
"","too_slow_prompt","","html-keyboard-response","444","1063340","0.0-1.0-601.0-0.0","1","0","30555","","null","","","null","","","","","","","","","","","","","","","","",""
"","time_out","","html-keyboard-response","445","1065342","0.0-1.0-602.0-0.0","0","0","30555","","null","","","null","66","","","","","","","","","","","","","","","",""
"","ITI","","html-keyboard-response","446","1066345","0.0-1.0-603.0","0","0","30555","","848","","","68","66","","","","","","","","","","","","","","","d",""
"","S1","","html-keyboard-response","447","1066597","0.0-1.0-605.0","0","0","30555","","null","","","null","67","","","","","","","","","","","","","","","",""
"","ISI","","html-keyboard-response","448","1068599","0.0-1.0-606.0","0","0","30555","","null","","","null","67","NaN","","","","","","","","","","","","","","",""
"","S2","","html-keyboard-response","449","1068851","0.0-1.0-607.0","0","0","30555","","null","","","null","67","","NaN","","","","","","","","","","","","","",""
"","response","","html-keyboard-response","450","1068904","0.0-1.0-608.0","0","0","30555","","52","","","68","67","","","2","67","training","adjacent","CB","3","2","M.jpg","O.jpg","0","0","1","",""
"","feedback","","html-keyboard-response","451","1069910","0.0-1.0-609.0-0.0","0","0","30555","","null","","","null","67","","","","","","","","","","","","","","","",""
"","ITI","","html-keyboard-response","452","1070914","0.0-1.0-612.0","0","0","30555","","null","","","null","67","","","","","","","","","","","","","","","NaN",""
"","S1","","html-keyboard-response","453","1071167","0.0-1.0-614.0","0","0","30555","","null","","","null","68","","","","","","","","","","","","","","","",""
"","ISI","","html-keyboard-response","454","1073171","0.0-1.0-615.0","0","0","30555","","667","","","75","68","k","","","","","","","","","","","","","","",""
"","S2","","html-keyboard-response","455","1073424","0.0-1.0-616.0","0","0","30555","","227","","","75","68","","k","","","","","","","","","","","","","",""
"","response","","html-keyboard-response","456","1075428","0.0-1.0-617.0","0","0","30555","","null","","","null","68","","","2","68","training","adjacent","GF","7","6","P.jpg","R.jpg","NaN","0","0","",""
"","too_slow_prompt","","html-keyboard-response","457","1076430","0.0-1.0-619.0-0.0","1","0","30555","","null","","","null","","","","","","","","","","","","","","","","",""
"","time_out","","html-keyboard-response","458","1078432","0.0-1.0-620.0-0.0","0","0","30555","","null","","","null","68","","","","","","","","","","","","","","","",""
"","ITI","","html-keyboard-response","459","1079436","0.0-1.0-621.0","0","0","30555","","null","","","null","68","","","","","","","","","","","","","","","NaN",""
"","S1","","html-keyboard-response","460","1079688","0.0-1.0-623.0","0","0","30555","","null","","","null","69","","","","","","","","","","","","","","","",""
"","ISI","","html-keyboard-response","461","1081691","0.0-1.0-624.0","0","0","30555","","150","","","75","69","k","","","","","","","","","","","","","","",""
"","S2","","html-keyboard-response","462","1081945","0.0-1.0-625.0","0","0","30555","","null","","","null","69","","NaN","","","","","","","","","","","","","",""
"","response","","html-keyboard-response","463","1082163","0.0-1.0-626.0","0","0","30555","","217","","","75","69","","","2","69","training","adjacent","DE","4","5","L.jpg","N.jpg","1","1","1","",""
"","feedback","","html-keyboard-response","464","1083166","0.0-1.0-627.0-0.0","0","0","30555","","null","","","null","69","","","","","","","","","","","","","","","",""
"","ITI","","html-keyboard-response","465","1084169","0.0-1.0-630.0","0","0","30555","","null","","","null","69","","","","","","","","","","","","","","","NaN",""
"","S1","","html-keyboard-response","466","1084421","0.0-1.0-632.0","0","0","30555","","null","","","null","70","","","","","","","","","","","","","","","",""
"","ISI","","html-keyboard-response","467","1086424","0.0-1.0-633.0","0","0","30555","","null","","","null","70","NaN","","","","","","","","","","","","","","",""
"","S2","","html-keyboard-response","468","1086677","0.0-1.0-634.0","0","0","30555","","null","","","null","70","","NaN","","","","","","","","","","","","","",""
"","response","","html-keyboard-response","469","1087049","0.0-1.0-635.0","0","0","30555","","371","","","75","70","","","2","70","training","adjacent","ED","5","4","N.jpg","L.jpg","1","0","0","",""
"","feedback","","html-keyboard-response","470","1088062","0.0-1.0-636.0-0.0","0","0","30555","","null","","","null","70","","","","","","","","","","","","","","","",""
"","time_out","","html-keyboard-response","471","1090065","0.0-1.0-638.0-0.0","0","0","30555","","null","","","null","70","","","","","","","","","","","","","","","",""
"","ITI","","html-keyboard-response","472","1091067","0.0-1.0-639.0","0","0","30555","","null","","","null","70","","","","","","","","","","","","","","","NaN",""
"","S1","","html-keyboard-response","473","1091320","0.0-1.0-641.0","0","0","30555","","null","","","null","71","","","","","","","","","","","","","","","",""
"","ISI","","html-keyboard-response","474","1093324","0.0-1.0-642.0","0","0","30555","","367","","","75","71","k","","","","","","","","","","","","","","",""
"","S2","","html-keyboard-response","475","1093577","0.0-1.0-643.0","0","0","30555","","null","","","null","71","","NaN","","","","","","","","","","","","","",""
"","response","","html-keyboard-response","476","1094261","0.0-1.0-644.0","0","0","30555","","683","","","75","71","","","2","71","training","adjacent","ED","5","4","N.jpg","L.jpg","1","0","0","",""
"","feedback","","html-keyboard-response","477","1095264","0.0-1.0-645.0-0.0","0","0","30555","","null","","","null","71","","","","","","","","","","","","","","","",""
"","time_out","","html-keyboard-response","478","1097267","0.0-1.0-647.0-0.0","0","0","30555","","null","","","null","71","","","","","","","","","","","","","","","",""
"","ITI","","html-keyboard-response","479","1098270","0.0-1.0-648.0","0","0","30555","","null","","","null","71","","","","","","","","","","","","","","","NaN",""
"","S1","","html-keyboard-response","480","1098522","0.0-1.0-650.0","0","0","30555","","null","","","null","72","","","","","","","","","","","","","","","",""
"","ISI","","html-keyboard-response","481","1100525","0.0-1.0-651.0","0","0","30555","","null","","","null","72","NaN","","","","","","","","","","","","","","",""
"","S2","","html-keyboard-response","482","1100778","0.0-1.0-652.0","0","0","30555","","null","","","null","72","","NaN","","","","","","","","","","","","","",""
"","response","","html-keyboard-response","483","1101249","0.0-1.0-653.0","0","0","30555","","469","","","68","72","","","2","72","training","adjacent","BC","2","3","O.jpg","M.jpg","0","1","0","",""
"","feedback","","html-keyboard-response","484","1102251","0.0-1.0-654.0-0.0","0","0","30555","","null","","","null","72","","","","","","","","","","","","","","","",""
"","time_out","","html-keyboard-response","485","1104254","0.0-1.0-656.0-0.0","0","0","30555","","null","","","null","72","","","","","","","","","","","","","","","",""
"","ITI","","html-keyboard-response","486","1105256","0.0-1.0-657.0","0","0","30555","","null","","","null","72","","","","","","","","","","","","","","","NaN",""
"","S1","","html-keyboard-response","487","1105509","0.0-1.0-659.0","0","0","30555","","null","","","null","73","","","","","","","","","","","","","","","",""
"","ISI","","html-keyboard-response","488","1107512","0.0-1.0-660.0","0","0","30555","","null","","","null","73","NaN","","","","","","","","","","","","","","",""
"","S2","","html-keyboard-response","489","1107765","0.0-1.0-661.0","0","0","30555","","null","","","null","73","","NaN","","","","","","","","","","","","","",""
"","response","","html-keyboard-response","490","1108171","0.0-1.0-662.0","0","0","30555","","404","","","75","73","","","2","73","training","adjacent","BA","2","1","O.jpg","Q.jpg","1","0","0","",""
"","feedback","","html-keyboard-response","491","1109175","0.0-1.0-663.0-0.0","0","0","30555","","null","","","null","73","","","","","","","","","","","","","","","",""
"","time_out","","html-keyboard-response","492","1111178","0.0-1.0-665.0-0.0","0","0","30555","","null","","","null","73","","","","","","","","","","","","","","","",""
"","ITI","","html-keyboard-response","493","1112182","0.0-1.0-666.0","0","0","30555","","null","","","null","73","","","","","","","","","","","","","","","NaN",""
"","S1","","html-keyboard-response","494","1112434","0.0-1.0-668.0","0","0","30555","","null","","","null","74","","","","","","","","","","","","","","","",""
"","ISI","","html-keyboard-response","495","1114437","0.0-1.0-669.0","0","0","30555","","null","","","null","74","NaN","","","","","","","","","","","","","","",""
"","S2","","html-keyboard-response","496","1114691","0.0-1.0-670.0","0","0","30555","","null","","","null","74","","NaN","","","","","","","","","","","","","",""
"","response","","html-keyboard-response","497","1114985","0.0-1.0-671.0","0","0","30555","","291","","","68","74","","","2","74","training","adjacent","EF","5","6","N.jpg","R.jpg","0","1","0","",""
"","feedback","","html-keyboard-response","498","1115990","0.0-1.0-672.0-0.0","0","0","30555","","null","","","null","74","","","","","","","","","","","","","","","",""
"","time_out","","html-keyboard-response","499","1117993","0.0-1.0-674.0-0.0","0","0","30555","","null","","","null","74","","","","","","","","","","","","","","","",""
"","ITI","","html-keyboard-response","500","1118996","0.0-1.0-675.0","0","0","30555","","null","","","null","74","","","","","","","","","","","","","","","NaN",""
"","S1","","html-keyboard-response","501","1119251","0.0-1.0-677.0","0","0","30555","","null","","","null","75","","","","","","","","","","","","","","","",""
"","ISI","","html-keyboard-response","502","1121255","0.0-1.0-678.0","0","0","30555","","null","","","null","75","NaN","","","","","","","","","","","","","","",""
"","S2","","html-keyboard-response","503","1121512","0.0-1.0-679.0","0","0","30555","","null","","","null","75","","NaN","","","","","","","","","","","","","",""
"","response","","html-keyboard-response","504","1122196","0.0-1.0-680.0","0","0","30555","","682","","","68","75","","","2","75","training","adjacent","FE","6","5","R.jpg","N.jpg","0","0","1","",""
"","feedback","","html-keyboard-response","505","1123199","0.0-1.0-681.0-0.0","0","0","30555","","null","","","null","75","","","","","","","","","","","","","","","",""
"","ITI","","html-keyboard-response","506","1124202","0.0-1.0-684.0","0","0","30555","","null","","","null","75","","","","","","","","","","","","","","","NaN",""
"","S1","","html-keyboard-response","507","1124455","0.0-1.0-686.0","0","0","30555","","null","","","null","76","","","","","","","","","","","","","","","",""
"","ISI","","html-keyboard-response","508","1126458","0.0-1.0-687.0","0","0","30555","","687","","","68","76","d","","","","","","","","","","","","","","",""
"","S2","","html-keyboard-response","509","1126711","0.0-1.0-688.0","0","0","30555","","null","","","null","76","","NaN","","","","","","","","","","","","","",""
"","response","","html-keyboard-response","510","1127065","0.0-1.0-689.0","0","0","30555","","352","","","68","76","","","2","76","training","adjacent","BA","2","1","O.jpg","Q.jpg","0","0","1","",""
"","feedback","","html-keyboard-response","511","1128068","0.0-1.0-690.0-0.0","0","0","30555","","null","","","null","76","","","","","","","","","","","","","","","",""
"","ITI","","html-keyboard-response","512","1129071","0.0-1.0-693.0","0","0","30555","","null","","","null","76","","","","","","","","","","","","","","","NaN",""
"","S1","","html-keyboard-response","513","1129324","0.0-1.0-695.0","0","0","30555","","null","","","null","77","","","","","","","","","","","","","","","",""
"","ISI","","html-keyboard-response","514","1131327","0.0-1.0-696.0","0","0","30555","","618","","","68","77","d","","","","","","","","","","","","","","",""
"","S2","","html-keyboard-response","515","1131581","0.0-1.0-697.0","0","0","30555","","null","","","null","77","","NaN","","","","","","","","","","","","","",""
"","response","","html-keyboard-response","516","1131841","0.0-1.0-698.0","0","0","30555","","258","","","68","77","","","2","77","training","adjacent","BC","2","3","O.jpg","M.jpg","0","1","0","",""
"","feedback","","html-keyboard-response","517","1132845","0.0-1.0-699.0-0.0","0","0","30555","","null","","","null","77","","","","","","","","","","","","","","","",""
"","time_out","","html-keyboard-response","518","1134847","0.0-1.0-701.0-0.0","0","0","30555","","null","","","null","77","","","","","","","","","","","","","","","",""
"","ITI","","html-keyboard-response","519","1135851","0.0-1.0-702.0","0","0","30555","","null","","","null","77","","","","","","","","","","","","","","","NaN",""
"","S1","","html-keyboard-response","520","1136104","0.0-1.0-704.0","0","0","30555","","null","","","null","78","","","","","","","","","","","","","","","",""
"","ISI","","html-keyboard-response","521","1138107","0.0-1.0-705.0","0","0","30555","","null","","","null","78","NaN","","","","","","","","","","","","","","",""
"","S2","","html-keyboard-response","522","1138361","0.0-1.0-706.0","0","0","30555","","null","","","null","78","","NaN","","","","","","","","","","","","","",""
"","response","","html-keyboard-response","523","1138843","0.0-1.0-707.0","0","0","30555","","481","","","68","78","","","2","78","training","adjacent","AB","1","2","Q.jpg","O.jpg","0","1","0","",""
"","feedback","","html-keyboard-response","524","1139846","0.0-1.0-708.0-0.0","0","0","30555","","null","","","null","78","","","","","","","","","","","","","","","",""
"","time_out","","html-keyboard-response","525","1141849","0.0-1.0-710.0-0.0","0","0","30555","","null","","","null","78","","","","","","","","","","","","","","","",""
"","ITI","","html-keyboard-response","526","1142852","0.0-1.0-711.0","0","0","30555","","null","","","null","78","","","","","","","","","","","","","","","NaN",""
"","S1","","html-keyboard-response","527","1143104","0.0-1.0-713.0","0","0","30555","","null","","","null","79","","","","","","","","","","","","","","","",""
"","ISI","","html-keyboard-response","528","1145107","0.0-1.0-714.0","0","0","30555","","271","","","75","79","k","","","","","","","","","","","","","","",""
"","S2","","html-keyboard-response","529","1145361","0.0-1.0-715.0","0","0","30555","","null","","","null","79","","NaN","","","","","","","","","","","","","",""
"","response","","html-keyboard-response","530","1147363","0.0-1.0-716.0","0","0","30555","","null","","","null","79","","","2","79","training","adjacent","FG","6","7","R.jpg","P.jpg","NaN","1","0","",""
"","too_slow_prompt","","html-keyboard-response","531","1148380","0.0-1.0-718.0-0.0","1","0","30555","","null","","","null","","","","","","","","","","","","","","","","",""
"","time_out","","html-keyboard-response","532","1150395","0.0-1.0-719.0-0.0","0","0","30555","","null","","","null","79","","","","","","","","","","","","","","","",""
"","ITI","","html-keyboard-response","533","1151398","0.0-1.0-720.0","0","0","30555","","null","","","null","79","","","","","","","","","","","","","","","NaN",""
"","S1","","html-keyboard-response","534","1151651","0.0-1.0-722.0","0","0","30555","","null","","","null","80","","","","","","","","","","","","","","","",""
"","ISI","","html-keyboard-response","535","1153653","0.0-1.0-723.0","0","0","30555","","1284","","","75","80","k","","","","","","","","","","","","","","",""
"","S2","","html-keyboard-response","536","1153906","0.0-1.0-724.0","0","0","30555","","null","","","null","80","","NaN","","","","","","","","","","","","","",""
"","response","","html-keyboard-response","537","1154369","0.0-1.0-725.0","0","0","30555","","462","","","75","80","","","2","80","training","adjacent","CD","3","4","M.jpg","L.jpg","1","1","1","",""
"","feedback","","html-keyboard-response","538","1155372","0.0-1.0-726.0-0.0","0","0","30555","","null","","","null","80","","","","","","","","","","","","","","","",""
"","ITI","","html-keyboard-response","539","1156375","0.0-1.0-729.0","0","0","30555","","null","","","null","80","","","","","","","","","","","","","","","NaN",""
"","S1","","html-keyboard-response","540","1156628","0.0-1.0-731.0","0","0","30555","","null","","","null","81","","","","","","","","","","","","","","","",""
"","ISI","","html-keyboard-response","541","1158631","0.0-1.0-732.0","0","0","30555","","null","","","null","81","NaN","","","","","","","","","","","","","","",""
"","S2","","html-keyboard-response","542","1158883","0.0-1.0-733.0","0","0","30555","","null","","","null","81","","NaN","","","","","","","","","","","","","",""
"","response","","html-keyboard-response","543","1160884","0.0-1.0-734.0","0","0","30555","","null","","","null","81","","","2","81","training","adjacent","GF","7","6","P.jpg","R.jpg","NaN","0","0","",""
"","too_slow_prompt","","html-keyboard-response","544","1161888","0.0-1.0-736.0-0.0","1","0","30555","","null","","","null","","","","","","","","","","","","","","","","",""
"","time_out","","html-keyboard-response","545","1163890","0.0-1.0-737.0-0.0","0","0","30555","","null","","","null","81","","","","","","","","","","","","","","","",""
"","ITI","","html-keyboard-response","546","1164894","0.0-1.0-738.0","0","0","30555","","null","","","null","81","","","","","","","","","","","","","","","NaN",""
"","S1","","html-keyboard-response","547","1165148","0.0-1.0-740.0","0","0","30555","","null","","","null","82","","","","","","","","","","","","","","","",""
"","ISI","","html-keyboard-response","548","1167150","0.0-1.0-741.0","0","0","30555","","null","","","null","82","NaN","","","","","","","","","","","","","","",""
"","S2","","html-keyboard-response","549","1167403","0.0-1.0-742.0","0","0","30555","","null","","","null","82","","NaN","","","","","","","","","","","","","",""
"","response","","html-keyboard-response","550","1167793","0.0-1.0-743.0","0","0","30555","","387","","","75","82","","","2","82","training","adjacent","AB","1","2","Q.jpg","O.jpg","1","1","1","",""
"","feedback","","html-keyboard-response","551","1168796","0.0-1.0-744.0-0.0","0","0","30555","","null","","","null","82","","","","","","","","","","","","","","","",""
"","ITI","","html-keyboard-response","552","1169799","0.0-1.0-747.0","0","0","30555","","null","","","null","82","","","","","","","","","","","","","","","NaN",""
"","S1","","html-keyboard-response","553","1170052","0.0-1.0-749.0","0","0","30555","","null","","","null","83","","","","","","","","","","","","","","","",""
"","ISI","","html-keyboard-response","554","1172054","0.0-1.0-750.0","0","0","30555","","null","","","null","83","NaN","","","","","","","","","","","","","","",""
"","S2","","html-keyboard-response","555","1172307","0.0-1.0-751.0","0","0","30555","","null","","","null","83","","NaN","","","","","","","","","","","","","",""
"","response","","html-keyboard-response","556","1174131","0.0-1.0-752.0","0","0","30555","","1821","","","75","83","","","2","83","training","adjacent","BC","2","3","O.jpg","M.jpg","1","1","1","",""
"","feedback","","html-keyboard-response","557","1175134","0.0-1.0-753.0-0.0","0","0","30555","","null","","","null","83","","","","","","","","","","","","","","","",""
"","ITI","","html-keyboard-response","558","1176136","0.0-1.0-756.0","0","0","30555","","null","","","null","83","","","","","","","","","","","","","","","NaN",""
"","S1","","html-keyboard-response","559","1176389","0.0-1.0-758.0","0","0","30555","","null","","","null","84","","","","","","","","","","","","","","","",""
"","ISI","","html-keyboard-response","560","1178392","0.0-1.0-759.0","0","0","30555","","274","","","75","84","k","","","","","","","","","","","","","","",""
"","S2","","html-keyboard-response","561","1178646","0.0-1.0-760.0","0","0","30555","","null","","","null","84","","NaN","","","","","","","","","","","","","",""
"","response","","html-keyboard-response","562","1179089","0.0-1.0-761.0","0","0","30555","","442","","","75","84","","","2","84","training","adjacent","DE","4","5","L.jpg","N.jpg","1","1","1","",""
"","feedback","","html-keyboard-response","563","1180092","0.0-1.0-762.0-0.0","0","0","30555","","null","","","null","84","","","","","","","","","","","","","","","",""
"","ITI","","html-keyboard-response","564","1181094","0.0-1.0-765.0","0","0","30555","","null","","","null","84","","","","","","","","","","","","","","","NaN",""
"","S1","","html-keyboard-response","565","1181348","0.0-1.0-767.0","0","0","30555","","null","","","null","85","","","","","","","","","","","","","","","",""
"","ISI","","html-keyboard-response","566","1183351","0.0-1.0-768.0","0","0","30555","","null","","","null","85","NaN","","","","","","","","","","","","","","",""
"","S2","","html-keyboard-response","567","1183604","0.0-1.0-769.0","0","0","30555","","null","","","null","85","","NaN","","","","","","","","","","","","","",""
"","response","","html-keyboard-response","568","1183625","0.0-1.0-770.0","0","0","30555","","20","","","75","85","","","2","85","training","adjacent","FE","6","5","R.jpg","N.jpg","1","0","0","",""
"","feedback","","html-keyboard-response","569","1184627","0.0-1.0-771.0-0.0","0","0","30555","","null","","","null","85","","","","","","","","","","","","","","","",""
"","time_out","","html-keyboard-response","570","1186629","0.0-1.0-773.0-0.0","0","0","30555","","null","","","null","85","","","","","","","","","","","","","","","",""
"","ITI","","html-keyboard-response","571","1187632","0.0-1.0-774.0","0","0","30555","","null","","","null","85","","","","","","","","","","","","","","","NaN",""
"","S1","","html-keyboard-response","572","1187885","0.0-1.0-776.0","0","0","30555","","null","","","null","86","","","","","","","","","","","","","","","",""
"","ISI","","html-keyboard-response","573","1189888","0.0-1.0-777.0","0","0","30555","","316","","","68","86","d","","","","","","","","","","","","","","",""
"","S2","","html-keyboard-response","574","1190141","0.0-1.0-778.0","0","0","30555","","null","","","null","86","","NaN","","","","","","","","","","","","","",""
"","response","","html-keyboard-response","575","1192143","0.0-1.0-779.0","0","0","30555","","null","","","null","86","","","2","86","training","adjacent","FE","6","5","R.jpg","N.jpg","NaN","0","0","",""
"","too_slow_prompt","","html-keyboard-response","576","1193146","0.0-1.0-781.0-0.0","1","0","30555","","null","","","null","","","","","","","","","","","","","","","","",""
"","time_out","","html-keyboard-response","577","1195163","0.0-1.0-782.0-0.0","0","0","30555","","null","","","null","86","","","","","","","","","","","","","","","",""
"","ITI","","html-keyboard-response","578","1196166","0.0-1.0-783.0","0","0","30555","","956","","","75","86","","","","","","","","","","","","","","","k",""
"","S1","","html-keyboard-response","579","1196419","0.0-1.0-785.0","0","0","30555","","null","","","null","87","","","","","","","","","","","","","","","",""
"","ISI","","html-keyboard-response","580","1198421","0.0-1.0-786.0","0","0","30555","","220","","","75","87","k","","","","","","","","","","","","","","",""
"","S2","","html-keyboard-response","581","1198674","0.0-1.0-787.0","0","0","30555","","null","","","null","87","","NaN","","","","","","","","","","","","","",""
"","response","","html-keyboard-response","582","1198979","0.0-1.0-788.0","0","0","30555","","304","","","75","87","","","2","87","training","adjacent","AB","1","2","Q.jpg","O.jpg","1","1","1","",""
