"success","ttype","start_time","trial_type","trial_index","time_elapsed","internal_node_id","warning","missed_checkup","PID","view_history","rt","responses","repeat_instructions","key_press","index","keypress_isi","keypress_S2","block","trial_num","phase","group_type","pair_type","S1_stim","S2_stim","S1_img","S2_img","S1_chosen","S1_higher","accuracy","keypress_iti","total_bonus_tally"
"true","full_screen","d03072023hr1751","fullscreen","0","11972","0.0-0.0","0","0","31385","","","","","","","","","","","","","","","","","","","","","",""
"","instructions","","instructions","1","77550","0.0-1.0-0.0-0.0","0","0","31385","[{""page_index"":0,""viewing_time"":8204},{""page_index"":1,""viewing_time"":33267},{""page_index"":2,""viewing_time"":20770},{""page_index"":3,""viewing_time"":3330}]","65573","","","","","","","","","","","","","","","","","","","",""
"","comprehension_check","","survey-multi-choice","2","125268","0.0-1.0-0.0-1.0","0","0","31385","","47701","{""Q0"":""True"",""Q1"":""K"",""Q2"":""Once the second image appears and while the screen 'MAKE A CHOICE' is shown"",""Q3"":""Green mark"",""Q4"":""either D or K""}","0","","","","","","","","","","","","","","","","","",""
"","start_exp","","html-keyboard-response","3","129071","0.0-1.0-1.0","0","0","31385","","3796","","","32","","","","","","","","","","","","","","","","",""
"","S1","","html-keyboard-response","4","129327","0.0-1.0-2.0","0","0","31385","","null","","","null","0","","","","","","","","","","","","","","","",""
"","ISI","","html-keyboard-response","5","130331","0.0-1.0-3.0","0","0","31385","","null","","","null","0","NaN","","","","","","","","","","","","","","",""
"","S2","","html-keyboard-response","6","130585","0.0-1.0-4.0","0","0","31385","","null","","","null","0","","NaN","","","","","","","","","","","","","",""
"","response","","html-keyboard-response","7","132342","0.0-1.0-5.0-0.0","0","0","31385","","null","","","null","0","","","1","0","training","adjacent","CB","3","2","Q.jpg","L.jpg","NaN","0","0","",""
"","too_slow_prompt","","html-keyboard-response","8","133347","0.0-1.0-7.0-0.0","1","0","31385","","null","","","null","","","","","","","","","","","","","","","","",""
"","time_out","","html-keyboard-response","9","135352","0.0-1.0-8.0-0.0","0","0","31385","","null","","","null","0","","","","","","","","","","","","","","","",""
"","ITI","","html-keyboard-response","10","136356","0.0-1.0-9.0","0","0","31385","","null","","","null","0","","","","","","","","","","","","","","","NaN",""
"","S1","","html-keyboard-response","11","136611","0.0-1.0-11.0","0","0","31385","","null","","","null","1","","","","","","","","","","","","","","","",""
"","ISI","","html-keyboard-response","12","137619","0.0-1.0-12.0","0","0","31385","","null","","","null","1","NaN","","","","","","","","","","","","","","",""
"","S2","","html-keyboard-response","13","137645","0.0-1.0-13.0","0","0","31385","","20","","","75","1","","k","1","1","training","adjacent","DE","4","5","P.jpg","M.jpg","1","1","1","",""
"","feedback","","html-keyboard-response","14","138653","0.0-1.0-15.0-0.0","0","0","31385","","null","","","null","1","","","","","","","","","","","","","","","",""
"","ITI","","html-keyboard-response","15","139657","0.0-1.0-18.0","0","0","31385","","null","","","null","1","","","","","","","","","","","","","","","NaN",""
"","S1","","html-keyboard-response","16","139912","0.0-1.0-20.0","0","0","31385","","null","","","null","2","","","","","","","","","","","","","","","",""
"","ISI","","html-keyboard-response","17","140916","0.0-1.0-21.0","0","0","31385","","null","","","null","2","NaN","","","","","","","","","","","","","","",""
"","S2","","html-keyboard-response","18","141171","0.0-1.0-22.0","0","0","31385","","null","","","null","2","","NaN","","","","","","","","","","","","","",""
"","response","","html-keyboard-response","19","141931","0.0-1.0-23.0-0.0","0","0","31385","","756","","","68","2","","","1","2","training","adjacent","AB","1","2","O.jpg","L.jpg","0","1","0","",""
"","feedback","","html-keyboard-response","20","142936","0.0-1.0-24.0-0.0","0","0","31385","","null","","","null","2","","","","","","","","","","","","","","","",""
"","time_out","","html-keyboard-response","21","144941","0.0-1.0-26.0-0.0","0","0","31385","","null","","","null","2","","","","","","","","","","","","","","","",""
"","ITI","","html-keyboard-response","22","145945","0.0-1.0-27.0","0","0","31385","","null","","","null","2","","","","","","","","","","","","","","","NaN",""
"","S1","","html-keyboard-response","23","146200","0.0-1.0-29.0","0","0","31385","","null","","","null","3","","","","","","","","","","","","","","","",""
"","ISI","","html-keyboard-response","24","147205","0.0-1.0-30.0","0","0","31385","","616","","","16","3","shift","","","","","","","","","","","","","","",""
"","S2","","html-keyboard-response","25","147460","0.0-1.0-31.0","0","0","31385","","null","","","null","3","","NaN","","","","","","","","","","","","","",""
"","response","","html-keyboard-response","26","147698","0.0-1.0-32.0-0.0","0","0","31385","","234","","","75","3","","","1","3","training","adjacent","BA","2","1","L.jpg","O.jpg","1","0","0","",""
"","feedback","","html-keyboard-response","27","148703","0.0-1.0-33.0-0.0","0","0","31385","","null","","","null","3","","","","","","","","","","","","","","","",""
"","time_out","","html-keyboard-response","28","150706","0.0-1.0-35.0-0.0","0","0","31385","","null","","","null","3","","","","","","","","","","","","","","","",""
"","ITI","","html-keyboard-response","29","151711","0.0-1.0-36.0","0","0","31385","","null","","","null","3","","","","","","","","","","","","","","","NaN",""
"","S1","","html-keyboard-response","30","151965","0.0-1.0-38.0","0","0","31385","","null","","","null","4","","","","","","","","","","","","","","","",""
"","ISI","","html-keyboard-response","31","152970","0.0-1.0-39.0","0","0","31385","","921","","","16","4","shift","","","","","","","","","","","","","","",""
"","S2","","html-keyboard-response","32","153224","0.0-1.0-40.0","0","0","31385","","null","","","null","4","","NaN","","","","","","","","","","","","","",""
"","response","","html-keyboard-response","33","154339","0.0-1.0-41.0-0.0","0","0","31385","","1111","","","75","4","","","1","4","training","adjacent","CD","3","4","Q.jpg","P.jpg","1","1","1","",""
"","feedback","","html-keyboard-response","34","155344","0.0-1.0-42.0-0.0","0","0","31385","","null","","","null","4","","","","","","","","","","","","","","","",""
"","ITI","","html-keyboard-response","35","156349","0.0-1.0-45.0","0","0","31385","","null","","","null","4","","","","","","","","","","","","","","","NaN",""
"","S1","","html-keyboard-response","36","156603","0.0-1.0-47.0","0","0","31385","","null","","","null","5","","","","","","","","","","","","","","","",""
"","ISI","","html-keyboard-response","37","157607","0.0-1.0-48.0","0","0","31385","","null","","","null","5","NaN","","","","","","","","","","","","","","",""
"","S2","","html-keyboard-response","38","157862","0.0-1.0-49.0","0","0","31385","","null","","","null","5","","NaN","","","","","","","","","","","","","",""
"","response","","html-keyboard-response","39","159615","0.0-1.0-50.0-0.0","0","0","31385","","null","","","null","5","","","1","5","training","adjacent","CD","3","4","Q.jpg","P.jpg","NaN","1","0","",""
"","too_slow_prompt","","html-keyboard-response","40","160618","0.0-1.0-52.0-0.0","1","0","31385","","null","","","null","","","","","","","","","","","","","","","","",""
"","time_out","","html-keyboard-response","41","162622","0.0-1.0-53.0-0.0","0","0","31385","","null","","","null","5","","","","","","","","","","","","","","","",""
"","ITI","","html-keyboard-response","42","163627","0.0-1.0-54.0","0","0","31385","","null","","","null","5","","","","","","","","","","","","","","","NaN",""
"","S1","","html-keyboard-response","43","163883","0.0-1.0-56.0","0","0","31385","","null","","","null","6","","","","","","","","","","","","","","","",""
"","ISI","","html-keyboard-response","44","164888","0.0-1.0-57.0","0","0","31385","","null","","","null","6","NaN","","","","","","","","","","","","","","",""
"","S2","","html-keyboard-response","45","165144","0.0-1.0-58.0","0","0","31385","","null","","","null","6","","NaN","","","","","","","","","","","","","",""
"","response","","html-keyboard-response","46","166898","0.0-1.0-59.0-0.0","0","0","31385","","null","","","null","6","","","1","6","training","adjacent","DC","4","3","P.jpg","Q.jpg","NaN","0","0","",""
"","too_slow_prompt","","html-keyboard-response","47","167902","0.0-1.0-61.0-0.0","1","0","31385","","null","","","null","","","","","","","","","","","","","","","","",""
"","time_out","","html-keyboard-response","48","169906","0.0-1.0-62.0-0.0","0","0","31385","","null","","","null","6","","","","","","","","","","","","","","","",""
"","ITI","","html-keyboard-response","49","170911","0.0-1.0-63.0","0","0","31385","","null","","","null","6","","","","","","","","","","","","","","","NaN",""
"","S1","","html-keyboard-response","50","171167","0.0-1.0-65.0","0","0","31385","","null","","","null","7","","","","","","","","","","","","","","","",""
"","ISI","","html-keyboard-response","51","172184","0.0-1.0-66.0","0","0","31385","","67","","","16","7","shift","","","","","","","","","","","","","","",""
"","S2","","html-keyboard-response","52","172256","0.0-1.0-67.0","0","0","31385","","66","","","75","7","","k","1","7","training","adjacent","FE","6","5","N.jpg","M.jpg","1","0","0","",""
"","feedback","","html-keyboard-response","53","173261","0.0-1.0-69.0-0.0","0","0","31385","","null","","","null","7","","","","","","","","","","","","","","","",""
"","time_out","","html-keyboard-response","54","175266","0.0-1.0-71.0-0.0","0","0","31385","","null","","","null","7","","","","","","","","","","","","","","","",""
"","ITI","","html-keyboard-response","55","176270","0.0-1.0-72.0","0","0","31385","","253","","","16","7","","","","","","","","","","","","","","","shift",""
"","S1","","html-keyboard-response","56","176525","0.0-1.0-74.0","0","0","31385","","null","","","null","8","","","","","","","","","","","","","","","",""
"","ISI","","html-keyboard-response","57","177529","0.0-1.0-75.0","0","0","31385","","416","","","16","8","shift","","","","","","","","","","","","","","",""
"","S2","","html-keyboard-response","58","177564","0.0-1.0-76.0","0","0","31385","","29","","","75","8","","k","1","8","training","adjacent","BA","2","1","L.jpg","O.jpg","1","0","0","",""
"","feedback","","html-keyboard-response","59","178569","0.0-1.0-78.0-0.0","0","0","31385","","null","","","null","8","","","","","","","","","","","","","","","",""
"","time_out","","html-keyboard-response","60","180573","0.0-1.0-80.0-0.0","0","0","31385","","null","","","null","8","","","","","","","","","","","","","","","",""
"","ITI","","html-keyboard-response","61","181578","0.0-1.0-81.0","0","0","31385","","null","","","null","8","","","","","","","","","","","","","","","NaN",""
"","S1","","html-keyboard-response","62","181834","0.0-1.0-83.0","0","0","31385","","null","","","null","9","","","","","","","","","","","","","","","",""
"","ISI","","html-keyboard-response","63","182838","0.0-1.0-84.0","0","0","31385","","565","","","16","9","shift","","","","","","","","","","","","","","",""
"","S2","","html-keyboard-response","64","183093","0.0-1.0-85.0","0","0","31385","","null","","","null","9","","NaN","","","","","","","","","","","","","",""
"","response","","html-keyboard-response","65","183694","0.0-1.0-86.0-0.0","0","0","31385","","596","","","75","9","","","1","9","training","adjacent","DE","4","5","P.jpg","M.jpg","1","1","1","",""
"","feedback","","html-keyboard-response","66","184699","0.0-1.0-87.0-0.0","0","0","31385","","null","","","null","9","","","","","","","","","","","","","","","",""
"","ITI","","html-keyboard-response","67","185704","0.0-1.0-90.0","0","0","31385","","null","","","null","9","","","","","","","","","","","","","","","NaN",""
"","S1","","html-keyboard-response","68","185958","0.0-1.0-92.0","0","0","31385","","null","","","null","10","","","","","","","","","","","","","","","",""
"","ISI","","html-keyboard-response","69","186963","0.0-1.0-93.0","0","0","31385","","null","","","null","10","NaN","","","","","","","","","","","","","","",""
"","S2","","html-keyboard-response","70","186997","0.0-1.0-94.0","0","0","31385","","29","","","68","10","","d","1","10","training","adjacent","FG","6","7","N.jpg","R.jpg","0","1","0","",""
"","feedback","","html-keyboard-response","71","188003","0.0-1.0-96.0-0.0","0","0","31385","","null","","","null","10","","","","","","","","","","","","","","","",""
"","time_out","","html-keyboard-response","72","190008","0.0-1.0-98.0-0.0","0","0","31385","","null","","","null","10","","","","","","","","","","","","","","","",""
"","ITI","","html-keyboard-response","73","191012","0.0-1.0-99.0","0","0","31385","","null","","","null","10","","","","","","","","","","","","","","","NaN",""
"","S1","","html-keyboard-response","74","191267","0.0-1.0-101.0","0","0","31385","","null","","","null","11","","","","","","","","","","","","","","","",""
"","ISI","","html-keyboard-response","75","192271","0.0-1.0-102.0","0","0","31385","","409","","","16","11","shift","","","","","","","","","","","","","","",""
"","S2","","html-keyboard-response","76","192526","0.0-1.0-103.0","0","0","31385","","null","","","null","11","","NaN","","","","","","","","","","","","","",""
"","response","","html-keyboard-response","77","192653","0.0-1.0-104.0-0.0","0","0","31385","","122","","","68","11","","","1","11","training","adjacent","FE","6","5","N.jpg","M.jpg","0","0","1","",""
"","feedback","","html-keyboard-response","78","193657","0.0-1.0-105.0-0.0","0","0","31385","","null","","","null","11","","","","","","","","","","","","","","","",""
"","ITI","","html-keyboard-response","79","194662","0.0-1.0-108.0","0","0","31385","","null","","","null","11","","","","","","","","","","","","","","","NaN",""
"","S1","","html-keyboard-response","80","194916","0.0-1.0-110.0","0","0","31385","","null","","","null","12","","","","","","","","","","","","","","","",""
"","ISI","","html-keyboard-response","81","195920","0.0-1.0-111.0","0","0","31385","","837","","","16","12","shift","","","","","","","","","","","","","","",""
"","S2","","html-keyboard-response","82","196175","0.0-1.0-112.0","0","0","31385","","null","","","null","12","","NaN","","","","","","","","","","","","","",""
"","response","","html-keyboard-response","83","196573","0.0-1.0-113.0-0.0","0","0","31385","","393","","","68","12","","","1","12","training","adjacent","CB","3","2","Q.jpg","L.jpg","0","0","1","",""
"","feedback","","html-keyboard-response","84","197578","0.0-1.0-114.0-0.0","0","0","31385","","null","","","null","12","","","","","","","","","","","","","","","",""
"","ITI","","html-keyboard-response","85","198585","0.0-1.0-117.0","0","0","31385","","null","","","null","12","","","","","","","","","","","","","","","NaN",""
"","S1","","html-keyboard-response","86","198839","0.0-1.0-119.0","0","0","31385","","null","","","null","13","","","","","","","","","","","","","","","",""
"","ISI","","html-keyboard-response","87","199843","0.0-1.0-120.0","0","0","31385","","566","","","16","13","shift","","","","","","","","","","","","","","",""
"","S2","","html-keyboard-response","88","200097","0.0-1.0-121.0","0","0","31385","","null","","","null","13","","NaN","","","","","","","","","","","","","",""
"","response","","html-keyboard-response","89","200405","0.0-1.0-122.0-0.0","0","0","31385","","302","","","68","13","","","1","13","training","adjacent","CB","3","2","Q.jpg","L.jpg","0","0","1","",""
"","feedback","","html-keyboard-response","90","201410","0.0-1.0-123.0-0.0","0","0","31385","","null","","","null","13","","","","","","","","","","","","","","","",""
"","ITI","","html-keyboard-response","91","202415","0.0-1.0-126.0","0","0","31385","","null","","","null","13","","","","","","","","","","","","","","","NaN",""
"","S1","","html-keyboard-response","92","202670","0.0-1.0-128.0","0","0","31385","","null","","","null","14","","","","","","","","","","","","","","","",""
"","ISI","","html-keyboard-response","93","203674","0.0-1.0-129.0","0","0","31385","","null","","","null","14","NaN","","","","","","","","","","","","","","",""
"","S2","","html-keyboard-response","94","203929","0.0-1.0-130.0","0","0","31385","","null","","","null","14","","NaN","","","","","","","","","","","","","",""
"","response","","html-keyboard-response","95","204391","0.0-1.0-131.0-0.0","0","0","31385","","457","","","68","14","","","1","14","training","adjacent","GF","7","6","R.jpg","N.jpg","0","0","1","",""
"","feedback","","html-keyboard-response","96","205396","0.0-1.0-132.0-0.0","0","0","31385","","null","","","null","14","","","","","","","","","","","","","","","",""
"","ITI","","html-keyboard-response","97","206401","0.0-1.0-135.0","0","0","31385","","null","","","null","14","","","","","","","","","","","","","","","NaN",""
"","S1","","html-keyboard-response","98","206655","0.0-1.0-137.0","0","0","31385","","null","","","null","15","","","","","","","","","","","","","","","",""
"","ISI","","html-keyboard-response","99","207659","0.0-1.0-138.0","0","0","31385","","null","","","null","15","NaN","","","","","","","","","","","","","","",""
"","S2","","html-keyboard-response","100","207914","0.0-1.0-139.0","0","0","31385","","null","","","null","15","","NaN","","","","","","","","","","","","","",""
"","response","","html-keyboard-response","101","208570","0.0-1.0-140.0-0.0","0","0","31385","","651","","","75","15","","","1","15","training","adjacent","BC","2","3","L.jpg","Q.jpg","1","1","1","",""
"","feedback","","html-keyboard-response","102","209574","0.0-1.0-141.0-0.0","0","0","31385","","null","","","null","15","","","","","","","","","","","","","","","",""
"","ITI","","html-keyboard-response","103","210578","0.0-1.0-144.0","0","0","31385","","null","","","null","15","","","","","","","","","","","","","","","NaN",""
"","S1","","html-keyboard-response","104","210834","0.0-1.0-146.0","0","0","31385","","null","","","null","16","","","","","","","","","","","","","","","",""
"","ISI","","html-keyboard-response","105","211838","0.0-1.0-147.0","0","0","31385","","null","","","null","16","NaN","","","","","","","","","","","","","","",""
"","S2","","html-keyboard-response","106","212093","0.0-1.0-148.0","0","0","31385","","null","","","null","16","","NaN","","","","","","","","","","","","","",""
"","response","","html-keyboard-response","107","212687","0.0-1.0-149.0-0.0","0","0","31385","","589","","","75","16","","","1","16","training","adjacent","ED","5","4","M.jpg","P.jpg","1","0","0","",""
"","feedback","","html-keyboard-response","108","213692","0.0-1.0-150.0-0.0","0","0","31385","","null","","","null","16","","","","","","","","","","","","","","","",""
"","time_out","","html-keyboard-response","109","215696","0.0-1.0-152.0-0.0","0","0","31385","","null","","","null","16","","","","","","","","","","","","","","","",""
"","ITI","","html-keyboard-response","110","216701","0.0-1.0-153.0","0","0","31385","","null","","","null","16","","","","","","","","","","","","","","","NaN",""
"","S1","","html-keyboard-response","111","216955","0.0-1.0-155.0","0","0","31385","","null","","","null","17","","","","","","","","","","","","","","","",""
"","ISI","","html-keyboard-response","112","217958","0.0-1.0-156.0","0","0","31385","","null","","","null","17","NaN","","","","","","","","","","","","","","",""
"","S2","","html-keyboard-response","113","218214","0.0-1.0-157.0","0","0","31385","","null","","","null","17","","NaN","","","","","","","","","","","","","",""
"","response","","html-keyboard-response","114","218242","0.0-1.0-158.0-0.0","0","0","31385","","23","","","68","17","","","1","17","training","adjacent","EF","5","6","M.jpg","N.jpg","0","1","0","",""
"","feedback","","html-keyboard-response","115","219248","0.0-1.0-159.0-0.0","0","0","31385","","null","","","null","17","","","","","","","","","","","","","","","",""
"","time_out","","html-keyboard-response","116","221252","0.0-1.0-161.0-0.0","0","0","31385","","null","","","null","17","","","","","","","","","","","","","","","",""
"","ITI","","html-keyboard-response","117","222256","0.0-1.0-162.0","0","0","31385","","null","","","null","17","","","","","","","","","","","","","","","NaN",""
"","S1","","html-keyboard-response","118","222510","0.0-1.0-164.0","0","0","31385","","null","","","null","18","","","","","","","","","","","","","","","",""
"","ISI","","html-keyboard-response","119","223516","0.0-1.0-165.0","0","0","31385","","null","","","null","18","NaN","","","","","","","","","","","","","","",""
"","S2","","html-keyboard-response","120","223771","0.0-1.0-166.0","0","0","31385","","null","","","null","18","","NaN","","","","","","","","","","","","","",""
"","response","","html-keyboard-response","121","224524","0.0-1.0-167.0-0.0","0","0","31385","","747","","","68","18","","","1","18","training","adjacent","DE","4","5","P.jpg","M.jpg","0","1","0","",""
"","feedback","","html-keyboard-response","122","225528","0.0-1.0-168.0-0.0","0","0","31385","","null","","","null","18","","","","","","","","","","","","","","","",""
"","time_out","","html-keyboard-response","123","227533","0.0-1.0-170.0-0.0","0","0","31385","","null","","","null","18","","","","","","","","","","","","","","","",""
"","ITI","","html-keyboard-response","124","228552","0.0-1.0-171.0","0","0","31385","","null","","","null","18","","","","","","","","","","","","","","","NaN",""
"","S1","","html-keyboard-response","125","228807","0.0-1.0-173.0","0","0","31385","","null","","","null","19","","","","","","","","","","","","","","","",""
"","ISI","","html-keyboard-response","126","229811","0.0-1.0-174.0","0","0","31385","","null","","","null","19","NaN","","","","","","","","","","","","","","",""
"","S2","","html-keyboard-response","127","230065","0.0-1.0-175.0","0","0","31385","","null","","","null","19","","NaN","","","","","","","","","","","","","",""
"","response","","html-keyboard-response","128","230751","0.0-1.0-176.0-0.0","0","0","31385","","681","","","75","19","","","1","19","training","adjacent","EF","5","6","M.jpg","N.jpg","1","1","1","",""
"","feedback","","html-keyboard-response","129","231756","0.0-1.0-177.0-0.0","0","0","31385","","null","","","null","19","","","","","","","","","","","","","","","",""
"","ITI","","html-keyboard-response","130","232761","0.0-1.0-180.0","0","0","31385","","null","","","null","19","","","","","","","","","","","","","","","NaN",""
"","S1","","html-keyboard-response","131","233030","0.0-1.0-182.0","0","0","31385","","null","","","null","20","","","","","","","","","","","","","","","",""
"","ISI","","html-keyboard-response","132","234034","0.0-1.0-183.0","0","0","31385","","null","","","null","20","NaN","","","","","","","","","","","","","","",""
"","S2","","html-keyboard-response","133","234289","0.0-1.0-184.0","0","0","31385","","null","","","null","20","","NaN","","","","","","","","","","","","","",""
"","response","","html-keyboard-response","134","235019","0.0-1.0-185.0-0.0","0","0","31385","","724","","","75","20","","","1","20","training","adjacent","GF","7","6","R.jpg","N.jpg","1","0","0","",""
"","feedback","","html-keyboard-response","135","236024","0.0-1.0-186.0-0.0","0","0","31385","","null","","","null","20","","","","","","","","","","","","","","","",""
"","time_out","","html-keyboard-response","136","238028","0.0-1.0-188.0-0.0","0","0","31385","","null","","","null","20","","","","","","","","","","","","","","","",""
"","ITI","","html-keyboard-response","137","239032","0.0-1.0-189.0","0","0","31385","","null","","","null","20","","","","","","","","","","","","","","","NaN",""
"","S1","","html-keyboard-response","138","239287","0.0-1.0-191.0","0","0","31385","","null","","","null","21","","","","","","","","","","","","","","","",""
"","ISI","","html-keyboard-response","139","240292","0.0-1.0-192.0","0","0","31385","","null","","","null","21","NaN","","","","","","","","","","","","","","",""
"","S2","","html-keyboard-response","140","240546","0.0-1.0-193.0","0","0","31385","","null","","","null","21","","NaN","","","","","","","","","","","","","",""
"","response","","html-keyboard-response","141","241068","0.0-1.0-194.0-0.0","0","0","31385","","518","","","68","21","","","1","21","training","adjacent","ED","5","4","M.jpg","P.jpg","0","0","1","",""
"","feedback","","html-keyboard-response","142","242073","0.0-1.0-195.0-0.0","0","0","31385","","null","","","null","21","","","","","","","","","","","","","","","",""
"","ITI","","html-keyboard-response","143","243077","0.0-1.0-198.0","0","0","31385","","null","","","null","21","","","","","","","","","","","","","","","NaN",""
"","S1","","html-keyboard-response","144","243332","0.0-1.0-200.0","0","0","31385","","null","","","null","22","","","","","","","","","","","","","","","",""
"","ISI","","html-keyboard-response","145","244336","0.0-1.0-201.0","0","0","31385","","null","","","null","22","NaN","","","","","","","","","","","","","","",""
"","S2","","html-keyboard-response","146","244592","0.0-1.0-202.0","0","0","31385","","null","","","null","22","","NaN","","","","","","","","","","","","","",""
"","response","","html-keyboard-response","147","245251","0.0-1.0-203.0-0.0","0","0","31385","","654","","","68","22","","","1","22","training","adjacent","FG","6","7","N.jpg","R.jpg","0","1","0","",""
"","feedback","","html-keyboard-response","148","246255","0.0-1.0-204.0-0.0","0","0","31385","","null","","","null","22","","","","","","","","","","","","","","","",""
"","time_out","","html-keyboard-response","149","248260","0.0-1.0-206.0-0.0","0","0","31385","","null","","","null","22","","","","","","","","","","","","","","","",""
"","ITI","","html-keyboard-response","150","249265","0.0-1.0-207.0","0","0","31385","","null","","","null","22","","","","","","","","","","","","","","","NaN",""
"","S1","","html-keyboard-response","151","249519","0.0-1.0-209.0","0","0","31385","","null","","","null","23","","","","","","","","","","","","","","","",""
"","ISI","","html-keyboard-response","152","250524","0.0-1.0-210.0","0","0","31385","","null","","","null","23","NaN","","","","","","","","","","","","","","",""
"","S2","","html-keyboard-response","153","250779","0.0-1.0-211.0","0","0","31385","","null","","","null","23","","NaN","","","","","","","","","","","","","",""
"","response","","html-keyboard-response","154","251261","0.0-1.0-212.0-0.0","0","0","31385","","477","","","68","23","","","1","23","training","adjacent","GF","7","6","R.jpg","N.jpg","0","0","1","",""
"","feedback","","html-keyboard-response","155","252266","0.0-1.0-213.0-0.0","0","0","31385","","null","","","null","23","","","","","","","","","","","","","","","",""
"","ITI","","html-keyboard-response","156","253270","0.0-1.0-216.0","0","0","31385","","null","","","null","23","","","","","","","","","","","","","","","NaN",""
"","S1","","html-keyboard-response","157","253525","0.0-1.0-218.0","0","0","31385","","null","","","null","24","","","","","","","","","","","","","","","",""
"","ISI","","html-keyboard-response","158","254529","0.0-1.0-219.0","0","0","31385","","null","","","null","24","NaN","","","","","","","","","","","","","","",""
"","S2","","html-keyboard-response","159","254784","0.0-1.0-220.0","0","0","31385","","null","","","null","24","","NaN","","","","","","","","","","","","","",""
"","response","","html-keyboard-response","160","256540","0.0-1.0-221.0-0.0","0","0","31385","","null","","","null","24","","","1","24","training","adjacent","BC","2","3","L.jpg","Q.jpg","NaN","1","0","",""
"","too_slow_prompt","","html-keyboard-response","161","257545","0.0-1.0-223.0-0.0","1","0","31385","","null","","","null","","","","","","","","","","","","","","","","",""
"","time_out","","html-keyboard-response","162","259550","0.0-1.0-224.0-0.0","0","0","31385","","null","","","null","24","","","","","","","","","","","","","","","",""
"","ITI","","html-keyboard-response","163","260555","0.0-1.0-225.0","0","0","31385","","null","","","null","24","","","","","","","","","","","","","","","NaN",""
"","S1","","html-keyboard-response","164","260809","0.0-1.0-227.0","0","0","31385","","null","","","null","25","","","","","","","","","","","","","","","",""
"","ISI","","html-keyboard-response","165","261813","0.0-1.0-228.0","0","0","31385","","null","","","null","25","NaN","","","","","","","","","","","","","","",""
"","S2","","html-keyboard-response","166","262068","0.0-1.0-229.0","0","0","31385","","null","","","null","25","","NaN","","","","","","","","","","","","","",""
"","response","","html-keyboard-response","167","263076","0.0-1.0-230.0-0.0","0","0","31385","","1003","","","75","25","","","1","25","training","adjacent","CD","3","4","Q.jpg","P.jpg","1","1","1","",""
"","feedback","","html-keyboard-response","168","264081","0.0-1.0-231.0-0.0","0","0","31385","","null","","","null","25","","","","","","","","","","","","","","","",""
"","ITI","","html-keyboard-response","169","265086","0.0-1.0-234.0","0","0","31385","","null","","","null","25","","","","","","","","","","","","","","","NaN",""
"","S1","","html-keyboard-response","170","265340","0.0-1.0-236.0","0","0","31385","","null","","","null","26","","","","","","","","","","","","","","","",""
"","ISI","","html-keyboard-response","171","266344","0.0-1.0-237.0","0","0","31385","","null","","","null","26","NaN","","","","","","","","","","","","","","",""
"","S2","","html-keyboard-response","172","266600","0.0-1.0-238.0","0","0","31385","","null","","","null","26","","NaN","","","","","","","","","","","","","",""
"","response","","html-keyboard-response","173","267546","0.0-1.0-239.0-0.0","0","0","31385","","941","","","75","26","","","1","26","training","adjacent","DC","4","3","P.jpg","Q.jpg","1","0","0","",""
"","feedback","","html-keyboard-response","174","268551","0.0-1.0-240.0-0.0","0","0","31385","","null","","","null","26","","","","","","","","","","","","","","","",""
"","time_out","","html-keyboard-response","175","270555","0.0-1.0-242.0-0.0","0","0","31385","","null","","","null","26","","","","","","","","","","","","","","","",""
"","ITI","","html-keyboard-response","176","271560","0.0-1.0-243.0","0","0","31385","","null","","","null","26","","","","","","","","","","","","","","","NaN",""
"","S1","","html-keyboard-response","177","271814","0.0-1.0-245.0","0","0","31385","","null","","","null","27","","","","","","","","","","","","","","","",""
"","ISI","","html-keyboard-response","178","272819","0.0-1.0-246.0","0","0","31385","","null","","","null","27","NaN","","","","","","","","","","","","","","",""
"","S2","","html-keyboard-response","179","273075","0.0-1.0-247.0","0","0","31385","","null","","","null","27","","NaN","","","","","","","","","","","","","",""
"","response","","html-keyboard-response","180","273822","0.0-1.0-248.0-0.0","0","0","31385","","741","","","68","27","","","1","27","training","adjacent","BC","2","3","L.jpg","Q.jpg","0","1","0","",""
"","feedback","","html-keyboard-response","181","274826","0.0-1.0-249.0-0.0","0","0","31385","","null","","","null","27","","","","","","","","","","","","","","","",""
"","time_out","","html-keyboard-response","182","276831","0.0-1.0-251.0-0.0","0","0","31385","","null","","","null","27","","","","","","","","","","","","","","","",""
"","ITI","","html-keyboard-response","183","277835","0.0-1.0-252.0","0","0","31385","","null","","","null","27","","","","","","","","","","","","","","","NaN",""
"","S1","","html-keyboard-response","184","278090","0.0-1.0-254.0","0","0","31385","","null","","","null","28","","","","","","","","","","","","","","","",""
"","ISI","","html-keyboard-response","185","279095","0.0-1.0-255.0","0","0","31385","","null","","","null","28","NaN","","","","","","","","","","","","","","",""
"","S2","","html-keyboard-response","186","279350","0.0-1.0-256.0","0","0","31385","","null","","","null","28","","NaN","","","","","","","","","","","","","",""
"","response","","html-keyboard-response","187","279733","0.0-1.0-257.0-0.0","0","0","31385","","378","","","68","28","","","1","28","training","adjacent","BA","2","1","L.jpg","O.jpg","0","0","1","",""
"","feedback","","html-keyboard-response","188","280738","0.0-1.0-258.0-0.0","0","0","31385","","null","","","null","28","","","","","","","","","","","","","","","",""
"","ITI","","html-keyboard-response","189","281744","0.0-1.0-261.0","0","0","31385","","null","","","null","28","","","","","","","","","","","","","","","NaN",""
"","S1","","html-keyboard-response","190","281999","0.0-1.0-263.0","0","0","31385","","null","","","null","29","","","","","","","","","","","","","","","",""
"","ISI","","html-keyboard-response","191","283004","0.0-1.0-264.0","0","0","31385","","null","","","null","29","NaN","","","","","","","","","","","","","","",""
"","S2","","html-keyboard-response","192","283258","0.0-1.0-265.0","0","0","31385","","null","","","null","29","","NaN","","","","","","","","","","","","","",""
"","response","","html-keyboard-response","193","283945","0.0-1.0-266.0-0.0","0","0","31385","","682","","","75","29","","","1","29","training","adjacent","FG","6","7","N.jpg","R.jpg","1","1","1","",""
"","feedback","","html-keyboard-response","194","284950","0.0-1.0-267.0-0.0","0","0","31385","","null","","","null","29","","","","","","","","","","","","","","","",""
"","ITI","","html-keyboard-response","195","285954","0.0-1.0-270.0","0","0","31385","","null","","","null","29","","","","","","","","","","","","","","","NaN",""
"","S1","","html-keyboard-response","196","286209","0.0-1.0-272.0","0","0","31385","","null","","","null","30","","","","","","","","","","","","","","","",""
"","ISI","","html-keyboard-response","197","287214","0.0-1.0-273.0","0","0","31385","","null","","","null","30","NaN","","","","","","","","","","","","","","",""
"","S2","","html-keyboard-response","198","287469","0.0-1.0-274.0","0","0","31385","","null","","","null","30","","NaN","","","","","","","","","","","","","",""
"","response","","html-keyboard-response","199","288210","0.0-1.0-275.0-0.0","0","0","31385","","737","","","68","30","","","1","30","training","adjacent","DC","4","3","P.jpg","Q.jpg","0","0","1","",""
"","feedback","","html-keyboard-response","200","289215","0.0-1.0-276.0-0.0","0","0","31385","","null","","","null","30","","","","","","","","","","","","","","","",""
"","ITI","","html-keyboard-response","201","290220","0.0-1.0-279.0","0","0","31385","","null","","","null","30","","","","","","","","","","","","","","","NaN",""
"","S1","","html-keyboard-response","202","290474","0.0-1.0-281.0","0","0","31385","","null","","","null","31","","","","","","","","","","","","","","","",""
"","ISI","","html-keyboard-response","203","291478","0.0-1.0-282.0","0","0","31385","","null","","","null","31","NaN","","","","","","","","","","","","","","",""
"","S2","","html-keyboard-response","204","291733","0.0-1.0-283.0","0","0","31385","","null","","","null","31","","NaN","","","","","","","","","","","","","",""
"","response","","html-keyboard-response","205","292872","0.0-1.0-284.0-0.0","0","0","31385","","1134","","","75","31","","","1","31","training","adjacent","AB","1","2","O.jpg","L.jpg","1","1","1","",""
"","feedback","","html-keyboard-response","206","293877","0.0-1.0-285.0-0.0","0","0","31385","","null","","","null","31","","","","","","","","","","","","","","","",""
"","ITI","","html-keyboard-response","207","294882","0.0-1.0-288.0","0","0","31385","","null","","","null","31","","","","","","","","","","","","","","","NaN",""
"","S1","","html-keyboard-response","208","295136","0.0-1.0-290.0","0","0","31385","","null","","","null","32","","","","","","","","","","","","","","","",""
"","ISI","","html-keyboard-response","209","296141","0.0-1.0-291.0","0","0","31385","","null","","","null","32","NaN","","","","","","","","","","","","","","",""
"","S2","","html-keyboard-response","210","296396","0.0-1.0-292.0","0","0","31385","","null","","","null","32","","NaN","","","","","","","","","","","","","",""
"","response","","html-keyboard-response","211","297445","0.0-1.0-293.0-0.0","0","0","31385","","1044","","","75","32","","","1","32","training","adjacent","CD","3","4","Q.jpg","P.jpg","1","1","1","",""
"","feedback","","html-keyboard-response","212","298450","0.0-1.0-294.0-0.0","0","0","31385","","null","","","null","32","","","","","","","","","","","","","","","",""
"","ITI","","html-keyboard-response","213","299455","0.0-1.0-297.0","0","0","31385","","null","","","null","32","","","","","","","","","","","","","","","NaN",""
"","S1","","html-keyboard-response","214","299709","0.0-1.0-299.0","0","0","31385","","null","","","null","33","","","","","","","","","","","","","","","",""
"","ISI","","html-keyboard-response","215","300713","0.0-1.0-300.0","0","0","31385","","null","","","null","33","NaN","","","","","","","","","","","","","","",""
"","S2","","html-keyboard-response","216","300968","0.0-1.0-301.0","0","0","31385","","null","","","null","33","","NaN","","","","","","","","","","","","","",""
"","response","","html-keyboard-response","217","301694","0.0-1.0-302.0-0.0","0","0","31385","","723","","","68","33","","","1","33","training","adjacent","EF","5","6","M.jpg","N.jpg","0","1","0","",""
"","feedback","","html-keyboard-response","218","302700","0.0-1.0-303.0-0.0","0","0","31385","","null","","","null","33","","","","","","","","","","","","","","","",""
"","time_out","","html-keyboard-response","219","304704","0.0-1.0-305.0-0.0","0","0","31385","","null","","","null","33","","","","","","","","","","","","","","","",""
"","ITI","","html-keyboard-response","220","305708","0.0-1.0-306.0","0","0","31385","","null","","","null","33","","","","","","","","","","","","","","","NaN",""
"","S1","","html-keyboard-response","221","305962","0.0-1.0-308.0","0","0","31385","","null","","","null","34","","","","","","","","","","","","","","","",""
"","ISI","","html-keyboard-response","222","306966","0.0-1.0-309.0","0","0","31385","","null","","","null","34","NaN","","","","","","","","","","","","","","",""
"","S2","","html-keyboard-response","223","307222","0.0-1.0-310.0","0","0","31385","","null","","","null","34","","NaN","","","","","","","","","","","","","",""
"","response","","html-keyboard-response","224","307932","0.0-1.0-311.0-0.0","0","0","31385","","704","","","68","34","","","1","34","training","adjacent","FG","6","7","N.jpg","R.jpg","0","1","0","",""
"","feedback","","html-keyboard-response","225","308938","0.0-1.0-312.0-0.0","0","0","31385","","null","","","null","34","","","","","","","","","","","","","","","",""
"","time_out","","html-keyboard-response","226","310944","0.0-1.0-314.0-0.0","0","0","31385","","null","","","null","34","","","","","","","","","","","","","","","",""
"","ITI","","html-keyboard-response","227","311948","0.0-1.0-315.0","0","0","31385","","null","","","null","34","","","","","","","","","","","","","","","NaN",""
"","S1","","html-keyboard-response","228","312203","0.0-1.0-317.0","0","0","31385","","null","","","null","35","","","","","","","","","","","","","","","",""
"","ISI","","html-keyboard-response","229","313208","0.0-1.0-318.0","0","0","31385","","null","","","null","35","NaN","","","","","","","","","","","","","","",""
"","S2","","html-keyboard-response","230","313463","0.0-1.0-319.0","0","0","31385","","null","","","null","35","","NaN","","","","","","","","","","","","","",""
"","response","","html-keyboard-response","231","313466","0.0-1.0-320.0-0.0","0","0","31385","","1","","","75","35","","","1","35","training","adjacent","ED","5","4","M.jpg","P.jpg","1","0","0","",""
"","feedback","","html-keyboard-response","232","314471","0.0-1.0-321.0-0.0","0","0","31385","","null","","","null","35","","","","","","","","","","","","","","","",""
"","time_out","","html-keyboard-response","233","316476","0.0-1.0-323.0-0.0","0","0","31385","","null","","","null","35","","","","","","","","","","","","","","","",""
"","ITI","","html-keyboard-response","234","317480","0.0-1.0-324.0","0","0","31385","","null","","","null","35","","","","","","","","","","","","","","","NaN",""
"","S1","","html-keyboard-response","235","317735","0.0-1.0-326.0","0","0","31385","","null","","","null","36","","","","","","","","","","","","","","","",""
"","ISI","","html-keyboard-response","236","318744","0.0-1.0-327.0","0","0","31385","","null","","","null","36","NaN","","","","","","","","","","","","","","",""
"","S2","","html-keyboard-response","237","319000","0.0-1.0-328.0","0","0","31385","","null","","","null","36","","NaN","","","","","","","","","","","","","",""
"","response","","html-keyboard-response","238","319745","0.0-1.0-329.0-0.0","0","0","31385","","740","","","68","36","","","1","36","training","adjacent","DC","4","3","P.jpg","Q.jpg","0","0","1","",""
"","feedback","","html-keyboard-response","239","320749","0.0-1.0-330.0-0.0","0","0","31385","","null","","","null","36","","","","","","","","","","","","","","","",""
"","ITI","","html-keyboard-response","240","321754","0.0-1.0-333.0","0","0","31385","","null","","","null","36","","","","","","","","","","","","","","","NaN",""
"","S1","","html-keyboard-response","241","322009","0.0-1.0-335.0","0","0","31385","","null","","","null","37","","","","","","","","","","","","","","","",""
"","ISI","","html-keyboard-response","242","323014","0.0-1.0-336.0","0","0","31385","","null","","","null","37","NaN","","","","","","","","","","","","","","",""
"","S2","","html-keyboard-response","243","323269","0.0-1.0-337.0","0","0","31385","","null","","","null","37","","NaN","","","","","","","","","","","","","",""
"","response","","html-keyboard-response","244","324221","0.0-1.0-338.0-0.0","0","0","31385","","947","","","68","37","","","1","37","training","adjacent","ED","5","4","M.jpg","P.jpg","0","0","1","",""
"","feedback","","html-keyboard-response","245","325227","0.0-1.0-339.0-0.0","0","0","31385","","null","","","null","37","","","","","","","","","","","","","","","",""
"","ITI","","html-keyboard-response","246","326233","0.0-1.0-342.0","0","0","31385","","null","","","null","37","","","","","","","","","","","","","","","NaN",""
"","S1","","html-keyboard-response","247","326488","0.0-1.0-344.0","0","0","31385","","null","","","null","38","","","","","","","","","","","","","","","",""
"","ISI","","html-keyboard-response","248","327492","0.0-1.0-345.0","0","0","31385","","null","","","null","38","NaN","","","","","","","","","","","","","","",""
"","S2","","html-keyboard-response","249","327747","0.0-1.0-346.0","0","0","31385","","null","","","null","38","","NaN","","","","","","","","","","","","","",""
"","response","","html-keyboard-response","250","328631","0.0-1.0-347.0-0.0","0","0","31385","","879","","","68","38","","","1","38","training","adjacent","GF","7","6","R.jpg","N.jpg","0","0","1","",""
"","feedback","","html-keyboard-response","251","329636","0.0-1.0-348.0-0.0","0","0","31385","","null","","","null","38","","","","","","","","","","","","","","","",""
"","ITI","","html-keyboard-response","252","330640","0.0-1.0-351.0","0","0","31385","","null","","","null","38","","","","","","","","","","","","","","","NaN",""
"","S1","","html-keyboard-response","253","330894","0.0-1.0-353.0","0","0","31385","","null","","","null","39","","","","","","","","","","","","","","","",""
"","ISI","","html-keyboard-response","254","331899","0.0-1.0-354.0","0","0","31385","","null","","","null","39","NaN","","","","","","","","","","","","","","",""
"","S2","","html-keyboard-response","255","332153","0.0-1.0-355.0","0","0","31385","","null","","","null","39","","NaN","","","","","","","","","","","","","",""
"","response","","html-keyboard-response","256","332934","0.0-1.0-356.0-0.0","0","0","31385","","775","","","68","39","","","1","39","training","adjacent","BC","2","3","L.jpg","Q.jpg","0","1","0","",""
"","feedback","","html-keyboard-response","257","333939","0.0-1.0-357.0-0.0","0","0","31385","","null","","","null","39","","","","","","","","","","","","","","","",""
"","time_out","","html-keyboard-response","258","335943","0.0-1.0-359.0-0.0","0","0","31385","","null","","","null","39","","","","","","","","","","","","","","","",""
"","ITI","","html-keyboard-response","259","336948","0.0-1.0-360.0","0","0","31385","","null","","","null","39","","","","","","","","","","","","","","","NaN",""
"","S1","","html-keyboard-response","260","337202","0.0-1.0-362.0","0","0","31385","","null","","","null","40","","","","","","","","","","","","","","","",""
"","ISI","","html-keyboard-response","261","338206","0.0-1.0-363.0","0","0","31385","","null","","","null","40","NaN","","","","","","","","","","","","","","",""
"","S2","","html-keyboard-response","262","338460","0.0-1.0-364.0","0","0","31385","","null","","","null","40","","NaN","","","","","","","","","","","","","",""
"","response","","html-keyboard-response","263","339303","0.0-1.0-365.0-0.0","0","0","31385","","838","","","75","40","","","1","40","training","adjacent","AB","1","2","O.jpg","L.jpg","1","1","1","",""
"","feedback","","html-keyboard-response","264","340308","0.0-1.0-366.0-0.0","0","0","31385","","null","","","null","40","","","","","","","","","","","","","","","",""
"","ITI","","html-keyboard-response","265","341313","0.0-1.0-369.0","0","0","31385","","null","","","null","40","","","","","","","","","","","","","","","NaN",""
"","S1","","html-keyboard-response","266","341568","0.0-1.0-371.0","0","0","31385","","null","","","null","41","","","","","","","","","","","","","","","",""
"","ISI","","html-keyboard-response","267","342572","0.0-1.0-372.0","0","0","31385","","null","","","null","41","NaN","","","","","","","","","","","","","","",""
"","S2","","html-keyboard-response","268","342827","0.0-1.0-373.0","0","0","31385","","null","","","null","41","","NaN","","","","","","","","","","","","","",""
"","response","","html-keyboard-response","269","343775","0.0-1.0-374.0-0.0","0","0","31385","","943","","","75","41","","","1","41","training","adjacent","FE","6","5","N.jpg","M.jpg","1","0","0","",""
"","feedback","","html-keyboard-response","270","344780","0.0-1.0-375.0-0.0","0","0","31385","","null","","","null","41","","","","","","","","","","","","","","","",""
"","time_out","","html-keyboard-response","271","346785","0.0-1.0-377.0-0.0","0","0","31385","","null","","","null","41","","","","","","","","","","","","","","","",""
"","ITI","","html-keyboard-response","272","347790","0.0-1.0-378.0","0","0","31385","","null","","","null","41","","","","","","","","","","","","","","","NaN",""
"","S1","","html-keyboard-response","273","348045","0.0-1.0-380.0","0","0","31385","","null","","","null","42","","","","","","","","","","","","","","","",""
"","ISI","","html-keyboard-response","274","349049","0.0-1.0-381.0","0","0","31385","","null","","","null","42","NaN","","","","","","","","","","","","","","",""
"","S2","","html-keyboard-response","275","349304","0.0-1.0-382.0","0","0","31385","","null","","","null","42","","NaN","","","","","","","","","","","","","",""
"","response","","html-keyboard-response","276","350232","0.0-1.0-383.0-0.0","0","0","31385","","923","","","75","42","","","1","42","training","adjacent","DE","4","5","P.jpg","M.jpg","1","1","1","",""
"","feedback","","html-keyboard-response","277","351237","0.0-1.0-384.0-0.0","0","0","31385","","null","","","null","42","","","","","","","","","","","","","","","",""
"","ITI","","html-keyboard-response","278","352242","0.0-1.0-387.0","0","0","31385","","null","","","null","42","","","","","","","","","","","","","","","NaN",""
"","S1","","html-keyboard-response","279","352496","0.0-1.0-389.0","0","0","31385","","null","","","null","43","","","","","","","","","","","","","","","",""
"","ISI","","html-keyboard-response","280","353500","0.0-1.0-390.0","0","0","31385","","null","","","null","43","NaN","","","","","","","","","","","","","","",""
"","S2","","html-keyboard-response","281","353755","0.0-1.0-391.0","0","0","31385","","null","","","null","43","","NaN","","","","","","","","","","","","","",""
"","response","","html-keyboard-response","282","354614","0.0-1.0-392.0-0.0","0","0","31385","","854","","","75","43","","","1","43","training","adjacent","CB","3","2","Q.jpg","L.jpg","1","0","0","",""
"","feedback","","html-keyboard-response","283","355626","0.0-1.0-393.0-0.0","0","0","31385","","null","","","null","43","","","","","","","","","","","","","","","",""
"","time_out","","html-keyboard-response","284","357630","0.0-1.0-395.0-0.0","0","0","31385","","null","","","null","43","","","","","","","","","","","","","","","",""
"","ITI","","html-keyboard-response","285","358635","0.0-1.0-396.0","0","0","31385","","null","","","null","43","","","","","","","","","","","","","","","NaN",""
"","S1","","html-keyboard-response","286","358889","0.0-1.0-398.0","0","0","31385","","null","","","null","44","","","","","","","","","","","","","","","",""
"","ISI","","html-keyboard-response","287","359894","0.0-1.0-399.0","0","0","31385","","null","","","null","44","NaN","","","","","","","","","","","","","","",""
"","S2","","html-keyboard-response","288","360149","0.0-1.0-400.0","0","0","31385","","null","","","null","44","","NaN","","","","","","","","","","","","","",""
"","response","","html-keyboard-response","289","361903","0.0-1.0-401.0-0.0","0","0","31385","","null","","","null","44","","","1","44","training","adjacent","EF","5","6","M.jpg","N.jpg","NaN","1","0","",""
"","too_slow_prompt","","html-keyboard-response","290","362907","0.0-1.0-403.0-0.0","1","0","31385","","null","","","null","","","","","","","","","","","","","","","","",""
"","time_out","","html-keyboard-response","291","364912","0.0-1.0-404.0-0.0","0","0","31385","","null","","","null","44","","","","","","","","","","","","","","","",""
"","ITI","","html-keyboard-response","292","365916","0.0-1.0-405.0","0","0","31385","","null","","","null","44","","","","","","","","","","","","","","","NaN",""
"","S1","","html-keyboard-response","293","366171","0.0-1.0-407.0","0","0","31385","","null","","","null","45","","","","","","","","","","","","","","","",""
"","ISI","","html-keyboard-response","294","367175","0.0-1.0-408.0","0","0","31385","","628","","","16","45","shift","","","","","","","","","","","","","","",""
"","S2","","html-keyboard-response","295","367431","0.0-1.0-409.0","0","0","31385","","null","","","null","45","","NaN","","","","","","","","","","","","","",""
"","response","","html-keyboard-response","296","368132","0.0-1.0-410.0-0.0","0","0","31385","","696","","","68","45","","","1","45","training","adjacent","AB","1","2","O.jpg","L.jpg","0","1","0","",""
"","feedback","","html-keyboard-response","297","369138","0.0-1.0-411.0-0.0","0","0","31385","","null","","","null","45","","","","","","","","","","","","","","","",""
"","time_out","","html-keyboard-response","298","371144","0.0-1.0-413.0-0.0","0","0","31385","","null","","","null","45","","","","","","","","","","","","","","","",""
"","ITI","","html-keyboard-response","299","372149","0.0-1.0-414.0","0","0","31385","","null","","","null","45","","","","","","","","","","","","","","","NaN",""
"","S1","","html-keyboard-response","300","372404","0.0-1.0-416.0","0","0","31385","","null","","","null","46","","","","","","","","","","","","","","","",""
"","ISI","","html-keyboard-response","301","373410","0.0-1.0-417.0","0","0","31385","","null","","","null","46","NaN","","","","","","","","","","","","","","",""
"","S2","","html-keyboard-response","302","373665","0.0-1.0-418.0","0","0","31385","","null","","","null","46","","NaN","","","","","","","","","","","","","",""
"","response","","html-keyboard-response","303","374222","0.0-1.0-419.0-0.0","0","0","31385","","552","","","75","46","","","1","46","training","adjacent","BA","2","1","L.jpg","O.jpg","1","0","0","",""
"","feedback","","html-keyboard-response","304","375227","0.0-1.0-420.0-0.0","0","0","31385","","null","","","null","46","","","","","","","","","","","","","","","",""
"","time_out","","html-keyboard-response","305","377232","0.0-1.0-422.0-0.0","0","0","31385","","null","","","null","46","","","","","","","","","","","","","","","",""
"","ITI","","html-keyboard-response","306","378237","0.0-1.0-423.0","0","0","31385","","null","","","null","46","","","","","","","","","","","","","","","NaN",""
"","S1","","html-keyboard-response","307","378493","0.0-1.0-425.0","0","0","31385","","null","","","null","47","","","","","","","","","","","","","","","",""
"","ISI","","html-keyboard-response","308","379497","0.0-1.0-426.0","0","0","31385","","null","","","null","47","NaN","","","","","","","","","","","","","","",""
"","S2","","html-keyboard-response","309","379752","0.0-1.0-427.0","0","0","31385","","null","","","null","47","","NaN","","","","","","","","","","","","","",""
"","response","","html-keyboard-response","310","380343","0.0-1.0-428.0-0.0","0","0","31385","","586","","","75","47","","","1","47","training","adjacent","FE","6","5","N.jpg","M.jpg","1","0","0","",""
"","feedback","","html-keyboard-response","311","381348","0.0-1.0-429.0-0.0","0","0","31385","","null","","","null","47","","","","","","","","","","","","","","","",""
"","time_out","","html-keyboard-response","312","383353","0.0-1.0-431.0-0.0","0","0","31385","","null","","","null","47","","","","","","","","","","","","","","","",""
"","ITI","","html-keyboard-response","313","384357","0.0-1.0-432.0","0","0","31385","","null","","","null","47","","","","","","","","","","","","","","","NaN",""
"","block_over","","html-keyboard-response","314","390660","0.0-1.0-433.0-0.0","0","0","31385","","6297","","","32","47","","","","","","","","","","","","","","","",""
"","S1","","html-keyboard-response","315","390915","0.0-1.0-434.0","0","0","31385","","null","","","null","48","","","","","","","","","","","","","","","",""
"","ISI","","html-keyboard-response","316","391919","0.0-1.0-435.0","0","0","31385","","null","","","null","48","NaN","","","","","","","","","","","","","","",""
"","S2","","html-keyboard-response","317","392174","0.0-1.0-436.0","0","0","31385","","null","","","null","48","","NaN","","","","","","","","","","","","","",""
"","response","","html-keyboard-response","318","393904","0.0-1.0-437.0-0.0","0","0","31385","","1724","","","75","48","","","2","48","training","adjacent","DC","4","3","P.jpg","Q.jpg","1","0","0","",""
"","feedback","","html-keyboard-response","319","394910","0.0-1.0-438.0-0.0","0","0","31385","","null","","","null","48","","","","","","","","","","","","","","","",""
"","time_out","","html-keyboard-response","320","396914","0.0-1.0-440.0-0.0","0","0","31385","","null","","","null","48","","","","","","","","","","","","","","","",""
"","ITI","","html-keyboard-response","321","397918","0.0-1.0-441.0","0","0","31385","","null","","","null","48","","","","","","","","","","","","","","","NaN",""
"","S1","","html-keyboard-response","322","398173","0.0-1.0-443.0","0","0","31385","","null","","","null","49","","","","","","","","","","","","","","","",""
"","ISI","","html-keyboard-response","323","399177","0.0-1.0-444.0","0","0","31385","","null","","","null","49","NaN","","","","","","","","","","","","","","",""
"","S2","","html-keyboard-response","324","399431","0.0-1.0-445.0","0","0","31385","","null","","","null","49","","NaN","","","","","","","","","","","","","",""
"","response","","html-keyboard-response","325","400229","0.0-1.0-446.0-0.0","0","0","31385","","793","","","68","49","","","2","49","training","adjacent","EF","5","6","M.jpg","N.jpg","0","1","0","",""
"","feedback","","html-keyboard-response","326","401234","0.0-1.0-447.0-0.0","0","0","31385","","null","","","null","49","","","","","","","","","","","","","","","",""
"","time_out","","html-keyboard-response","327","403239","0.0-1.0-449.0-0.0","0","0","31385","","null","","","null","49","","","","","","","","","","","","","","","",""
"","ITI","","html-keyboard-response","328","404243","0.0-1.0-450.0","0","0","31385","","null","","","null","49","","","","","","","","","","","","","","","NaN",""
"","S1","","html-keyboard-response","329","404498","0.0-1.0-452.0","0","0","31385","","null","","","null","50","","","","","","","","","","","","","","","",""
"","ISI","","html-keyboard-response","330","405503","0.0-1.0-453.0","0","0","31385","","null","","","null","50","NaN","","","","","","","","","","","","","","",""
"","S2","","html-keyboard-response","331","405758","0.0-1.0-454.0","0","0","31385","","null","","","null","50","","NaN","","","","","","","","","","","","","",""
"","response","","html-keyboard-response","332","407097","0.0-1.0-455.0-0.0","0","0","31385","","1334","","","68","50","","","2","50","training","adjacent","DE","4","5","P.jpg","M.jpg","0","1","0","",""
"","feedback","","html-keyboard-response","333","408102","0.0-1.0-456.0-0.0","0","0","31385","","null","","","null","50","","","","","","","","","","","","","","","",""
"","time_out","","html-keyboard-response","334","410106","0.0-1.0-458.0-0.0","0","0","31385","","null","","","null","50","","","","","","","","","","","","","","","",""
"","ITI","","html-keyboard-response","335","411111","0.0-1.0-459.0","0","0","31385","","null","","","null","50","","","","","","","","","","","","","","","NaN",""
"","S1","","html-keyboard-response","336","411367","0.0-1.0-461.0","0","0","31385","","null","","","null","51","","","","","","","","","","","","","","","",""
"","ISI","","html-keyboard-response","337","412371","0.0-1.0-462.0","0","0","31385","","null","","","null","51","NaN","","","","","","","","","","","","","","",""
"","S2","","html-keyboard-response","338","412626","0.0-1.0-463.0","0","0","31385","","null","","","null","51","","NaN","","","","","","","","","","","","","",""
"","response","","html-keyboard-response","339","413412","0.0-1.0-464.0-0.0","0","0","31385","","782","","","68","51","","","2","51","training","adjacent","CD","3","4","Q.jpg","P.jpg","0","1","0","",""
"","feedback","","html-keyboard-response","340","414417","0.0-1.0-465.0-0.0","0","0","31385","","null","","","null","51","","","","","","","","","","","","","","","",""
"","time_out","","html-keyboard-response","341","416422","0.0-1.0-467.0-0.0","0","0","31385","","null","","","null","51","","","","","","","","","","","","","","","",""
"","ITI","","html-keyboard-response","342","417426","0.0-1.0-468.0","0","0","31385","","null","","","null","51","","","","","","","","","","","","","","","NaN",""
"","S1","","html-keyboard-response","343","417682","0.0-1.0-470.0","0","0","31385","","null","","","null","52","","","","","","","","","","","","","","","",""
"","ISI","","html-keyboard-response","344","418685","0.0-1.0-471.0","0","0","31385","","null","","","null","52","NaN","","","","","","","","","","","","","","",""
"","S2","","html-keyboard-response","345","418940","0.0-1.0-472.0","0","0","31385","","null","","","null","52","","NaN","","","","","","","","","","","","","",""
"","response","","html-keyboard-response","346","419677","0.0-1.0-473.0-0.0","0","0","31385","","732","","","75","52","","","2","52","training","adjacent","ED","5","4","M.jpg","P.jpg","1","0","0","",""
"","feedback","","html-keyboard-response","347","420683","0.0-1.0-474.0-0.0","0","0","31385","","null","","","null","52","","","","","","","","","","","","","","","",""
"","time_out","","html-keyboard-response","348","422688","0.0-1.0-476.0-0.0","0","0","31385","","null","","","null","52","","","","","","","","","","","","","","","",""
"","ITI","","html-keyboard-response","349","423691","0.0-1.0-477.0","0","0","31385","","null","","","null","52","","","","","","","","","","","","","","","NaN",""
"","S1","","html-keyboard-response","350","423947","0.0-1.0-479.0","0","0","31385","","null","","","null","53","","","","","","","","","","","","","","","",""
"","ISI","","html-keyboard-response","351","424950","0.0-1.0-480.0","0","0","31385","","null","","","null","53","NaN","","","","","","","","","","","","","","",""
"","S2","","html-keyboard-response","352","425205","0.0-1.0-481.0","0","0","31385","","null","","","null","53","","NaN","","","","","","","","","","","","","",""
"","response","","html-keyboard-response","353","425809","0.0-1.0-482.0-0.0","0","0","31385","","600","","","75","53","","","2","53","training","adjacent","CB","3","2","Q.jpg","L.jpg","1","0","0","",""
"","feedback","","html-keyboard-response","354","426814","0.0-1.0-483.0-0.0","0","0","31385","","null","","","null","53","","","","","","","","","","","","","","","",""
"","time_out","","html-keyboard-response","355","428819","0.0-1.0-485.0-0.0","0","0","31385","","null","","","null","53","","","","","","","","","","","","","","","",""
"","ITI","","html-keyboard-response","356","429824","0.0-1.0-486.0","0","0","31385","","null","","","null","53","","","","","","","","","","","","","","","NaN",""
"","S1","","html-keyboard-response","357","430079","0.0-1.0-488.0","0","0","31385","","null","","","null","54","","","","","","","","","","","","","","","",""
"","ISI","","html-keyboard-response","358","431083","0.0-1.0-489.0","0","0","31385","","null","","","null","54","NaN","","","","","","","","","","","","","","",""
"","S2","","html-keyboard-response","359","431337","0.0-1.0-490.0","0","0","31385","","null","","","null","54","","NaN","","","","","","","","","","","","","",""
"","response","","html-keyboard-response","360","431974","0.0-1.0-491.0-0.0","0","0","31385","","633","","","68","54","","","2","54","training","adjacent","AB","1","2","O.jpg","L.jpg","0","1","0","",""
"","feedback","","html-keyboard-response","361","432981","0.0-1.0-492.0-0.0","0","0","31385","","null","","","null","54","","","","","","","","","","","","","","","",""
"","time_out","","html-keyboard-response","362","434985","0.0-1.0-494.0-0.0","0","0","31385","","null","","","null","54","","","","","","","","","","","","","","","",""
"","ITI","","html-keyboard-response","363","435990","0.0-1.0-495.0","0","0","31385","","null","","","null","54","","","","","","","","","","","","","","","NaN",""
"","S1","","html-keyboard-response","364","436244","0.0-1.0-497.0","0","0","31385","","null","","","null","55","","","","","","","","","","","","","","","",""
"","ISI","","html-keyboard-response","365","437248","0.0-1.0-498.0","0","0","31385","","null","","","null","55","NaN","","","","","","","","","","","","","","",""
"","S2","","html-keyboard-response","366","437504","0.0-1.0-499.0","0","0","31385","","null","","","null","55","","NaN","","","","","","","","","","","","","",""
"","response","","html-keyboard-response","367","438028","0.0-1.0-500.0-0.0","0","0","31385","","519","","","68","55","","","2","55","training","adjacent","GF","7","6","R.jpg","N.jpg","0","0","1","",""
"","feedback","","html-keyboard-response","368","439044","0.0-1.0-501.0-0.0","0","0","31385","","null","","","null","55","","","","","","","","","","","","","","","",""
"","ITI","","html-keyboard-response","369","440049","0.0-1.0-504.0","0","0","31385","","null","","","null","55","","","","","","","","","","","","","","","NaN",""
"","S1","","html-keyboard-response","370","440304","0.0-1.0-506.0","0","0","31385","","null","","","null","56","","","","","","","","","","","","","","","",""
"","ISI","","html-keyboard-response","371","441308","0.0-1.0-507.0","0","0","31385","","null","","","null","56","NaN","","","","","","","","","","","","","","",""
"","S2","","html-keyboard-response","372","441563","0.0-1.0-508.0","0","0","31385","","null","","","null","56","","NaN","","","","","","","","","","","","","",""
"","response","","html-keyboard-response","373","442391","0.0-1.0-509.0-0.0","0","0","31385","","825","","","68","56","","","2","56","training","adjacent","EF","5","6","M.jpg","N.jpg","0","1","0","",""
"","feedback","","html-keyboard-response","374","443395","0.0-1.0-510.0-0.0","0","0","31385","","null","","","null","56","","","","","","","","","","","","","","","",""
"","time_out","","html-keyboard-response","375","445399","0.0-1.0-512.0-0.0","0","0","31385","","null","","","null","56","","","","","","","","","","","","","","","",""
"","ITI","","html-keyboard-response","376","446404","0.0-1.0-513.0","0","0","31385","","null","","","null","56","","","","","","","","","","","","","","","NaN",""
"","S1","","html-keyboard-response","377","446658","0.0-1.0-515.0","0","0","31385","","null","","","null","57","","","","","","","","","","","","","","","",""
"","ISI","","html-keyboard-response","378","447662","0.0-1.0-516.0","0","0","31385","","null","","","null","57","NaN","","","","","","","","","","","","","","",""
"","S2","","html-keyboard-response","379","447917","0.0-1.0-517.0","0","0","31385","","null","","","null","57","","NaN","","","","","","","","","","","","","",""
"","response","","html-keyboard-response","380","448691","0.0-1.0-518.0-0.0","0","0","31385","","769","","","75","57","","","2","57","training","adjacent","DE","4","5","P.jpg","M.jpg","1","1","1","",""
"","feedback","","html-keyboard-response","381","449696","0.0-1.0-519.0-0.0","0","0","31385","","null","","","null","57","","","","","","","","","","","","","","","",""
"","ITI","","html-keyboard-response","382","450701","0.0-1.0-522.0","0","0","31385","","null","","","null","57","","","","","","","","","","","","","","","NaN",""
"","S1","","html-keyboard-response","383","450957","0.0-1.0-524.0","0","0","31385","","null","","","null","58","","","","","","","","","","","","","","","",""
"","ISI","","html-keyboard-response","384","451962","0.0-1.0-525.0","0","0","31385","","null","","","null","58","NaN","","","","","","","","","","","","","","",""
"","S2","","html-keyboard-response","385","452216","0.0-1.0-526.0","0","0","31385","","null","","","null","58","","NaN","","","","","","","","","","","","","",""
"","response","","html-keyboard-response","386","453869","0.0-1.0-527.0-0.0","0","0","31385","","1648","","","75","58","","","2","58","training","adjacent","FE","6","5","N.jpg","M.jpg","1","0","0","",""
"","feedback","","html-keyboard-response","387","454874","0.0-1.0-528.0-0.0","0","0","31385","","null","","","null","58","","","","","","","","","","","","","","","",""
"","time_out","","html-keyboard-response","388","456879","0.0-1.0-530.0-0.0","0","0","31385","","null","","","null","58","","","","","","","","","","","","","","","",""
"","ITI","","html-keyboard-response","389","457883","0.0-1.0-531.0","0","0","31385","","null","","","null","58","","","","","","","","","","","","","","","NaN",""
"","S1","","html-keyboard-response","390","458138","0.0-1.0-533.0","0","0","31385","","null","","","null","59","","","","","","","","","","","","","","","",""
"","ISI","","html-keyboard-response","391","459143","0.0-1.0-534.0","0","0","31385","","null","","","null","59","NaN","","","","","","","","","","","","","","",""
"","S2","","html-keyboard-response","392","459398","0.0-1.0-535.0","0","0","31385","","null","","","null","59","","NaN","","","","","","","","","","","","","",""
"","response","","html-keyboard-response","393","460193","0.0-1.0-536.0-0.0","0","0","31385","","788","","","68","59","","","2","59","training","adjacent","FG","6","7","N.jpg","R.jpg","0","1","0","",""
"","feedback","","html-keyboard-response","394","461205","0.0-1.0-537.0-0.0","0","0","31385","","null","","","null","59","","","","","","","","","","","","","","","",""
"","time_out","","html-keyboard-response","395","463210","0.0-1.0-539.0-0.0","0","0","31385","","null","","","null","59","","","","","","","","","","","","","","","",""
"","ITI","","html-keyboard-response","396","464214","0.0-1.0-540.0","0","0","31385","","null","","","null","59","","","","","","","","","","","","","","","NaN",""
"","S1","","html-keyboard-response","397","464469","0.0-1.0-542.0","0","0","31385","","null","","","null","60","","","","","","","","","","","","","","","",""
"","ISI","","html-keyboard-response","398","465473","0.0-1.0-543.0","0","0","31385","","null","","","null","60","NaN","","","","","","","","","","","","","","",""
"","S2","","html-keyboard-response","399","465728","0.0-1.0-544.0","0","0","31385","","null","","","null","60","","NaN","","","","","","","","","","","","","",""
"","response","","html-keyboard-response","400","466714","0.0-1.0-545.0-0.0","0","0","31385","","980","","","75","60","","","2","60","training","adjacent","GF","7","6","R.jpg","N.jpg","1","0","0","",""
"","feedback","","html-keyboard-response","401","467720","0.0-1.0-546.0-0.0","0","0","31385","","null","","","null","60","","","","","","","","","","","","","","","",""
"","time_out","","html-keyboard-response","402","469725","0.0-1.0-548.0-0.0","0","0","31385","","null","","","null","60","","","","","","","","","","","","","","","",""
"","ITI","","html-keyboard-response","403","470730","0.0-1.0-549.0","0","0","31385","","null","","","null","60","","","","","","","","","","","","","","","NaN",""
"","S1","","html-keyboard-response","404","470985","0.0-1.0-551.0","0","0","31385","","null","","","null","61","","","","","","","","","","","","","","","",""
"","ISI","","html-keyboard-response","405","471990","0.0-1.0-552.0","0","0","31385","","null","","","null","61","NaN","","","","","","","","","","","","","","",""
"","S2","","html-keyboard-response","406","472246","0.0-1.0-553.0","0","0","31385","","null","","","null","61","","NaN","","","","","","","","","","","","","",""
"","response","","html-keyboard-response","407","473053","0.0-1.0-554.0-0.0","0","0","31385","","803","","","68","61","","","2","61","training","adjacent","FG","6","7","N.jpg","R.jpg","0","1","0","",""
"","feedback","","html-keyboard-response","408","474059","0.0-1.0-555.0-0.0","0","0","31385","","null","","","null","61","","","","","","","","","","","","","","","",""
"","time_out","","html-keyboard-response","409","476064","0.0-1.0-557.0-0.0","0","0","31385","","null","","","null","61","","","","","","","","","","","","","","","",""
"","ITI","","html-keyboard-response","410","477068","0.0-1.0-558.0","0","0","31385","","null","","","null","61","","","","","","","","","","","","","","","NaN",""
"","S1","","html-keyboard-response","411","477323","0.0-1.0-560.0","0","0","31385","","null","","","null","62","","","","","","","","","","","","","","","",""
"","ISI","","html-keyboard-response","412","478326","0.0-1.0-561.0","0","0","31385","","null","","","null","62","NaN","","","","","","","","","","","","","","",""
"","S2","","html-keyboard-response","413","478583","0.0-1.0-562.0","0","0","31385","","null","","","null","62","","NaN","","","","","","","","","","","","","",""
"","response","","html-keyboard-response","414","478619","0.0-1.0-563.0-0.0","0","0","31385","","33","","","68","62","","","2","62","training","adjacent","AB","1","2","O.jpg","L.jpg","0","1","0","",""
"","feedback","","html-keyboard-response","415","479625","0.0-1.0-564.0-0.0","0","0","31385","","null","","","null","62","","","","","","","","","","","","","","","",""
"","time_out","","html-keyboard-response","416","481628","0.0-1.0-566.0-0.0","0","0","31385","","null","","","null","62","","","","","","","","","","","","","","","",""
"","ITI","","html-keyboard-response","417","482632","0.0-1.0-567.0","0","0","31385","","null","","","null","62","","","","","","","","","","","","","","","NaN",""
"","S1","","html-keyboard-response","418","482892","0.0-1.0-569.0","0","0","31385","","null","","","null","63","","","","","","","","","","","","","","","",""
"","ISI","","html-keyboard-response","419","483898","0.0-1.0-570.0","0","0","31385","","null","","","null","63","NaN","","","","","","","","","","","","","","",""
"","S2","","html-keyboard-response","420","484153","0.0-1.0-571.0","0","0","31385","","null","","","null","63","","NaN","","","","","","","","","","","","","",""
"","response","","html-keyboard-response","421","484715","0.0-1.0-572.0-0.0","0","0","31385","","557","","","68","63","","","2","63","training","adjacent","ED","5","4","M.jpg","P.jpg","0","0","1","",""
"","feedback","","html-keyboard-response","422","485721","0.0-1.0-573.0-0.0","0","0","31385","","null","","","null","63","","","","","","","","","","","","","","","",""
"","ITI","","html-keyboard-response","423","486726","0.0-1.0-576.0","0","0","31385","","null","","","null","63","","","","","","","","","","","","","","","NaN",""
"","S1","","html-keyboard-response","424","486981","0.0-1.0-578.0","0","0","31385","","null","","","null","64","","","","","","","","","","","","","","","",""
"","ISI","","html-keyboard-response","425","487985","0.0-1.0-579.0","0","0","31385","","null","","","null","64","NaN","","","","","","","","","","","","","","",""
"","S2","","html-keyboard-response","426","488240","0.0-1.0-580.0","0","0","31385","","null","","","null","64","","NaN","","","","","","","","","","","","","",""
"","response","","html-keyboard-response","427","488967","0.0-1.0-581.0-0.0","0","0","31385","","722","","","75","64","","","2","64","training","adjacent","GF","7","6","R.jpg","N.jpg","1","0","0","",""
"","feedback","","html-keyboard-response","428","489972","0.0-1.0-582.0-0.0","0","0","31385","","null","","","null","64","","","","","","","","","","","","","","","",""
"","time_out","","html-keyboard-response","429","491977","0.0-1.0-584.0-0.0","0","0","31385","","null","","","null","64","","","","","","","","","","","","","","","",""
"","ITI","","html-keyboard-response","430","492983","0.0-1.0-585.0","0","0","31385","","null","","","null","64","","","","","","","","","","","","","","","NaN",""
"","S1","","html-keyboard-response","431","493237","0.0-1.0-587.0","0","0","31385","","null","","","null","65","","","","","","","","","","","","","","","",""
"","ISI","","html-keyboard-response","432","494242","0.0-1.0-588.0","0","0","31385","","null","","","null","65","NaN","","","","","","","","","","","","","","",""
"","S2","","html-keyboard-response","433","494496","0.0-1.0-589.0","0","0","31385","","null","","","null","65","","NaN","","","","","","","","","","","","","",""
"","response","","html-keyboard-response","434","494809","0.0-1.0-590.0-0.0","0","0","31385","","307","","","75","65","","","2","65","training","adjacent","AB","1","2","O.jpg","L.jpg","1","1","1","",""
"","feedback","","html-keyboard-response","435","495815","0.0-1.0-591.0-0.0","0","0","31385","","null","","","null","65","","","","","","","","","","","","","","","",""
"","ITI","","html-keyboard-response","436","496820","0.0-1.0-594.0","0","0","31385","","null","","","null","65","","","","","","","","","","","","","","","NaN",""
"","S1","","html-keyboard-response","437","497075","0.0-1.0-596.0","0","0","31385","","null","","","null","66","","","","","","","","","","","","","","","",""
"","ISI","","html-keyboard-response","438","498080","0.0-1.0-597.0","0","0","31385","","null","","","null","66","NaN","","","","","","","","","","","","","","",""
"","S2","","html-keyboard-response","439","498334","0.0-1.0-598.0","0","0","31385","","null","","","null","66","","NaN","","","","","","","","","","","","","",""
"","response","","html-keyboard-response","440","499006","0.0-1.0-599.0-0.0","0","0","31385","","667","","","68","66","","","2","66","training","adjacent","EF","5","6","M.jpg","N.jpg","0","1","0","",""
"","feedback","","html-keyboard-response","441","500012","0.0-1.0-600.0-0.0","0","0","31385","","null","","","null","66","","","","","","","","","","","","","","","",""
"","time_out","","html-keyboard-response","442","502017","0.0-1.0-602.0-0.0","0","0","31385","","null","","","null","66","","","","","","","","","","","","","","","",""
"","ITI","","html-keyboard-response","443","503021","0.0-1.0-603.0","0","0","31385","","null","","","null","66","","","","","","","","","","","","","","","NaN",""
"","S1","","html-keyboard-response","444","503276","0.0-1.0-605.0","0","0","31385","","null","","","null","67","","","","","","","","","","","","","","","",""
"","ISI","","html-keyboard-response","445","504280","0.0-1.0-606.0","0","0","31385","","null","","","null","67","NaN","","","","","","","","","","","","","","",""
"","S2","","html-keyboard-response","446","504535","0.0-1.0-607.0","0","0","31385","","null","","","null","67","","NaN","","","","","","","","","","","","","",""
"","response","","html-keyboard-response","447","505011","0.0-1.0-608.0-0.0","0","0","31385","","471","","","75","67","","","2","67","training","adjacent","DC","4","3","P.jpg","Q.jpg","1","0","0","",""
"","feedback","","html-keyboard-response","448","506017","0.0-1.0-609.0-0.0","0","0","31385","","null","","","null","67","","","","","","","","","","","","","","","",""
"","time_out","","html-keyboard-response","449","508021","0.0-1.0-611.0-0.0","0","0","31385","","null","","","null","67","","","","","","","","","","","","","","","",""
"","ITI","","html-keyboard-response","450","509025","0.0-1.0-612.0","0","0","31385","","null","","","null","67","","","","","","","","","","","","","","","NaN",""
"","S1","","html-keyboard-response","451","509279","0.0-1.0-614.0","0","0","31385","","null","","","null","68","","","","","","","","","","","","","","","",""
"","ISI","","html-keyboard-response","452","510284","0.0-1.0-615.0","0","0","31385","","null","","","null","68","NaN","","","","","","","","","","","","","","",""
"","S2","","html-keyboard-response","453","510539","0.0-1.0-616.0","0","0","31385","","null","","","null","68","","NaN","","","","","","","","","","","","","",""
"","response","","html-keyboard-response","454","511557","0.0-1.0-617.0-0.0","0","0","31385","","1013","","","68","68","","","2","68","training","adjacent","FE","6","5","N.jpg","M.jpg","0","0","1","",""
"","feedback","","html-keyboard-response","455","512563","0.0-1.0-618.0-0.0","0","0","31385","","null","","","null","68","","","","","","","","","","","","","","","",""
"","ITI","","html-keyboard-response","456","513579","0.0-1.0-621.0","0","0","31385","","null","","","null","68","","","","","","","","","","","","","","","NaN",""
"","S1","","html-keyboard-response","457","513834","0.0-1.0-623.0","0","0","31385","","null","","","null","69","","","","","","","","","","","","","","","",""
"","ISI","","html-keyboard-response","458","514839","0.0-1.0-624.0","0","0","31385","","null","","","null","69","NaN","","","","","","","","","","","","","","",""
"","S2","","html-keyboard-response","459","515093","0.0-1.0-625.0","0","0","31385","","null","","","null","69","","NaN","","","","","","","","","","","","","",""
"","response","","html-keyboard-response","460","515879","0.0-1.0-626.0-0.0","0","0","31385","","780","","","75","69","","","2","69","training","adjacent","BA","2","1","L.jpg","O.jpg","1","0","0","",""
"","feedback","","html-keyboard-response","461","516884","0.0-1.0-627.0-0.0","0","0","31385","","null","","","null","69","","","","","","","","","","","","","","","",""
"","time_out","","html-keyboard-response","462","518890","0.0-1.0-629.0-0.0","0","0","31385","","null","","","null","69","","","","","","","","","","","","","","","",""
"","ITI","","html-keyboard-response","463","519894","0.0-1.0-630.0","0","0","31385","","null","","","null","69","","","","","","","","","","","","","","","NaN",""
"","S1","","html-keyboard-response","464","520150","0.0-1.0-632.0","0","0","31385","","null","","","null","70","","","","","","","","","","","","","","","",""
"","ISI","","html-keyboard-response","465","521155","0.0-1.0-633.0","0","0","31385","","null","","","null","70","NaN","","","","","","","","","","","","","","",""
"","S2","","html-keyboard-response","466","521409","0.0-1.0-634.0","0","0","31385","","null","","","null","70","","NaN","","","","","","","","","","","","","",""
"","response","","html-keyboard-response","467","522123","0.0-1.0-635.0-0.0","0","0","31385","","710","","","75","70","","","2","70","training","adjacent","DC","4","3","P.jpg","Q.jpg","1","0","0","",""
"","feedback","","html-keyboard-response","468","523128","0.0-1.0-636.0-0.0","0","0","31385","","null","","","null","70","","","","","","","","","","","","","","","",""
"","time_out","","html-keyboard-response","469","525133","0.0-1.0-638.0-0.0","0","0","31385","","null","","","null","70","","","","","","","","","","","","","","","",""
"","ITI","","html-keyboard-response","470","526137","0.0-1.0-639.0","0","0","31385","","null","","","null","70","","","","","","","","","","","","","","","NaN",""
"","S1","","html-keyboard-response","471","526392","0.0-1.0-641.0","0","0","31385","","null","","","null","71","","","","","","","","","","","","","","","",""
"","ISI","","html-keyboard-response","472","527396","0.0-1.0-642.0","0","0","31385","","null","","","null","71","NaN","","","","","","","","","","","","","","",""
"","S2","","html-keyboard-response","473","527651","0.0-1.0-643.0","0","0","31385","","null","","","null","71","","NaN","","","","","","","","","","","","","",""
"","response","","html-keyboard-response","474","527879","0.0-1.0-644.0-0.0","0","0","31385","","223","","","68","71","","","2","71","training","adjacent","CD","3","4","Q.jpg","P.jpg","0","1","0","",""
"","feedback","","html-keyboard-response","475","528884","0.0-1.0-645.0-0.0","0","0","31385","","null","","","null","71","","","","","","","","","","","","","","","",""
"","time_out","","html-keyboard-response","476","530889","0.0-1.0-647.0-0.0","0","0","31385","","null","","","null","71","","","","","","","","","","","","","","","",""
"","ITI","","html-keyboard-response","477","531892","0.0-1.0-648.0","0","0","31385","","null","","","null","71","","","","","","","","","","","","","","","NaN",""
"","S1","","html-keyboard-response","478","532147","0.0-1.0-650.0","0","0","31385","","null","","","null","72","","","","","","","","","","","","","","","",""
"","ISI","","html-keyboard-response","479","533152","0.0-1.0-651.0","0","0","31385","","null","","","null","72","NaN","","","","","","","","","","","","","","",""
"","S2","","html-keyboard-response","480","533408","0.0-1.0-652.0","0","0","31385","","null","","","null","72","","NaN","","","","","","","","","","","","","",""
"","response","","html-keyboard-response","481","534056","0.0-1.0-653.0-0.0","0","0","31385","","642","","","75","72","","","2","72","training","adjacent","CB","3","2","Q.jpg","L.jpg","1","0","0","",""
"","feedback","","html-keyboard-response","482","535061","0.0-1.0-654.0-0.0","0","0","31385","","null","","","null","72","","","","","","","","","","","","","","","",""
"","time_out","","html-keyboard-response","483","537066","0.0-1.0-656.0-0.0","0","0","31385","","null","","","null","72","","","","","","","","","","","","","","","",""
"","ITI","","html-keyboard-response","484","538070","0.0-1.0-657.0","0","0","31385","","null","","","null","72","","","","","","","","","","","","","","","NaN",""
"","S1","","html-keyboard-response","485","538325","0.0-1.0-659.0","0","0","31385","","null","","","null","73","","","","","","","","","","","","","","","",""
"","ISI","","html-keyboard-response","486","539329","0.0-1.0-660.0","0","0","31385","","698","","","16","73","shift","","","","","","","","","","","","","","",""
"","S2","","html-keyboard-response","487","539584","0.0-1.0-661.0","0","0","31385","","null","","","null","73","","NaN","","","","","","","","","","","","","",""
"","response","","html-keyboard-response","488","540142","0.0-1.0-662.0-0.0","0","0","31385","","553","","","68","73","","","2","73","training","adjacent","FG","6","7","N.jpg","R.jpg","0","1","0","",""
"","feedback","","html-keyboard-response","489","541147","0.0-1.0-663.0-0.0","0","0","31385","","null","","","null","73","","","","","","","","","","","","","","","",""
"","time_out","","html-keyboard-response","490","543152","0.0-1.0-665.0-0.0","0","0","31385","","null","","","null","73","","","","","","","","","","","","","","","",""
"","ITI","","html-keyboard-response","491","544156","0.0-1.0-666.0","0","0","31385","","null","","","null","73","","","","","","","","","","","","","","","NaN",""
"","S1","","html-keyboard-response","492","544411","0.0-1.0-668.0","0","0","31385","","null","","","null","74","","","","","","","","","","","","","","","",""
"","ISI","","html-keyboard-response","493","545415","0.0-1.0-669.0","0","0","31385","","null","","","null","74","NaN","","","","","","","","","","","","","","",""
"","S2","","html-keyboard-response","494","545670","0.0-1.0-670.0","0","0","31385","","null","","","null","74","","NaN","","","","","","","","","","","","","",""
"","response","","html-keyboard-response","495","545804","0.0-1.0-671.0-0.0","0","0","31385","","128","","","75","74","","","2","74","training","adjacent","BC","2","3","L.jpg","Q.jpg","1","1","1","",""
"","feedback","","html-keyboard-response","496","546809","0.0-1.0-672.0-0.0","0","0","31385","","null","","","null","74","","","","","","","","","","","","","","","",""
"","ITI","","html-keyboard-response","497","547814","0.0-1.0-675.0","0","0","31385","","null","","","null","74","","","","","","","","","","","","","","","NaN",""
"","S1","","html-keyboard-response","498","548069","0.0-1.0-677.0","0","0","31385","","null","","","null","75","","","","","","","","","","","","","","","",""
"","ISI","","html-keyboard-response","499","549074","0.0-1.0-678.0","0","0","31385","","null","","","null","75","NaN","","","","","","","","","","","","","","",""
"","S2","","html-keyboard-response","500","549328","0.0-1.0-679.0","0","0","31385","","null","","","null","75","","NaN","","","","","","","","","","","","","",""
"","response","","html-keyboard-response","501","549773","0.0-1.0-680.0-0.0","0","0","31385","","440","","","68","75","","","2","75","training","adjacent","ED","5","4","M.jpg","P.jpg","0","0","1","",""
"","feedback","","html-keyboard-response","502","550778","0.0-1.0-681.0-0.0","0","0","31385","","null","","","null","75","","","","","","","","","","","","","","","",""
"","ITI","","html-keyboard-response","503","551784","0.0-1.0-684.0","0","0","31385","","null","","","null","75","","","","","","","","","","","","","","","NaN",""
"","S1","","html-keyboard-response","504","552038","0.0-1.0-686.0","0","0","31385","","null","","","null","76","","","","","","","","","","","","","","","",""
"","ISI","","html-keyboard-response","505","553043","0.0-1.0-687.0","0","0","31385","","null","","","null","76","NaN","","","","","","","","","","","","","","",""
"","S2","","html-keyboard-response","506","553298","0.0-1.0-688.0","0","0","31385","","null","","","null","76","","NaN","","","","","","","","","","","","","",""
"","response","","html-keyboard-response","507","553941","0.0-1.0-689.0-0.0","0","0","31385","","638","","","68","76","","","2","76","training","adjacent","FE","6","5","N.jpg","M.jpg","0","0","1","",""
"","feedback","","html-keyboard-response","508","554951","0.0-1.0-690.0-0.0","0","0","31385","","null","","","null","76","","","","","","","","","","","","","","","",""
"","ITI","","html-keyboard-response","509","555957","0.0-1.0-693.0","0","0","31385","","null","","","null","76","","","","","","","","","","","","","","","NaN",""
"","S1","","html-keyboard-response","510","556212","0.0-1.0-695.0","0","0","31385","","null","","","null","77","","","","","","","","","","","","","","","",""
"","ISI","","html-keyboard-response","511","557216","0.0-1.0-696.0","0","0","31385","","null","","","null","77","NaN","","","","","","","","","","","","","","",""
"","S2","","html-keyboard-response","512","557471","0.0-1.0-697.0","0","0","31385","","null","","","null","77","","NaN","","","","","","","","","","","","","",""
"","response","","html-keyboard-response","513","557959","0.0-1.0-698.0-0.0","0","0","31385","","482","","","75","77","","","2","77","training","adjacent","AB","1","2","O.jpg","L.jpg","1","1","1","",""
"","feedback","","html-keyboard-response","514","558964","0.0-1.0-699.0-0.0","0","0","31385","","null","","","null","77","","","","","","","","","","","","","","","",""
"","ITI","","html-keyboard-response","515","559969","0.0-1.0-702.0","0","0","31385","","null","","","null","77","","","","","","","","","","","","","","","NaN",""
"","S1","","html-keyboard-response","516","560224","0.0-1.0-704.0","0","0","31385","","null","","","null","78","","","","","","","","","","","","","","","",""
"","ISI","","html-keyboard-response","517","561228","0.0-1.0-705.0","0","0","31385","","null","","","null","78","NaN","","","","","","","","","","","","","","",""
"","S2","","html-keyboard-response","518","561483","0.0-1.0-706.0","0","0","31385","","null","","","null","78","","NaN","","","","","","","","","","","","","",""
"","response","","html-keyboard-response","519","562103","0.0-1.0-707.0-0.0","0","0","31385","","616","","","68","78","","","2","78","training","adjacent","BA","2","1","L.jpg","O.jpg","0","0","1","",""
"","feedback","","html-keyboard-response","520","563110","0.0-1.0-708.0-0.0","0","0","31385","","null","","","null","78","","","","","","","","","","","","","","","",""
"","ITI","","html-keyboard-response","521","564125","0.0-1.0-711.0","0","0","31385","","null","","","null","78","","","","","","","","","","","","","","","NaN",""
"","S1","","html-keyboard-response","522","564381","0.0-1.0-713.0","0","0","31385","","null","","","null","79","","","","","","","","","","","","","","","",""
"","ISI","","html-keyboard-response","523","565386","0.0-1.0-714.0","0","0","31385","","null","","","null","79","NaN","","","","","","","","","","","","","","",""
"","S2","","html-keyboard-response","524","565640","0.0-1.0-715.0","0","0","31385","","null","","","null","79","","NaN","","","","","","","","","","","","","",""
"","response","","html-keyboard-response","525","566085","0.0-1.0-716.0-0.0","0","0","31385","","440","","","75","79","","","2","79","training","adjacent","ED","5","4","M.jpg","P.jpg","1","0","0","",""
"","feedback","","html-keyboard-response","526","567092","0.0-1.0-717.0-0.0","0","0","31385","","null","","","null","79","","","","","","","","","","","","","","","",""
"","time_out","","html-keyboard-response","527","569097","0.0-1.0-719.0-0.0","0","0","31385","","null","","","null","79","","","","","","","","","","","","","","","",""
"","ITI","","html-keyboard-response","528","570101","0.0-1.0-720.0","0","0","31385","","null","","","null","79","","","","","","","","","","","","","","","NaN",""
"","S1","","html-keyboard-response","529","570356","0.0-1.0-722.0","0","0","31385","","null","","","null","80","","","","","","","","","","","","","","","",""
"","ISI","","html-keyboard-response","530","571361","0.0-1.0-723.0","0","0","31385","","null","","","null","80","NaN","","","","","","","","","","","","","","",""
"","S2","","html-keyboard-response","531","571615","0.0-1.0-724.0","0","0","31385","","null","","","null","80","","NaN","","","","","","","","","","","","","",""
"","response","","html-keyboard-response","532","572178","0.0-1.0-725.0-0.0","0","0","31385","","558","","","68","80","","","2","80","training","adjacent","CD","3","4","Q.jpg","P.jpg","0","1","0","",""
"","feedback","","html-keyboard-response","533","573184","0.0-1.0-726.0-0.0","0","0","31385","","null","","","null","80","","","","","","","","","","","","","","","",""
"","time_out","","html-keyboard-response","534","575189","0.0-1.0-728.0-0.0","0","0","31385","","null","","","null","80","","","","","","","","","","","","","","","",""
"","ITI","","html-keyboard-response","535","576192","0.0-1.0-729.0","0","0","31385","","null","","","null","80","","","","","","","","","","","","","","","NaN",""
"","S1","","html-keyboard-response","536","576445","0.0-1.0-731.0","0","0","31385","","null","","","null","81","","","","","","","","","","","","","","","",""
"","ISI","","html-keyboard-response","537","577449","0.0-1.0-732.0","0","0","31385","","null","","","null","81","NaN","","","","","","","","","","","","","","",""
"","S2","","html-keyboard-response","538","577703","0.0-1.0-733.0","0","0","31385","","null","","","null","81","","NaN","","","","","","","","","","","","","",""
"","response","","html-keyboard-response","539","578360","0.0-1.0-734.0-0.0","0","0","31385","","654","","","68","81","","","2","81","training","adjacent","BA","2","1","L.jpg","O.jpg","0","0","1","",""
"","feedback","","html-keyboard-response","540","579365","0.0-1.0-735.0-0.0","0","0","31385","","null","","","null","81","","","","","","","","","","","","","","","",""
"","ITI","","html-keyboard-response","541","580369","0.0-1.0-738.0","0","0","31385","","null","","","null","81","","","","","","","","","","","","","","","NaN",""
"","S1","","html-keyboard-response","542","580622","0.0-1.0-740.0","0","0","31385","","null","","","null","82","","","","","","","","","","","","","","","",""
"","ISI","","html-keyboard-response","543","581626","0.0-1.0-741.0","0","0","31385","","null","","","null","82","NaN","","","","","","","","","","","","","","",""
"","S2","","html-keyboard-response","544","581879","0.0-1.0-742.0","0","0","31385","","null","","","null","82","","NaN","","","","","","","","","","","","","",""
"","response","","html-keyboard-response","545","582426","0.0-1.0-743.0-0.0","0","0","31385","","544","","","75","82","","","2","82","training","adjacent","DE","4","5","P.jpg","M.jpg","1","1","1","",""
"","feedback","","html-keyboard-response","546","583431","0.0-1.0-744.0-0.0","0","0","31385","","null","","","null","82","","","","","","","","","","","","","","","",""
"","ITI","","html-keyboard-response","547","584436","0.0-1.0-747.0","0","0","31385","","null","","","null","82","","","","","","","","","","","","","","","NaN",""
"","S1","","html-keyboard-response","548","584691","0.0-1.0-749.0","0","0","31385","","null","","","null","83","","","","","","","","","","","","","","","",""
"","ISI","","html-keyboard-response","549","585695","0.0-1.0-750.0","0","0","31385","","null","","","null","83","NaN","","","","","","","","","","","","","","",""
"","S2","","html-keyboard-response","550","585949","0.0-1.0-751.0","0","0","31385","","null","","","null","83","","NaN","","","","","","","","","","","","","",""
"","response","","html-keyboard-response","551","586580","0.0-1.0-752.0-0.0","0","0","31385","","627","","","75","83","","","2","83","training","adjacent","EF","5","6","M.jpg","N.jpg","1","1","1","",""
"","feedback","","html-keyboard-response","552","587585","0.0-1.0-753.0-0.0","0","0","31385","","null","","","null","83","","","","","","","","","","","","","","","",""
"","ITI","","html-keyboard-response","553","588590","0.0-1.0-756.0","0","0","31385","","null","","","null","83","","","","","","","","","","","","","","","NaN",""
"","S1","","html-keyboard-response","554","588844","0.0-1.0-758.0","0","0","31385","","null","","","null","84","","","","","","","","","","","","","","","",""
"","ISI","","html-keyboard-response","555","589848","0.0-1.0-759.0","0","0","31385","","null","","","null","84","NaN","","","","","","","","","","","","","","",""
"","S2","","html-keyboard-response","556","590103","0.0-1.0-760.0","0","0","31385","","null","","","null","84","","NaN","","","","","","","","","","","","","",""
"","response","","html-keyboard-response","557","590686","0.0-1.0-761.0-0.0","0","0","31385","","578","","","75","84","","","2","84","training","adjacent","GF","7","6","R.jpg","N.jpg","1","0","0","",""
"","feedback","","html-keyboard-response","558","591692","0.0-1.0-762.0-0.0","0","0","31385","","null","","","null","84","","","","","","","","","","","","","","","",""
"","time_out","","html-keyboard-response","559","593697","0.0-1.0-764.0-0.0","0","0","31385","","null","","","null","84","","","","","","","","","","","","","","","",""
"","ITI","","html-keyboard-response","560","594702","0.0-1.0-765.0","0","0","31385","","null","","","null","84","","","","","","","","","","","","","","","NaN",""
"","S1","","html-keyboard-response","561","594957","0.0-1.0-767.0","0","0","31385","","null","","","null","85","","","","","","","","","","","","","","","",""
"","ISI","","html-keyboard-response","562","595962","0.0-1.0-768.0","0","0","31385","","null","","","null","85","NaN","","","","","","","","","","","","","","",""
"","S2","","html-keyboard-response","563","596217","0.0-1.0-769.0","0","0","31385","","null","","","null","85","","NaN","","","","","","","","","","","","","",""
"","response","","html-keyboard-response","564","596543","0.0-1.0-770.0-0.0","0","0","31385","","322","","","68","85","","","2","85","training","adjacent","DE","4","5","P.jpg","M.jpg","0","1","0","",""
"","feedback","","html-keyboard-response","565","597550","0.0-1.0-771.0-0.0","0","0","31385","","null","","","null","85","","","","","","","","","","","","","","","",""
"","time_out","","html-keyboard-response","566","599555","0.0-1.0-773.0-0.0","0","0","31385","","null","","","null","85","","","","","","","","","","","","","","","",""
"","ITI","","html-keyboard-response","567","600560","0.0-1.0-774.0","0","0","31385","","null","","","null","85","","","","","","","","","","","","","","","NaN",""
"","S1","","html-keyboard-response","568","600814","0.0-1.0-776.0","0","0","31385","","null","","","null","86","","","","","","","","","","","","","","","",""
"","ISI","","html-keyboard-response","569","601818","0.0-1.0-777.0","0","0","31385","","null","","","null","86","NaN","","","","","","","","","","","","","","",""
"","S2","","html-keyboard-response","570","602073","0.0-1.0-778.0","0","0","31385","","null","","","null","86","","NaN","","","","","","","","","","","","","",""
"","response","","html-keyboard-response","571","602377","0.0-1.0-779.0-0.0","0","0","31385","","298","","","68","86","","","2","86","training","adjacent","CB","3","2","Q.jpg","L.jpg","0","0","1","",""
"","feedback","","html-keyboard-response","572","603383","0.0-1.0-780.0-0.0","0","0","31385","","null","","","null","86","","","","","","","","","","","","","","","",""
"","ITI","","html-keyboard-response","573","604387","0.0-1.0-783.0","0","0","31385","","null","","","null","86","","","","","","","","","","","","","","","NaN",""
"","S1","","html-keyboard-response","574","604642","0.0-1.0-785.0","0","0","31385","","null","","","null","87","","","","","","","","","","","","","","","",""
"","ISI","","html-keyboard-response","575","605647","0.0-1.0-786.0","0","0","31385","","null","","","null","87","NaN","","","","","","","","","","","","","","",""
"","S2","","html-keyboard-response","576","605903","0.0-1.0-787.0","0","0","31385","","null","","","null","87","","NaN","","","","","","","","","","","","","",""
"","response","","html-keyboard-response","577","607179","0.0-1.0-788.0-0.0","0","0","31385","","1272","","","75","87","","","2","87","training","adjacent","BC","2","3","L.jpg","Q.jpg","1","1","1","",""
"","feedback","","html-keyboard-response","578","608185","0.0-1.0-789.0-0.0","0","0","31385","","null","","","null","87","","","","","","","","","","","","","","","",""
"","ITI","","html-keyboard-response","579","609190","0.0-1.0-792.0","0","0","31385","","null","","","null","87","","","","","","","","","","","","","","","NaN",""
"","S1","","html-keyboard-response","580","609445","0.0-1.0-794.0","0","0","31385","","null","","","null","88","","","","","","","","","","","","","","","",""
"","ISI","","html-keyboard-response","581","610449","0.0-1.0-795.0","0","0","31385","","null","","","null","88","NaN","","","","","","","","","","","","","","",""
"","S2","","html-keyboard-response","582","610704","0.0-1.0-796.0","0","0","31385","","null","","","null","88","","NaN","","","","","","","","","","","","","",""
