"success","ttype","start_time","trial_type","trial_index","time_elapsed","internal_node_id","warning","missed_checkup","PID","view_history","rt","responses","repeat_instructions","key_press","index","keypress_isi","keypress_S2","block","trial_num","phase","group_type","pair_type","S1_stim","S2_stim","S1_img","S2_img","S1_chosen","S1_higher","accuracy","keypress_iti","total_bonus_tally"
"true","full_screen","d04142023hr1341","fullscreen","0","15099","0.0-0.0","0","0","46005","","","","","","","","","","","","","","","","","","","","","",""
"","instructions","","instructions","1","73504","0.0-1.0-0.0-0.0","0","0","46005","[{""page_index"":0,""viewing_time"":5600},{""page_index"":1,""viewing_time"":23651},{""page_index"":2,""viewing_time"":15602},{""page_index"":1,""viewing_time"":10830},{""page_index"":2,""viewing_time"":888},{""page_index"":3,""viewing_time"":1829}]","58401","","","","","","","","","","","","","","","","","","","",""
"","comprehension_check","","survey-multi-choice","2","109625","0.0-1.0-0.0-1.0","0","0","46005","","36113","{""Q0"":""True"",""Q1"":""K"",""Q2"":""Once the second image appears and while the screen 'MAKE A CHOICE' is shown"",""Q3"":""Green mark"",""Q4"":""either D or K""}","0","","","","","","","","","","","","","","","","","",""
"","start_exp","","html-keyboard-response","3","111242","0.0-1.0-1.0","0","0","46005","","1612","","","32","","","","","","","","","","","","","","","","",""
"","S1","","html-keyboard-response","4","111502","0.0-1.0-2.0","0","0","46005","","null","","","null","0","","","","","","","","","","","","","","","",""
"","ISI","","html-keyboard-response","5","112511","0.0-1.0-3.0","0","0","46005","","null","","","null","0","NaN","","","","","","","","","","","","","","",""
"","S2","","html-keyboard-response","6","112764","0.0-1.0-4.0","0","0","46005","","null","","","null","0","","NaN","","","","","","","","","","","","","",""
"","response","","html-keyboard-response","7","114416","0.0-1.0-5.0-0.0","0","0","46005","","1649","","","75","0","","","1","0","training","adjacent","ED","5","4","L.jpg","P.jpg","1","0","0","",""
"","feedback","","html-keyboard-response","8","115430","0.0-1.0-6.0-0.0","0","0","46005","","null","","","null","0","","","","","","","","","","","","","","","",""
"","time_out","","html-keyboard-response","9","117448","0.0-1.0-8.0-0.0","0","0","46005","","null","","","null","0","","","","","","","","","","","","","","","",""
"","ITI","","html-keyboard-response","10","118471","0.0-1.0-9.0","0","0","46005","","null","","","null","0","","","","","","","","","","","","","","","NaN",""
"","S1","","html-keyboard-response","11","118740","0.0-1.0-11.0","0","0","46005","","null","","","null","1","","","","","","","","","","","","","","","",""
"","ISI","","html-keyboard-response","12","119764","0.0-1.0-12.0","0","0","46005","","null","","","null","1","NaN","","","","","","","","","","","","","","",""
"","S2","","html-keyboard-response","13","120034","0.0-1.0-13.0","0","0","46005","","null","","","null","1","","NaN","","","","","","","","","","","","","",""
"","response","","html-keyboard-response","14","120392","0.0-1.0-14.0-0.0","0","0","46005","","356","","","68","1","","","1","1","training","adjacent","DC","4","3","P.jpg","Q.jpg","0","0","1","",""
"","feedback","","html-keyboard-response","15","121406","0.0-1.0-15.0-0.0","0","0","46005","","null","","","null","1","","","","","","","","","","","","","","","",""
"","ITI","","html-keyboard-response","16","122415","0.0-1.0-18.0","0","0","46005","","null","","","null","1","","","","","","","","","","","","","","","NaN",""
"","S1","","html-keyboard-response","17","122684","0.0-1.0-20.0","0","0","46005","","null","","","null","2","","","","","","","","","","","","","","","",""
"","ISI","","html-keyboard-response","18","123693","0.0-1.0-21.0","0","0","46005","","null","","","null","2","NaN","","","","","","","","","","","","","","",""
"","S2","","html-keyboard-response","19","123947","0.0-1.0-22.0","0","0","46005","","null","","","null","2","","NaN","","","","","","","","","","","","","",""
"","response","","html-keyboard-response","20","124678","0.0-1.0-23.0-0.0","0","0","46005","","730","","","75","2","","","1","2","training","adjacent","FE","6","5","N.jpg","L.jpg","1","0","0","",""
"","feedback","","html-keyboard-response","21","125698","0.0-1.0-24.0-0.0","0","0","46005","","null","","","null","2","","","","","","","","","","","","","","","",""
"","time_out","","html-keyboard-response","22","127716","0.0-1.0-26.0-0.0","0","0","46005","","null","","","null","2","","","","","","","","","","","","","","","",""
"","ITI","","html-keyboard-response","23","128730","0.0-1.0-27.0","0","0","46005","","null","","","null","2","","","","","","","","","","","","","","","NaN",""
"","S1","","html-keyboard-response","24","128998","0.0-1.0-29.0","0","0","46005","","null","","","null","3","","","","","","","","","","","","","","","",""
"","ISI","","html-keyboard-response","25","130023","0.0-1.0-30.0","0","0","46005","","null","","","null","3","NaN","","","","","","","","","","","","","","",""
"","S2","","html-keyboard-response","26","130291","0.0-1.0-31.0","0","0","46005","","null","","","null","3","","NaN","","","","","","","","","","","","","",""
"","response","","html-keyboard-response","27","130465","0.0-1.0-32.0-0.0","0","0","46005","","169","","","68","3","","","1","3","training","adjacent","FE","6","5","N.jpg","L.jpg","0","0","1","",""
"","feedback","","html-keyboard-response","28","131475","0.0-1.0-33.0-0.0","0","0","46005","","null","","","null","3","","","","","","","","","","","","","","","",""
"","ITI","","html-keyboard-response","29","132486","0.0-1.0-36.0","0","0","46005","","null","","","null","3","","","","","","","","","","","","","","","NaN",""
"","S1","","html-keyboard-response","30","132740","0.0-1.0-38.0","0","0","46005","","null","","","null","4","","","","","","","","","","","","","","","",""
"","ISI","","html-keyboard-response","31","133749","0.0-1.0-39.0","0","0","46005","","null","","","null","4","NaN","","","","","","","","","","","","","","",""
"","S2","","html-keyboard-response","32","134018","0.0-1.0-40.0","0","0","46005","","null","","","null","4","","NaN","","","","","","","","","","","","","",""
"","response","","html-keyboard-response","33","134020","0.0-1.0-41.0-0.0","0","0","46005","","0","","","68","4","","","1","4","training","adjacent","GF","7","6","M.jpg","N.jpg","0","0","1","",""
"","feedback","","html-keyboard-response","34","135027","0.0-1.0-42.0-0.0","0","0","46005","","null","","","null","4","","","","","","","","","","","","","","","",""
"","ITI","","html-keyboard-response","35","136050","0.0-1.0-45.0","0","0","46005","","null","","","null","4","","","","","","","","","","","","","","","NaN",""
"","S1","","html-keyboard-response","36","136318","0.0-1.0-47.0","0","0","46005","","null","","","null","5","","","","","","","","","","","","","","","",""
"","ISI","","html-keyboard-response","37","137343","0.0-1.0-48.0","0","0","46005","","null","","","null","5","NaN","","","","","","","","","","","","","","",""
"","S2","","html-keyboard-response","38","137585","0.0-1.0-49.0","0","0","46005","","238","","","68","5","","d","1","5","training","adjacent","CD","3","4","Q.jpg","P.jpg","0","1","0","",""
"","feedback","","html-keyboard-response","39","138591","0.0-1.0-51.0-0.0","0","0","46005","","null","","","null","5","","","","","","","","","","","","","","","",""
"","time_out","","html-keyboard-response","40","140593","0.0-1.0-53.0-0.0","0","0","46005","","null","","","null","5","","","","","","","","","","","","","","","",""
"","ITI","","html-keyboard-response","41","141606","0.0-1.0-54.0","0","0","46005","","null","","","null","5","","","","","","","","","","","","","","","NaN",""
"","S1","","html-keyboard-response","42","141859","0.0-1.0-56.0","0","0","46005","","null","","","null","6","","","","","","","","","","","","","","","",""
"","ISI","","html-keyboard-response","43","142901","0.0-1.0-57.0","0","0","46005","","null","","","null","6","NaN","","","","","","","","","","","","","","",""
"","S2","","html-keyboard-response","44","143170","0.0-1.0-58.0","0","0","46005","","null","","","null","6","","NaN","","","","","","","","","","","","","",""
"","response","","html-keyboard-response","45","143432","0.0-1.0-59.0-0.0","0","0","46005","","259","","","68","6","","","1","6","training","adjacent","DC","4","3","P.jpg","Q.jpg","0","0","1","",""
"","feedback","","html-keyboard-response","46","144449","0.0-1.0-60.0-0.0","0","0","46005","","null","","","null","6","","","","","","","","","","","","","","","",""
"","ITI","","html-keyboard-response","47","145455","0.0-1.0-63.0","0","0","46005","","null","","","null","6","","","","","","","","","","","","","","","NaN",""
"","S1","","html-keyboard-response","48","145723","0.0-1.0-65.0","0","0","46005","","null","","","null","7","","","","","","","","","","","","","","","",""
"","ISI","","html-keyboard-response","49","146731","0.0-1.0-66.0","0","0","46005","","null","","","null","7","NaN","","","","","","","","","","","","","","",""
"","S2","","html-keyboard-response","50","146999","0.0-1.0-67.0","0","0","46005","","null","","","null","7","","NaN","","","","","","","","","","","","","",""
"","response","","html-keyboard-response","51","147196","0.0-1.0-68.0-0.0","0","0","46005","","195","","","68","7","","","1","7","training","adjacent","GF","7","6","M.jpg","N.jpg","0","0","1","",""
"","feedback","","html-keyboard-response","52","148215","0.0-1.0-69.0-0.0","0","0","46005","","null","","","null","7","","","","","","","","","","","","","","","",""
"","ITI","","html-keyboard-response","53","149259","0.0-1.0-72.0","0","0","46005","","null","","","null","7","","","","","","","","","","","","","","","NaN",""
"","S1","","html-keyboard-response","54","149529","0.0-1.0-74.0","0","0","46005","","null","","","null","8","","","","","","","","","","","","","","","",""
"","ISI","","html-keyboard-response","55","150538","0.0-1.0-75.0","0","0","46005","","null","","","null","8","NaN","","","","","","","","","","","","","","",""
"","S2","","html-keyboard-response","56","150821","0.0-1.0-76.0","0","0","46005","","null","","","null","8","","NaN","","","","","","","","","","","","","",""
"","response","","html-keyboard-response","57","151346","0.0-1.0-77.0-0.0","0","0","46005","","522","","","68","8","","","1","8","training","adjacent","AB","1","2","R.jpg","O.jpg","0","1","0","",""
"","feedback","","html-keyboard-response","58","152350","0.0-1.0-78.0-0.0","0","0","46005","","null","","","null","8","","","","","","","","","","","","","","","",""
"","time_out","","html-keyboard-response","59","154352","0.0-1.0-80.0-0.0","0","0","46005","","null","","","null","8","","","","","","","","","","","","","","","",""
"","ITI","","html-keyboard-response","60","155364","0.0-1.0-81.0","0","0","46005","","null","","","null","8","","","","","","","","","","","","","","","NaN",""
"","S1","","html-keyboard-response","61","155632","0.0-1.0-83.0","0","0","46005","","null","","","null","9","","","","","","","","","","","","","","","",""
"","ISI","","html-keyboard-response","62","156657","0.0-1.0-84.0","0","0","46005","","null","","","null","9","NaN","","","","","","","","","","","","","","",""
"","S2","","html-keyboard-response","63","156941","0.0-1.0-85.0","0","0","46005","","null","","","null","9","","NaN","","","","","","","","","","","","","",""
"","response","","html-keyboard-response","64","157181","0.0-1.0-86.0-0.0","0","0","46005","","237","","","68","9","","","1","9","training","adjacent","BA","2","1","O.jpg","R.jpg","0","0","1","",""
"","feedback","","html-keyboard-response","65","158187","0.0-1.0-87.0-0.0","0","0","46005","","null","","","null","9","","","","","","","","","","","","","","","",""
"","ITI","","html-keyboard-response","66","159197","0.0-1.0-90.0","0","0","46005","","null","","","null","9","","","","","","","","","","","","","","","NaN",""
"","S1","","html-keyboard-response","67","159465","0.0-1.0-92.0","0","0","46005","","null","","","null","10","","","","","","","","","","","","","","","",""
"","ISI","","html-keyboard-response","68","160480","0.0-1.0-93.0","0","0","46005","","null","","","null","10","NaN","","","","","","","","","","","","","","",""
"","S2","","html-keyboard-response","69","160733","0.0-1.0-94.0","0","0","46005","","null","","","null","10","","NaN","","","","","","","","","","","","","",""
"","response","","html-keyboard-response","70","160940","0.0-1.0-95.0-0.0","0","0","46005","","204","","","75","10","","","1","10","training","adjacent","EF","5","6","L.jpg","N.jpg","1","1","1","",""
"","feedback","","html-keyboard-response","71","161948","0.0-1.0-96.0-0.0","0","0","46005","","null","","","null","10","","","","","","","","","","","","","","","",""
"","ITI","","html-keyboard-response","72","162972","0.0-1.0-99.0","0","0","46005","","null","","","null","10","","","","","","","","","","","","","","","NaN",""
"","S1","","html-keyboard-response","73","163240","0.0-1.0-101.0","0","0","46005","","null","","","null","11","","","","","","","","","","","","","","","",""
"","ISI","","html-keyboard-response","74","164250","0.0-1.0-102.0","0","0","46005","","null","","","null","11","NaN","","","","","","","","","","","","","","",""
"","S2","","html-keyboard-response","75","164519","0.0-1.0-103.0","0","0","46005","","null","","","null","11","","NaN","","","","","","","","","","","","","",""
"","response","","html-keyboard-response","76","164603","0.0-1.0-104.0-0.0","0","0","46005","","82","","","68","11","","","1","11","training","adjacent","BC","2","3","O.jpg","Q.jpg","0","1","0","",""
"","feedback","","html-keyboard-response","77","165607","0.0-1.0-105.0-0.0","0","0","46005","","null","","","null","11","","","","","","","","","","","","","","","",""
"","time_out","","html-keyboard-response","78","167611","0.0-1.0-107.0-0.0","0","0","46005","","null","","","null","11","","","","","","","","","","","","","","","",""
"","ITI","","html-keyboard-response","79","168623","0.0-1.0-108.0","0","0","46005","","null","","","null","11","","","","","","","","","","","","","","","NaN",""
"","S1","","html-keyboard-response","80","168890","0.0-1.0-110.0","0","0","46005","","null","","","null","12","","","","","","","","","","","","","","","",""
"","ISI","","html-keyboard-response","81","169917","0.0-1.0-111.0","0","0","46005","","null","","","null","12","NaN","","","","","","","","","","","","","","",""
"","S2","","html-keyboard-response","82","170201","0.0-1.0-112.0","0","0","46005","","null","","","null","12","","NaN","","","","","","","","","","","","","",""
"","response","","html-keyboard-response","83","170800","0.0-1.0-113.0-0.0","0","0","46005","","596","","","68","12","","","1","12","training","adjacent","DE","4","5","P.jpg","L.jpg","0","1","0","",""
"","feedback","","html-keyboard-response","84","171814","0.0-1.0-114.0-0.0","0","0","46005","","null","","","null","12","","","","","","","","","","","","","","","",""
"","time_out","","html-keyboard-response","85","173828","0.0-1.0-116.0-0.0","0","0","46005","","null","","","null","12","","","","","","","","","","","","","","","",""
"","ITI","","html-keyboard-response","86","174837","0.0-1.0-117.0","0","0","46005","","null","","","null","12","","","","","","","","","","","","","","","NaN",""
"","S1","","html-keyboard-response","87","175105","0.0-1.0-119.0","0","0","46005","","null","","","null","13","","","","","","","","","","","","","","","",""
"","ISI","","html-keyboard-response","88","176114","0.0-1.0-120.0","0","0","46005","","910","","","75","13","k","","","","","","","","","","","","","","",""
"","S2","","html-keyboard-response","89","176367","0.0-1.0-121.0","0","0","46005","","null","","","null","13","","NaN","","","","","","","","","","","","","",""
"","response","","html-keyboard-response","90","177135","0.0-1.0-122.0-0.0","0","0","46005","","766","","","75","13","","","1","13","training","adjacent","EF","5","6","L.jpg","N.jpg","1","1","1","",""
"","feedback","","html-keyboard-response","91","178149","0.0-1.0-123.0-0.0","0","0","46005","","null","","","null","13","","","","","","","","","","","","","","","",""
"","ITI","","html-keyboard-response","92","179158","0.0-1.0-126.0","0","0","46005","","null","","","null","13","","","","","","","","","","","","","","","NaN",""
"","S1","","html-keyboard-response","93","179412","0.0-1.0-128.0","0","0","46005","","null","","","null","14","","","","","","","","","","","","","","","",""
"","ISI","","html-keyboard-response","94","180424","0.0-1.0-129.0","0","0","46005","","null","","","null","14","NaN","","","","","","","","","","","","","","",""
"","S2","","html-keyboard-response","95","180677","0.0-1.0-130.0","0","0","46005","","null","","","null","14","","NaN","","","","","","","","","","","","","",""
"","response","","html-keyboard-response","96","180779","0.0-1.0-131.0-0.0","0","0","46005","","100","","","75","14","","","1","14","training","adjacent","FG","6","7","N.jpg","M.jpg","1","1","1","",""
"","feedback","","html-keyboard-response","97","181798","0.0-1.0-132.0-0.0","0","0","46005","","null","","","null","14","","","","","","","","","","","","","","","",""
"","ITI","","html-keyboard-response","98","182821","0.0-1.0-135.0","0","0","46005","","null","","","null","14","","","","","","","","","","","","","","","NaN",""
"","S1","","html-keyboard-response","99","183090","0.0-1.0-137.0","0","0","46005","","null","","","null","15","","","","","","","","","","","","","","","",""
"","ISI","","html-keyboard-response","100","184114","0.0-1.0-138.0","0","0","46005","","null","","","null","15","NaN","","","","","","","","","","","","","","",""
"","S2","","html-keyboard-response","101","184382","0.0-1.0-139.0","0","0","46005","","null","","","null","15","","NaN","","","","","","","","","","","","","",""
"","response","","html-keyboard-response","102","184770","0.0-1.0-140.0-0.0","0","0","46005","","385","","","68","15","","","1","15","training","adjacent","CD","3","4","Q.jpg","P.jpg","0","1","0","",""
"","feedback","","html-keyboard-response","103","185784","0.0-1.0-141.0-0.0","0","0","46005","","null","","","null","15","","","","","","","","","","","","","","","",""
"","time_out","","html-keyboard-response","104","187801","0.0-1.0-143.0-0.0","0","0","46005","","null","","","null","15","","","","","","","","","","","","","","","",""
"","ITI","","html-keyboard-response","105","188809","0.0-1.0-144.0","0","0","46005","","null","","","null","15","","","","","","","","","","","","","","","NaN",""
"","S1","","html-keyboard-response","106","189063","0.0-1.0-146.0","0","0","46005","","null","","","null","16","","","","","","","","","","","","","","","",""
"","ISI","","html-keyboard-response","107","190089","0.0-1.0-147.0","0","0","46005","","null","","","null","16","NaN","","","","","","","","","","","","","","",""
"","S2","","html-keyboard-response","108","190358","0.0-1.0-148.0","0","0","46005","","null","","","null","16","","NaN","","","","","","","","","","","","","",""
"","response","","html-keyboard-response","109","190750","0.0-1.0-149.0-0.0","0","0","46005","","390","","","75","16","","","1","16","training","adjacent","ED","5","4","L.jpg","P.jpg","1","0","0","",""
"","feedback","","html-keyboard-response","110","191765","0.0-1.0-150.0-0.0","0","0","46005","","null","","","null","16","","","","","","","","","","","","","","","",""
"","time_out","","html-keyboard-response","111","193769","0.0-1.0-152.0-0.0","0","0","46005","","null","","","null","16","","","","","","","","","","","","","","","",""
"","ITI","","html-keyboard-response","112","194780","0.0-1.0-153.0","0","0","46005","","null","","","null","16","","","","","","","","","","","","","","","NaN",""
"","S1","","html-keyboard-response","113","195049","0.0-1.0-155.0","0","0","46005","","null","","","null","17","","","","","","","","","","","","","","","",""
"","ISI","","html-keyboard-response","114","196089","0.0-1.0-156.0","0","0","46005","","null","","","null","17","NaN","","","","","","","","","","","","","","",""
"","S2","","html-keyboard-response","115","196357","0.0-1.0-157.0","0","0","46005","","null","","","null","17","","NaN","","","","","","","","","","","","","",""
"","response","","html-keyboard-response","116","196414","0.0-1.0-158.0-0.0","0","0","46005","","53","","","68","17","","","1","17","training","adjacent","BC","2","3","O.jpg","Q.jpg","0","1","0","",""
"","feedback","","html-keyboard-response","117","197431","0.0-1.0-159.0-0.0","0","0","46005","","null","","","null","17","","","","","","","","","","","","","","","",""
"","time_out","","html-keyboard-response","118","199434","0.0-1.0-161.0-0.0","0","0","46005","","null","","","null","17","","","","","","","","","","","","","","","",""
"","ITI","","html-keyboard-response","119","200445","0.0-1.0-162.0","0","0","46005","","null","","","null","17","","","","","","","","","","","","","","","NaN",""
"","S1","","html-keyboard-response","120","200714","0.0-1.0-164.0","0","0","46005","","null","","","null","18","","","","","","","","","","","","","","","",""
"","ISI","","html-keyboard-response","121","201752","0.0-1.0-165.0","0","0","46005","","null","","","null","18","NaN","","","","","","","","","","","","","","",""
"","S2","","html-keyboard-response","122","201873","0.0-1.0-166.0","0","0","46005","","118","","","75","18","","k","1","18","training","adjacent","AB","1","2","R.jpg","O.jpg","1","1","1","",""
"","feedback","","html-keyboard-response","123","202887","0.0-1.0-168.0-0.0","0","0","46005","","null","","","null","18","","","","","","","","","","","","","","","",""
"","ITI","","html-keyboard-response","124","203898","0.0-1.0-171.0","0","0","46005","","null","","","null","18","","","","","","","","","","","","","","","NaN",""
"","S1","","html-keyboard-response","125","204166","0.0-1.0-173.0","0","0","46005","","null","","","null","19","","","","","","","","","","","","","","","",""
"","ISI","","html-keyboard-response","126","205177","0.0-1.0-174.0","0","0","46005","","null","","","null","19","NaN","","","","","","","","","","","","","","",""
"","S2","","html-keyboard-response","127","205445","0.0-1.0-175.0","0","0","46005","","null","","","null","19","","NaN","","","","","","","","","","","","","",""
"","response","","html-keyboard-response","128","206028","0.0-1.0-176.0-0.0","0","0","46005","","582","","","75","19","","","1","19","training","adjacent","AB","1","2","R.jpg","O.jpg","1","1","1","",""
"","feedback","","html-keyboard-response","129","207072","0.0-1.0-177.0-0.0","0","0","46005","","null","","","null","19","","","","","","","","","","","","","","","",""
"","ITI","","html-keyboard-response","130","208084","0.0-1.0-180.0","0","0","46005","","null","","","null","19","","","","","","","","","","","","","","","NaN",""
"","S1","","html-keyboard-response","131","208353","0.0-1.0-182.0","0","0","46005","","null","","","null","20","","","","","","","","","","","","","","","",""
"","ISI","","html-keyboard-response","132","209381","0.0-1.0-183.0","0","0","46005","","null","","","null","20","NaN","","","","","","","","","","","","","","",""
"","S2","","html-keyboard-response","133","209648","0.0-1.0-184.0","0","0","46005","","null","","","null","20","","NaN","","","","","","","","","","","","","",""
"","response","","html-keyboard-response","134","210400","0.0-1.0-185.0-0.0","0","0","46005","","749","","","75","20","","","1","20","training","adjacent","BC","2","3","O.jpg","Q.jpg","1","1","1","",""
"","feedback","","html-keyboard-response","135","211415","0.0-1.0-186.0-0.0","0","0","46005","","null","","","null","20","","","","","","","","","","","","","","","",""
"","ITI","","html-keyboard-response","136","212426","0.0-1.0-189.0","0","0","46005","","null","","","null","20","","","","","","","","","","","","","","","NaN",""
"","S1","","html-keyboard-response","137","212680","0.0-1.0-191.0","0","0","46005","","null","","","null","21","","","","","","","","","","","","","","","",""
"","ISI","","html-keyboard-response","138","213687","0.0-1.0-192.0","0","0","46005","","null","","","null","21","NaN","","","","","","","","","","","","","","",""
"","S2","","html-keyboard-response","139","213956","0.0-1.0-193.0","0","0","46005","","null","","","null","21","","NaN","","","","","","","","","","","","","",""
"","response","","html-keyboard-response","140","214604","0.0-1.0-194.0-0.0","0","0","46005","","646","","","75","21","","","1","21","training","adjacent","CB","3","2","Q.jpg","O.jpg","1","0","0","",""
"","feedback","","html-keyboard-response","141","215647","0.0-1.0-195.0-0.0","0","0","46005","","null","","","null","21","","","","","","","","","","","","","","","",""
"","time_out","","html-keyboard-response","142","217687","0.0-1.0-197.0-0.0","0","0","46005","","null","","","null","21","","","","","","","","","","","","","","","",""
"","ITI","","html-keyboard-response","143","218697","0.0-1.0-198.0","0","0","46005","","null","","","null","21","","","","","","","","","","","","","","","NaN",""
"","S1","","html-keyboard-response","144","218981","0.0-1.0-200.0","0","0","46005","","null","","","null","22","","","","","","","","","","","","","","","",""
"","ISI","","html-keyboard-response","145","219988","0.0-1.0-201.0","0","0","46005","","null","","","null","22","NaN","","","","","","","","","","","","","","",""
"","S2","","html-keyboard-response","146","220272","0.0-1.0-202.0","0","0","46005","","null","","","null","22","","NaN","","","","","","","","","","","","","",""
"","response","","html-keyboard-response","147","220784","0.0-1.0-203.0-0.0","0","0","46005","","508","","","68","22","","","1","22","training","adjacent","FE","6","5","N.jpg","L.jpg","0","0","1","",""
"","feedback","","html-keyboard-response","148","221787","0.0-1.0-204.0-0.0","0","0","46005","","null","","","null","22","","","","","","","","","","","","","","","",""
"","ITI","","html-keyboard-response","149","222795","0.0-1.0-207.0","0","0","46005","","null","","","null","22","","","","","","","","","","","","","","","NaN",""
"","S1","","html-keyboard-response","150","223048","0.0-1.0-209.0","0","0","46005","","null","","","null","23","","","","","","","","","","","","","","","",""
"","ISI","","html-keyboard-response","151","224059","0.0-1.0-210.0","0","0","46005","","666","","","75","23","k","","","","","","","","","","","","","","",""
"","S2","","html-keyboard-response","152","224173","0.0-1.0-211.0","0","0","46005","","112","","","75","23","","k","1","23","training","adjacent","DE","4","5","P.jpg","L.jpg","1","1","1","",""
"","feedback","","html-keyboard-response","153","225182","0.0-1.0-213.0-0.0","0","0","46005","","null","","","null","23","","","","","","","","","","","","","","","",""
"","ITI","","html-keyboard-response","154","226207","0.0-1.0-216.0","0","0","46005","","null","","","null","23","","","","","","","","","","","","","","","NaN",""
"","S1","","html-keyboard-response","155","226476","0.0-1.0-218.0","0","0","46005","","null","","","null","24","","","","","","","","","","","","","","","",""
"","ISI","","html-keyboard-response","156","227502","0.0-1.0-219.0","0","0","46005","","null","","","null","24","NaN","","","","","","","","","","","","","","",""
"","S2","","html-keyboard-response","157","227772","0.0-1.0-220.0","0","0","46005","","null","","","null","24","","NaN","","","","","","","","","","","","","",""
"","response","","html-keyboard-response","158","228246","0.0-1.0-221.0-0.0","0","0","46005","","472","","","68","24","","","1","24","training","adjacent","AB","1","2","R.jpg","O.jpg","0","1","0","",""
"","feedback","","html-keyboard-response","159","229254","0.0-1.0-222.0-0.0","0","0","46005","","null","","","null","24","","","","","","","","","","","","","","","",""
"","time_out","","html-keyboard-response","160","231269","0.0-1.0-224.0-0.0","0","0","46005","","null","","","null","24","","","","","","","","","","","","","","","",""
"","ITI","","html-keyboard-response","161","232277","0.0-1.0-225.0","0","0","46005","","866","","","75","24","","","","","","","","","","","","","","","k",""
"","S1","","html-keyboard-response","162","232531","0.0-1.0-227.0","0","0","46005","","null","","","null","25","","","","","","","","","","","","","","","",""
"","ISI","","html-keyboard-response","163","233556","0.0-1.0-228.0","0","0","46005","","267","","","75","25","k","","","","","","","","","","","","","","",""
"","S2","","html-keyboard-response","164","233823","0.0-1.0-229.0","0","0","46005","","null","","","null","25","","NaN","","","","","","","","","","","","","",""
"","response","","html-keyboard-response","165","234076","0.0-1.0-230.0-0.0","0","0","46005","","251","","","75","25","","","1","25","training","adjacent","DE","4","5","P.jpg","L.jpg","1","1","1","",""
"","feedback","","html-keyboard-response","166","235085","0.0-1.0-231.0-0.0","0","0","46005","","null","","","null","25","","","","","","","","","","","","","","","",""
"","ITI","","html-keyboard-response","167","236098","0.0-1.0-234.0","0","0","46005","","null","","","null","25","","","","","","","","","","","","","","","NaN",""
"","S1","","html-keyboard-response","168","236366","0.0-1.0-236.0","0","0","46005","","null","","","null","26","","","","","","","","","","","","","","","",""
"","ISI","","html-keyboard-response","169","237377","0.0-1.0-237.0","0","0","46005","","null","","","null","26","NaN","","","","","","","","","","","","","","",""
"","S2","","html-keyboard-response","170","237631","0.0-1.0-238.0","0","0","46005","","null","","","null","26","","NaN","","","","","","","","","","","","","",""
"","response","","html-keyboard-response","171","238093","0.0-1.0-239.0-0.0","0","0","46005","","460","","","68","26","","","1","26","training","adjacent","FE","6","5","N.jpg","L.jpg","0","0","1","",""
"","feedback","","html-keyboard-response","172","239112","0.0-1.0-240.0-0.0","0","0","46005","","null","","","null","26","","","","","","","","","","","","","","","",""
"","ITI","","html-keyboard-response","173","240119","0.0-1.0-243.0","0","0","46005","","null","","","null","26","","","","","","","","","","","","","","","NaN",""
"","S1","","html-keyboard-response","174","240388","0.0-1.0-245.0","0","0","46005","","null","","","null","27","","","","","","","","","","","","","","","",""
"","ISI","","html-keyboard-response","175","241414","0.0-1.0-246.0","0","0","46005","","null","","","null","27","NaN","","","","","","","","","","","","","","",""
"","S2","","html-keyboard-response","176","241682","0.0-1.0-247.0","0","0","46005","","null","","","null","27","","NaN","","","","","","","","","","","","","",""
"","response","","html-keyboard-response","177","243014","0.0-1.0-248.0-0.0","0","0","46005","","1329","","","75","27","","","1","27","training","adjacent","FG","6","7","N.jpg","M.jpg","1","1","1","",""
"","feedback","","html-keyboard-response","178","244028","0.0-1.0-249.0-0.0","0","0","46005","","null","","","null","27","","","","","","","","","","","","","","","",""
"","ITI","","html-keyboard-response","179","245038","0.0-1.0-252.0","0","0","46005","","null","","","null","27","","","","","","","","","","","","","","","NaN",""
"","S1","","html-keyboard-response","180","245292","0.0-1.0-254.0","0","0","46005","","null","","","null","28","","","","","","","","","","","","","","","",""
"","ISI","","html-keyboard-response","181","246302","0.0-1.0-255.0","0","0","46005","","null","","","null","28","NaN","","","","","","","","","","","","","","",""
"","S2","","html-keyboard-response","182","246570","0.0-1.0-256.0","0","0","46005","","null","","","null","28","","NaN","","","","","","","","","","","","","",""
"","response","","html-keyboard-response","183","246761","0.0-1.0-257.0-0.0","0","0","46005","","189","","","75","28","","","1","28","training","adjacent","GF","7","6","M.jpg","N.jpg","1","0","0","",""
"","feedback","","html-keyboard-response","184","247769","0.0-1.0-258.0-0.0","0","0","46005","","null","","","null","28","","","","","","","","","","","","","","","",""
"","time_out","","html-keyboard-response","185","249788","0.0-1.0-260.0-0.0","0","0","46005","","null","","","null","28","","","","","","","","","","","","","","","",""
"","ITI","","html-keyboard-response","186","250798","0.0-1.0-261.0","0","0","46005","","null","","","null","28","","","","","","","","","","","","","","","NaN",""
"","S1","","html-keyboard-response","187","251066","0.0-1.0-263.0","0","0","46005","","null","","","null","29","","","","","","","","","","","","","","","",""
"","ISI","","html-keyboard-response","188","252075","0.0-1.0-264.0","0","0","46005","","198","","","68","29","d","","","","","","","","","","","","","","",""
"","S2","","html-keyboard-response","189","252344","0.0-1.0-265.0","0","0","46005","","null","","","null","29","","NaN","","","","","","","","","","","","","",""
"","response","","html-keyboard-response","190","253477","0.0-1.0-266.0-0.0","0","0","46005","","1129","","","68","29","","","1","29","training","adjacent","BA","2","1","O.jpg","R.jpg","0","0","1","",""
"","feedback","","html-keyboard-response","191","254494","0.0-1.0-267.0-0.0","0","0","46005","","null","","","null","29","","","","","","","","","","","","","","","",""
"","ITI","","html-keyboard-response","192","255505","0.0-1.0-270.0","0","0","46005","","null","","","null","29","","","","","","","","","","","","","","","NaN",""
"","S1","","html-keyboard-response","193","255758","0.0-1.0-272.0","0","0","46005","","null","","","null","30","","","","","","","","","","","","","","","",""
"","ISI","","html-keyboard-response","194","256782","0.0-1.0-273.0","0","0","46005","","null","","","null","30","NaN","","","","","","","","","","","","","","",""
"","S2","","html-keyboard-response","195","257049","0.0-1.0-274.0","0","0","46005","","null","","","null","30","","NaN","","","","","","","","","","","","","",""
"","response","","html-keyboard-response","196","257673","0.0-1.0-275.0-0.0","0","0","46005","","622","","","75","30","","","1","30","training","adjacent","DC","4","3","P.jpg","Q.jpg","1","0","0","",""
"","feedback","","html-keyboard-response","197","258679","0.0-1.0-276.0-0.0","0","0","46005","","null","","","null","30","","","","","","","","","","","","","","","",""
"","time_out","","html-keyboard-response","198","260683","0.0-1.0-278.0-0.0","0","0","46005","","null","","","null","30","","","","","","","","","","","","","","","",""
"","ITI","","html-keyboard-response","199","261694","0.0-1.0-279.0","0","0","46005","","null","","","null","30","","","","","","","","","","","","","","","NaN",""
"","S1","","html-keyboard-response","200","261962","0.0-1.0-281.0","0","0","46005","","null","","","null","31","","","","","","","","","","","","","","","",""
"","ISI","","html-keyboard-response","201","262972","0.0-1.0-282.0","0","0","46005","","458","","","68","31","d","","","","","","","","","","","","","","",""
"","S2","","html-keyboard-response","202","263241","0.0-1.0-283.0","0","0","46005","","null","","","null","31","","NaN","","","","","","","","","","","","","",""
"","response","","html-keyboard-response","203","263435","0.0-1.0-284.0-0.0","0","0","46005","","193","","","68","31","","","1","31","training","adjacent","DE","4","5","P.jpg","L.jpg","0","1","0","",""
"","feedback","","html-keyboard-response","204","264454","0.0-1.0-285.0-0.0","0","0","46005","","null","","","null","31","","","","","","","","","","","","","","","",""
"","time_out","","html-keyboard-response","205","266468","0.0-1.0-287.0-0.0","0","0","46005","","null","","","null","31","","","","","","","","","","","","","","","",""
"","ITI","","html-keyboard-response","206","267479","0.0-1.0-288.0","0","0","46005","","null","","","null","31","","","","","","","","","","","","","","","NaN",""
"","S1","","html-keyboard-response","207","267748","0.0-1.0-290.0","0","0","46005","","null","","","null","32","","","","","","","","","","","","","","","",""
"","ISI","","html-keyboard-response","208","268772","0.0-1.0-291.0","0","0","46005","","null","","","null","32","NaN","","","","","","","","","","","","","","",""
"","S2","","html-keyboard-response","209","269042","0.0-1.0-292.0","0","0","46005","","null","","","null","32","","NaN","","","","","","","","","","","","","",""
"","response","","html-keyboard-response","210","269275","0.0-1.0-293.0-0.0","0","0","46005","","230","","","75","32","","","1","32","training","adjacent","GF","7","6","M.jpg","N.jpg","1","0","0","",""
"","feedback","","html-keyboard-response","211","270288","0.0-1.0-294.0-0.0","0","0","46005","","null","","","null","32","","","","","","","","","","","","","","","",""
"","time_out","","html-keyboard-response","212","272293","0.0-1.0-296.0-0.0","0","0","46005","","null","","","null","32","","","","","","","","","","","","","","","",""
"","ITI","","html-keyboard-response","213","273305","0.0-1.0-297.0","0","0","46005","","null","","","null","32","","","","","","","","","","","","","","","NaN",""
"","S1","","html-keyboard-response","214","273558","0.0-1.0-299.0","0","0","46005","","null","","","null","33","","","","","","","","","","","","","","","",""
"","ISI","","html-keyboard-response","215","274601","0.0-1.0-300.0","0","0","46005","","null","","","null","33","NaN","","","","","","","","","","","","","","",""
"","S2","","html-keyboard-response","216","274813","0.0-1.0-301.0","0","0","46005","","209","","","68","33","","d","1","33","training","adjacent","CB","3","2","Q.jpg","O.jpg","0","0","1","",""
"","feedback","","html-keyboard-response","217","275818","0.0-1.0-303.0-0.0","0","0","46005","","null","","","null","33","","","","","","","","","","","","","","","",""
"","ITI","","html-keyboard-response","218","276827","0.0-1.0-306.0","0","0","46005","","null","","","null","33","","","","","","","","","","","","","","","NaN",""
"","S1","","html-keyboard-response","219","277096","0.0-1.0-308.0","0","0","46005","","null","","","null","34","","","","","","","","","","","","","","","",""
"","ISI","","html-keyboard-response","220","278104","0.0-1.0-309.0","0","0","46005","","null","","","null","34","NaN","","","","","","","","","","","","","","",""
"","S2","","html-keyboard-response","221","278371","0.0-1.0-310.0","0","0","46005","","null","","","null","34","","NaN","","","","","","","","","","","","","",""
"","response","","html-keyboard-response","222","279116","0.0-1.0-311.0-0.0","0","0","46005","","743","","","75","34","","","1","34","training","adjacent","FG","6","7","N.jpg","M.jpg","1","1","1","",""
"","feedback","","html-keyboard-response","223","280137","0.0-1.0-312.0-0.0","0","0","46005","","null","","","null","34","","","","","","","","","","","","","","","",""
"","ITI","","html-keyboard-response","224","281165","0.0-1.0-315.0","0","0","46005","","null","","","null","34","","","","","","","","","","","","","","","NaN",""
"","S1","","html-keyboard-response","225","281435","0.0-1.0-317.0","0","0","46005","","null","","","null","35","","","","","","","","","","","","","","","",""
"","ISI","","html-keyboard-response","226","282461","0.0-1.0-318.0","0","0","46005","","null","","","null","35","NaN","","","","","","","","","","","","","","",""
"","S2","","html-keyboard-response","227","282730","0.0-1.0-319.0","0","0","46005","","null","","","null","35","","NaN","","","","","","","","","","","","","",""
"","response","","html-keyboard-response","228","283572","0.0-1.0-320.0-0.0","0","0","46005","","839","","","68","35","","","1","35","training","adjacent","CD","3","4","Q.jpg","P.jpg","0","1","0","",""
"","feedback","","html-keyboard-response","229","284591","0.0-1.0-321.0-0.0","0","0","46005","","null","","","null","35","","","","","","","","","","","","","","","",""
"","time_out","","html-keyboard-response","230","286594","0.0-1.0-323.0-0.0","0","0","46005","","null","","","null","35","","","","","","","","","","","","","","","",""
"","ITI","","html-keyboard-response","231","287603","0.0-1.0-324.0","0","0","46005","","null","","","null","35","","","","","","","","","","","","","","","NaN",""
"","S1","","html-keyboard-response","232","287871","0.0-1.0-326.0","0","0","46005","","null","","","null","36","","","","","","","","","","","","","","","",""
"","ISI","","html-keyboard-response","233","288911","0.0-1.0-327.0","0","0","46005","","null","","","null","36","NaN","","","","","","","","","","","","","","",""
"","S2","","html-keyboard-response","234","289055","0.0-1.0-328.0","0","0","46005","","141","","","75","36","","k","1","36","training","adjacent","EF","5","6","L.jpg","N.jpg","1","1","1","",""
"","feedback","","html-keyboard-response","235","290066","0.0-1.0-330.0-0.0","0","0","46005","","null","","","null","36","","","","","","","","","","","","","","","",""
"","ITI","","html-keyboard-response","236","291076","0.0-1.0-333.0","0","0","46005","","null","","","null","36","","","","","","","","","","","","","","","NaN",""
"","S1","","html-keyboard-response","237","291330","0.0-1.0-335.0","0","0","46005","","null","","","null","37","","","","","","","","","","","","","","","",""
"","ISI","","html-keyboard-response","238","292342","0.0-1.0-336.0","0","0","46005","","null","","","null","37","NaN","","","","","","","","","","","","","","",""
"","S2","","html-keyboard-response","239","292597","0.0-1.0-337.0","0","0","46005","","null","","","null","37","","NaN","","","","","","","","","","","","","",""
"","response","","html-keyboard-response","240","293300","0.0-1.0-338.0-0.0","0","0","46005","","700","","","75","37","","","1","37","training","adjacent","EF","5","6","L.jpg","N.jpg","1","1","1","",""
"","feedback","","html-keyboard-response","241","294332","0.0-1.0-339.0-0.0","0","0","46005","","null","","","null","37","","","","","","","","","","","","","","","",""
"","ITI","","html-keyboard-response","242","295359","0.0-1.0-342.0","0","0","46005","","null","","","null","37","","","","","","","","","","","","","","","NaN",""
"","S1","","html-keyboard-response","243","295628","0.0-1.0-344.0","0","0","46005","","null","","","null","38","","","","","","","","","","","","","","","",""
"","ISI","","html-keyboard-response","244","296636","0.0-1.0-345.0","0","0","46005","","null","","","null","38","NaN","","","","","","","","","","","","","","",""
"","S2","","html-keyboard-response","245","296920","0.0-1.0-346.0","0","0","46005","","null","","","null","38","","NaN","","","","","","","","","","","","","",""
"","response","","html-keyboard-response","246","297150","0.0-1.0-347.0-0.0","0","0","46005","","228","","","75","38","","","1","38","training","adjacent","FG","6","7","N.jpg","M.jpg","1","1","1","",""
"","feedback","","html-keyboard-response","247","298167","0.0-1.0-348.0-0.0","0","0","46005","","null","","","null","38","","","","","","","","","","","","","","","",""
"","ITI","","html-keyboard-response","248","299177","0.0-1.0-351.0","0","0","46005","","null","","","null","38","","","","","","","","","","","","","","","NaN",""
"","S1","","html-keyboard-response","249","299445","0.0-1.0-353.0","0","0","46005","","null","","","null","39","","","","","","","","","","","","","","","",""
"","ISI","","html-keyboard-response","250","300455","0.0-1.0-354.0","0","0","46005","","null","","","null","39","NaN","","","","","","","","","","","","","","",""
"","S2","","html-keyboard-response","251","300724","0.0-1.0-355.0","0","0","46005","","null","","","null","39","","NaN","","","","","","","","","","","","","",""
"","response","","html-keyboard-response","252","301083","0.0-1.0-356.0-0.0","0","0","46005","","356","","","68","39","","","1","39","training","adjacent","BA","2","1","O.jpg","R.jpg","0","0","1","",""
"","feedback","","html-keyboard-response","253","302098","0.0-1.0-357.0-0.0","0","0","46005","","null","","","null","39","","","","","","","","","","","","","","","",""
"","ITI","","html-keyboard-response","254","303122","0.0-1.0-360.0","0","0","46005","","null","","","null","39","","","","","","","","","","","","","","","NaN",""
"","S1","","html-keyboard-response","255","303391","0.0-1.0-362.0","0","0","46005","","null","","","null","40","","","","","","","","","","","","","","","",""
"","ISI","","html-keyboard-response","256","304415","0.0-1.0-363.0","0","0","46005","","null","","","null","40","NaN","","","","","","","","","","","","","","",""
"","S2","","html-keyboard-response","257","304683","0.0-1.0-364.0","0","0","46005","","null","","","null","40","","NaN","","","","","","","","","","","","","",""
"","response","","html-keyboard-response","258","305005","0.0-1.0-365.0-0.0","0","0","46005","","321","","","75","40","","","1","40","training","adjacent","CB","3","2","Q.jpg","O.jpg","1","0","0","",""
"","feedback","","html-keyboard-response","259","306022","0.0-1.0-366.0-0.0","0","0","46005","","null","","","null","40","","","","","","","","","","","","","","","",""
"","time_out","","html-keyboard-response","260","308041","0.0-1.0-368.0-0.0","0","0","46005","","null","","","null","40","","","","","","","","","","","","","","","",""
"","ITI","","html-keyboard-response","261","309051","0.0-1.0-369.0","0","0","46005","","null","","","null","40","","","","","","","","","","","","","","","NaN",""
"","S1","","html-keyboard-response","262","309319","0.0-1.0-371.0","0","0","46005","","null","","","null","41","","","","","","","","","","","","","","","",""
"","ISI","","html-keyboard-response","263","310361","0.0-1.0-372.0","0","0","46005","","null","","","null","41","NaN","","","","","","","","","","","","","","",""
"","S2","","html-keyboard-response","264","310630","0.0-1.0-373.0","0","0","46005","","null","","","null","41","","NaN","","","","","","","","","","","","","",""
"","response","","html-keyboard-response","265","311087","0.0-1.0-374.0-0.0","0","0","46005","","454","","","75","41","","","1","41","training","adjacent","ED","5","4","L.jpg","P.jpg","1","0","0","",""
"","feedback","","html-keyboard-response","266","312100","0.0-1.0-375.0-0.0","0","0","46005","","null","","","null","41","","","","","","","","","","","","","","","",""
"","time_out","","html-keyboard-response","267","314107","0.0-1.0-377.0-0.0","0","0","46005","","null","","","null","41","","","","","","","","","","","","","","","",""
"","ITI","","html-keyboard-response","268","315116","0.0-1.0-378.0","0","0","46005","","null","","","null","41","","","","","","","","","","","","","","","NaN",""
"","S1","","html-keyboard-response","269","315385","0.0-1.0-380.0","0","0","46005","","null","","","null","42","","","","","","","","","","","","","","","",""
"","ISI","","html-keyboard-response","270","316411","0.0-1.0-381.0","0","0","46005","","null","","","null","42","NaN","","","","","","","","","","","","","","",""
"","S2","","html-keyboard-response","271","316680","0.0-1.0-382.0","0","0","46005","","null","","","null","42","","NaN","","","","","","","","","","","","","",""
"","response","","html-keyboard-response","272","316801","0.0-1.0-383.0-0.0","0","0","46005","","118","","","68","42","","","1","42","training","adjacent","CB","3","2","Q.jpg","O.jpg","0","0","1","",""
"","feedback","","html-keyboard-response","273","317804","0.0-1.0-384.0-0.0","0","0","46005","","null","","","null","42","","","","","","","","","","","","","","","",""
"","ITI","","html-keyboard-response","274","318813","0.0-1.0-387.0","0","0","46005","","null","","","null","42","","","","","","","","","","","","","","","NaN",""
"","S1","","html-keyboard-response","275","319082","0.0-1.0-389.0","0","0","46005","","null","","","null","43","","","","","","","","","","","","","","","",""
"","ISI","","html-keyboard-response","276","320093","0.0-1.0-390.0","0","0","46005","","null","","","null","43","NaN","","","","","","","","","","","","","","",""
"","S2","","html-keyboard-response","277","320347","0.0-1.0-391.0","0","0","46005","","null","","","null","43","","NaN","","","","","","","","","","","","","",""
"","response","","html-keyboard-response","278","320572","0.0-1.0-392.0-0.0","0","0","46005","","223","","","68","43","","","1","43","training","adjacent","CD","3","4","Q.jpg","P.jpg","0","1","0","",""
"","feedback","","html-keyboard-response","279","321576","0.0-1.0-393.0-0.0","0","0","46005","","null","","","null","43","","","","","","","","","","","","","","","",""
"","time_out","","html-keyboard-response","280","323614","0.0-1.0-395.0-0.0","0","0","46005","","null","","","null","43","","","","","","","","","","","","","","","",""
"","ITI","","html-keyboard-response","281","324638","0.0-1.0-396.0","0","0","46005","","null","","","null","43","","","","","","","","","","","","","","","NaN",""
"","S1","","html-keyboard-response","282","324906","0.0-1.0-398.0","0","0","46005","","null","","","null","44","","","","","","","","","","","","","","","",""
"","ISI","","html-keyboard-response","283","325929","0.0-1.0-399.0","0","0","46005","","null","","","null","44","NaN","","","","","","","","","","","","","","",""
"","S2","","html-keyboard-response","284","326198","0.0-1.0-400.0","0","0","46005","","null","","","null","44","","NaN","","","","","","","","","","","","","",""
"","response","","html-keyboard-response","285","326599","0.0-1.0-401.0-0.0","0","0","46005","","398","","","75","44","","","1","44","training","adjacent","BA","2","1","O.jpg","R.jpg","1","0","0","",""
"","feedback","","html-keyboard-response","286","327604","0.0-1.0-402.0-0.0","0","0","46005","","null","","","null","44","","","","","","","","","","","","","","","",""
"","time_out","","html-keyboard-response","287","329608","0.0-1.0-404.0-0.0","0","0","46005","","null","","","null","44","","","","","","","","","","","","","","","",""
"","ITI","","html-keyboard-response","288","330617","0.0-1.0-405.0","0","0","46005","","null","","","null","44","","","","","","","","","","","","","","","NaN",""
"","S1","","html-keyboard-response","289","330884","0.0-1.0-407.0","0","0","46005","","null","","","null","45","","","","","","","","","","","","","","","",""
"","ISI","","html-keyboard-response","290","331926","0.0-1.0-408.0","0","0","46005","","null","","","null","45","NaN","","","","","","","","","","","","","","",""
"","S2","","html-keyboard-response","291","332194","0.0-1.0-409.0","0","0","46005","","null","","","null","45","","NaN","","","","","","","","","","","","","",""
"","response","","html-keyboard-response","292","332286","0.0-1.0-410.0-0.0","0","0","46005","","90","","","68","45","","","1","45","training","adjacent","BC","2","3","O.jpg","Q.jpg","0","1","0","",""
"","feedback","","html-keyboard-response","293","333301","0.0-1.0-411.0-0.0","0","0","46005","","null","","","null","45","","","","","","","","","","","","","","","",""
"","time_out","","html-keyboard-response","294","335314","0.0-1.0-413.0-0.0","0","0","46005","","null","","","null","45","","","","","","","","","","","","","","","",""
"","ITI","","html-keyboard-response","295","336323","0.0-1.0-414.0","0","0","46005","","null","","","null","45","","","","","","","","","","","","","","","NaN",""
"","S1","","html-keyboard-response","296","336591","0.0-1.0-416.0","0","0","46005","","null","","","null","46","","","","","","","","","","","","","","","",""
"","ISI","","html-keyboard-response","297","337600","0.0-1.0-417.0","0","0","46005","","755","","","75","46","k","","","","","","","","","","","","","","",""
"","S2","","html-keyboard-response","298","337867","0.0-1.0-418.0","0","0","46005","","null","","","null","46","","NaN","","","","","","","","","","","","","",""
"","response","","html-keyboard-response","299","338204","0.0-1.0-419.0-0.0","0","0","46005","","334","","","75","46","","","1","46","training","adjacent","DC","4","3","P.jpg","Q.jpg","1","0","0","",""
"","feedback","","html-keyboard-response","300","339210","0.0-1.0-420.0-0.0","0","0","46005","","null","","","null","46","","","","","","","","","","","","","","","",""
"","time_out","","html-keyboard-response","301","341218","0.0-1.0-422.0-0.0","0","0","46005","","null","","","null","46","","","","","","","","","","","","","","","",""
"","ITI","","html-keyboard-response","302","342227","0.0-1.0-423.0","0","0","46005","","null","","","null","46","","","","","","","","","","","","","","","NaN",""
"","S1","","html-keyboard-response","303","342511","0.0-1.0-425.0","0","0","46005","","null","","","null","47","","","","","","","","","","","","","","","",""
"","ISI","","html-keyboard-response","304","343534","0.0-1.0-426.0","0","0","46005","","null","","","null","47","NaN","","","","","","","","","","","","","","",""
"","S2","","html-keyboard-response","305","343801","0.0-1.0-427.0","0","0","46005","","null","","","null","47","","NaN","","","","","","","","","","","","","",""
"","response","","html-keyboard-response","306","344411","0.0-1.0-428.0-0.0","0","0","46005","","608","","","68","47","","","1","47","training","adjacent","ED","5","4","L.jpg","P.jpg","0","0","1","",""
"","feedback","","html-keyboard-response","307","345426","0.0-1.0-429.0-0.0","0","0","46005","","null","","","null","47","","","","","","","","","","","","","","","",""
"","ITI","","html-keyboard-response","308","346439","0.0-1.0-432.0","0","0","46005","","null","","","null","47","","","","","","","","","","","","","","","NaN",""
"","block_over","","html-keyboard-response","309","351239","0.0-1.0-433.0-0.0","0","0","46005","","4793","","","32","47","","","","","","","","","","","","","","","",""
"","S1","","html-keyboard-response","310","351502","0.0-1.0-434.0","0","0","46005","","null","","","null","48","","","","","","","","","","","","","","","",""
"","ISI","","html-keyboard-response","311","352514","0.0-1.0-435.0","0","0","46005","","null","","","null","48","NaN","","","","","","","","","","","","","","",""
"","S2","","html-keyboard-response","312","352782","0.0-1.0-436.0","0","0","46005","","null","","","null","48","","NaN","","","","","","","","","","","","","",""
"","response","","html-keyboard-response","313","354133","0.0-1.0-437.0-0.0","0","0","46005","","1348","","","68","48","","","2","48","training","adjacent","EF","5","6","L.jpg","N.jpg","0","1","0","",""
"","feedback","","html-keyboard-response","314","355148","0.0-1.0-438.0-0.0","0","0","46005","","null","","","null","48","","","","","","","","","","","","","","","",""
"","time_out","","html-keyboard-response","315","357181","0.0-1.0-440.0-0.0","0","0","46005","","null","","","null","48","","","","","","","","","","","","","","","",""
"","ITI","","html-keyboard-response","316","358205","0.0-1.0-441.0","0","0","46005","","null","","","null","48","","","","","","","","","","","","","","","NaN",""
"","S1","","html-keyboard-response","317","358473","0.0-1.0-443.0","0","0","46005","","null","","","null","49","","","","","","","","","","","","","","","",""
"","ISI","","html-keyboard-response","318","359502","0.0-1.0-444.0","0","0","46005","","null","","","null","49","NaN","","","","","","","","","","","","","","",""
"","S2","","html-keyboard-response","319","359768","0.0-1.0-445.0","0","0","46005","","null","","","null","49","","NaN","","","","","","","","","","","","","",""
"","response","","html-keyboard-response","320","360142","0.0-1.0-446.0-0.0","0","0","46005","","372","","","75","49","","","2","49","training","adjacent","EF","5","6","L.jpg","N.jpg","1","1","1","",""
"","feedback","","html-keyboard-response","321","361157","0.0-1.0-447.0-0.0","0","0","46005","","null","","","null","49","","","","","","","","","","","","","","","",""
"","ITI","","html-keyboard-response","322","362168","0.0-1.0-450.0","0","0","46005","","null","","","null","49","","","","","","","","","","","","","","","NaN",""
"","S1","","html-keyboard-response","323","362436","0.0-1.0-452.0","0","0","46005","","null","","","null","50","","","","","","","","","","","","","","","",""
"","ISI","","html-keyboard-response","324","363443","0.0-1.0-453.0","0","0","46005","","695","","","68","50","d","","","","","","","","","","","","","","",""
"","S2","","html-keyboard-response","325","363698","0.0-1.0-454.0","0","0","46005","","null","","","null","50","","NaN","","","","","","","","","","","","","",""
"","response","","html-keyboard-response","326","364278","0.0-1.0-455.0-0.0","0","0","46005","","579","","","68","50","","","2","50","training","adjacent","DC","4","3","P.jpg","Q.jpg","0","0","1","",""
"","feedback","","html-keyboard-response","327","365308","0.0-1.0-456.0-0.0","0","0","46005","","null","","","null","50","","","","","","","","","","","","","","","",""
"","ITI","","html-keyboard-response","328","366332","0.0-1.0-459.0","0","0","46005","","null","","","null","50","","","","","","","","","","","","","","","NaN",""
"","S1","","html-keyboard-response","329","366600","0.0-1.0-461.0","0","0","46005","","null","","","null","51","","","","","","","","","","","","","","","",""
"","ISI","","html-keyboard-response","330","367624","0.0-1.0-462.0","0","0","46005","","null","","","null","51","NaN","","","","","","","","","","","","","","",""
"","S2","","html-keyboard-response","331","367894","0.0-1.0-463.0","0","0","46005","","null","","","null","51","","NaN","","","","","","","","","","","","","",""
"","response","","html-keyboard-response","332","368292","0.0-1.0-464.0-0.0","0","0","46005","","395","","","75","51","","","2","51","training","adjacent","DC","4","3","P.jpg","Q.jpg","1","0","0","",""
"","feedback","","html-keyboard-response","333","369298","0.0-1.0-465.0-0.0","0","0","46005","","null","","","null","51","","","","","","","","","","","","","","","",""
"","time_out","","html-keyboard-response","334","371304","0.0-1.0-467.0-0.0","0","0","46005","","null","","","null","51","","","","","","","","","","","","","","","",""
"","ITI","","html-keyboard-response","335","372315","0.0-1.0-468.0","0","0","46005","","null","","","null","51","","","","","","","","","","","","","","","NaN",""
"","S1","","html-keyboard-response","336","372583","0.0-1.0-470.0","0","0","46005","","null","","","null","52","","","","","","","","","","","","","","","",""
"","ISI","","html-keyboard-response","337","373592","0.0-1.0-471.0","0","0","46005","","null","","","null","52","NaN","","","","","","","","","","","","","","",""
"","S2","","html-keyboard-response","338","373860","0.0-1.0-472.0","0","0","46005","","null","","","null","52","","NaN","","","","","","","","","","","","","",""
"","response","","html-keyboard-response","339","374347","0.0-1.0-473.0-0.0","0","0","46005","","485","","","68","52","","","2","52","training","adjacent","ED","5","4","L.jpg","P.jpg","0","0","1","",""
"","feedback","","html-keyboard-response","340","375355","0.0-1.0-474.0-0.0","0","0","46005","","null","","","null","52","","","","","","","","","","","","","","","",""
"","ITI","","html-keyboard-response","341","376364","0.0-1.0-477.0","0","0","46005","","null","","","null","52","","","","","","","","","","","","","","","NaN",""
"","S1","","html-keyboard-response","342","376632","0.0-1.0-479.0","0","0","46005","","null","","","null","53","","","","","","","","","","","","","","","",""
"","ISI","","html-keyboard-response","343","377642","0.0-1.0-480.0","0","0","46005","","null","","","null","53","NaN","","","","","","","","","","","","","","",""
"","S2","","html-keyboard-response","344","377898","0.0-1.0-481.0","0","0","46005","","null","","","null","53","","NaN","","","","","","","","","","","","","",""
"","response","","html-keyboard-response","345","378358","0.0-1.0-482.0-0.0","0","0","46005","","458","","","75","53","","","2","53","training","adjacent","BA","2","1","O.jpg","R.jpg","1","0","0","",""
"","feedback","","html-keyboard-response","346","379384","0.0-1.0-483.0-0.0","0","0","46005","","null","","","null","53","","","","","","","","","","","","","","","",""
"","time_out","","html-keyboard-response","347","381426","0.0-1.0-485.0-0.0","0","0","46005","","null","","","null","53","","","","","","","","","","","","","","","",""
"","ITI","","html-keyboard-response","348","382438","0.0-1.0-486.0","0","0","46005","","null","","","null","53","","","","","","","","","","","","","","","NaN",""
"","S1","","html-keyboard-response","349","382722","0.0-1.0-488.0","0","0","46005","","null","","","null","54","","","","","","","","","","","","","","","",""
"","ISI","","html-keyboard-response","350","383733","0.0-1.0-489.0","0","0","46005","","null","","","null","54","NaN","","","","","","","","","","","","","","",""
"","S2","","html-keyboard-response","351","384003","0.0-1.0-490.0","0","0","46005","","null","","","null","54","","NaN","","","","","","","","","","","","","",""
"","response","","html-keyboard-response","352","384758","0.0-1.0-491.0-0.0","0","0","46005","","754","","","68","54","","","2","54","training","adjacent","FG","6","7","N.jpg","M.jpg","0","1","0","",""
"","feedback","","html-keyboard-response","353","385762","0.0-1.0-492.0-0.0","0","0","46005","","null","","","null","54","","","","","","","","","","","","","","","",""
"","time_out","","html-keyboard-response","354","387765","0.0-1.0-494.0-0.0","0","0","46005","","null","","","null","54","","","","","","","","","","","","","","","",""
"","ITI","","html-keyboard-response","355","388774","0.0-1.0-495.0","0","0","46005","","null","","","null","54","","","","","","","","","","","","","","","NaN",""
"","S1","","html-keyboard-response","356","389027","0.0-1.0-497.0","0","0","46005","","null","","","null","55","","","","","","","","","","","","","","","",""
"","ISI","","html-keyboard-response","357","390068","0.0-1.0-498.0","0","0","46005","","null","","","null","55","NaN","","","","","","","","","","","","","","",""
"","S2","","html-keyboard-response","358","390336","0.0-1.0-499.0","0","0","46005","","null","","","null","55","","NaN","","","","","","","","","","","","","",""
"","response","","html-keyboard-response","359","391004","0.0-1.0-500.0-0.0","0","0","46005","","667","","","75","55","","","2","55","training","adjacent","EF","5","6","L.jpg","N.jpg","1","1","1","",""
"","feedback","","html-keyboard-response","360","392009","0.0-1.0-501.0-0.0","0","0","46005","","null","","","null","55","","","","","","","","","","","","","","","",""
"","ITI","","html-keyboard-response","361","393021","0.0-1.0-504.0","0","0","46005","","null","","","null","55","","","","","","","","","","","","","","","NaN",""
"","S1","","html-keyboard-response","362","393289","0.0-1.0-506.0","0","0","46005","","null","","","null","56","","","","","","","","","","","","","","","",""
"","ISI","","html-keyboard-response","363","394299","0.0-1.0-507.0","0","0","46005","","null","","","null","56","NaN","","","","","","","","","","","","","","",""
"","S2","","html-keyboard-response","364","394553","0.0-1.0-508.0","0","0","46005","","null","","","null","56","","NaN","","","","","","","","","","","","","",""
"","response","","html-keyboard-response","365","394960","0.0-1.0-509.0-0.0","0","0","46005","","404","","","75","56","","","2","56","training","adjacent","AB","1","2","R.jpg","O.jpg","1","1","1","",""
"","feedback","","html-keyboard-response","366","395974","0.0-1.0-510.0-0.0","0","0","46005","","null","","","null","56","","","","","","","","","","","","","","","",""
"","ITI","","html-keyboard-response","367","396999","0.0-1.0-513.0","0","0","46005","","null","","","null","56","","","","","","","","","","","","","","","NaN",""
"","S1","","html-keyboard-response","368","397268","0.0-1.0-515.0","0","0","46005","","null","","","null","57","","","","","","","","","","","","","","","",""
"","ISI","","html-keyboard-response","369","398277","0.0-1.0-516.0","0","0","46005","","null","","","null","57","NaN","","","","","","","","","","","","","","",""
"","S2","","html-keyboard-response","370","398547","0.0-1.0-517.0","0","0","46005","","null","","","null","57","","NaN","","","","","","","","","","","","","",""
"","response","","html-keyboard-response","371","398841","0.0-1.0-518.0-0.0","0","0","46005","","293","","","68","57","","","2","57","training","adjacent","FE","6","5","N.jpg","L.jpg","0","0","1","",""
"","feedback","","html-keyboard-response","372","399855","0.0-1.0-519.0-0.0","0","0","46005","","null","","","null","57","","","","","","","","","","","","","","","",""
"","ITI","","html-keyboard-response","373","400864","0.0-1.0-522.0","0","0","46005","","null","","","null","57","","","","","","","","","","","","","","","NaN",""
"","S1","","html-keyboard-response","374","401132","0.0-1.0-524.0","0","0","46005","","null","","","null","58","","","","","","","","","","","","","","","",""
"","ISI","","html-keyboard-response","375","402140","0.0-1.0-525.0","0","0","46005","","null","","","null","58","NaN","","","","","","","","","","","","","","",""
"","S2","","html-keyboard-response","376","402409","0.0-1.0-526.0","0","0","46005","","null","","","null","58","","NaN","","","","","","","","","","","","","",""
"","response","","html-keyboard-response","377","402606","0.0-1.0-527.0-0.0","0","0","46005","","194","","","75","58","","","2","58","training","adjacent","EF","5","6","L.jpg","N.jpg","1","1","1","",""
"","feedback","","html-keyboard-response","378","403610","0.0-1.0-528.0-0.0","0","0","46005","","null","","","null","58","","","","","","","","","","","","","","","",""
"","ITI","","html-keyboard-response","379","404637","0.0-1.0-531.0","0","0","46005","","null","","","null","58","","","","","","","","","","","","","","","NaN",""
"","S1","","html-keyboard-response","380","404906","0.0-1.0-533.0","0","0","46005","","null","","","null","59","","","","","","","","","","","","","","","",""
"","ISI","","html-keyboard-response","381","405933","0.0-1.0-534.0","0","0","46005","","null","","","null","59","NaN","","","","","","","","","","","","","","",""
"","S2","","html-keyboard-response","382","406200","0.0-1.0-535.0","0","0","46005","","null","","","null","59","","NaN","","","","","","","","","","","","","",""
"","response","","html-keyboard-response","383","406612","0.0-1.0-536.0-0.0","0","0","46005","","409","","","68","59","","","2","59","training","adjacent","GF","7","6","M.jpg","N.jpg","0","0","1","",""
"","feedback","","html-keyboard-response","384","407619","0.0-1.0-537.0-0.0","0","0","46005","","null","","","null","59","","","","","","","","","","","","","","","",""
"","ITI","","html-keyboard-response","385","408627","0.0-1.0-540.0","0","0","46005","","null","","","null","59","","","","","","","","","","","","","","","NaN",""
"","S1","","html-keyboard-response","386","408882","0.0-1.0-542.0","0","0","46005","","null","","","null","60","","","","","","","","","","","","","","","",""
"","ISI","","html-keyboard-response","387","409890","0.0-1.0-543.0","0","0","46005","","null","","","null","60","NaN","","","","","","","","","","","","","","",""
"","S2","","html-keyboard-response","388","410144","0.0-1.0-544.0","0","0","46005","","null","","","null","60","","NaN","","","","","","","","","","","","","",""
"","response","","html-keyboard-response","389","410283","0.0-1.0-545.0-0.0","0","0","46005","","137","","","75","60","","","2","60","training","adjacent","CB","3","2","Q.jpg","O.jpg","1","0","0","",""
"","feedback","","html-keyboard-response","390","411295","0.0-1.0-546.0-0.0","0","0","46005","","null","","","null","60","","","","","","","","","","","","","","","",""
"","time_out","","html-keyboard-response","391","413317","0.0-1.0-548.0-0.0","0","0","46005","","null","","","null","60","","","","","","","","","","","","","","","",""
"","ITI","","html-keyboard-response","392","414340","0.0-1.0-549.0","0","0","46005","","null","","","null","60","","","","","","","","","","","","","","","NaN",""
"","S1","","html-keyboard-response","393","414608","0.0-1.0-551.0","0","0","46005","","null","","","null","61","","","","","","","","","","","","","","","",""
"","ISI","","html-keyboard-response","394","415618","0.0-1.0-552.0","0","0","46005","","299","","","68","61","d","","","","","","","","","","","","","","",""
"","S2","","html-keyboard-response","395","415871","0.0-1.0-553.0","0","0","46005","","null","","","null","61","","NaN","","","","","","","","","","","","","",""
"","response","","html-keyboard-response","396","416423","0.0-1.0-554.0-0.0","0","0","46005","","549","","","68","61","","","2","61","training","adjacent","BA","2","1","O.jpg","R.jpg","0","0","1","",""
"","feedback","","html-keyboard-response","397","417431","0.0-1.0-555.0-0.0","0","0","46005","","null","","","null","61","","","","","","","","","","","","","","","",""
"","ITI","","html-keyboard-response","398","418441","0.0-1.0-558.0","0","0","46005","","null","","","null","61","","","","","","","","","","","","","","","NaN",""
"","S1","","html-keyboard-response","399","418709","0.0-1.0-560.0","0","0","46005","","null","","","null","62","","","","","","","","","","","","","","","",""
"","ISI","","html-keyboard-response","400","419722","0.0-1.0-561.0","0","0","46005","","null","","","null","62","NaN","","","","","","","","","","","","","","",""
"","S2","","html-keyboard-response","401","420007","0.0-1.0-562.0","0","0","46005","","null","","","null","62","","NaN","","","","","","","","","","","","","",""
"","response","","html-keyboard-response","402","420592","0.0-1.0-563.0-0.0","0","0","46005","","582","","","75","62","","","2","62","training","adjacent","CD","3","4","Q.jpg","P.jpg","1","1","1","",""
"","feedback","","html-keyboard-response","403","421604","0.0-1.0-564.0-0.0","0","0","46005","","null","","","null","62","","","","","","","","","","","","","","","",""
"","ITI","","html-keyboard-response","404","422615","0.0-1.0-567.0","0","0","46005","","null","","","null","62","","","","","","","","","","","","","","","NaN",""
"","S1","","html-keyboard-response","405","422883","0.0-1.0-569.0","0","0","46005","","null","","","null","63","","","","","","","","","","","","","","","",""
"","ISI","","html-keyboard-response","406","423893","0.0-1.0-570.0","0","0","46005","","null","","","null","63","NaN","","","","","","","","","","","","","","",""
"","S2","","html-keyboard-response","407","424161","0.0-1.0-571.0","0","0","46005","","null","","","null","63","","NaN","","","","","","","","","","","","","",""
"","response","","html-keyboard-response","408","425080","0.0-1.0-572.0-0.0","0","0","46005","","915","","","68","63","","","2","63","training","adjacent","ED","5","4","L.jpg","P.jpg","0","0","1","",""
"","feedback","","html-keyboard-response","409","426099","0.0-1.0-573.0-0.0","0","0","46005","","null","","","null","63","","","","","","","","","","","","","","","",""
"","ITI","","html-keyboard-response","410","427108","0.0-1.0-576.0","0","0","46005","","null","","","null","63","","","","","","","","","","","","","","","NaN",""
"","S1","","html-keyboard-response","411","427376","0.0-1.0-578.0","0","0","46005","","null","","","null","64","","","","","","","","","","","","","","","",""
"","ISI","","html-keyboard-response","412","428403","0.0-1.0-579.0","0","0","46005","","null","","","null","64","NaN","","","","","","","","","","","","","","",""
"","S2","","html-keyboard-response","413","428672","0.0-1.0-580.0","0","0","46005","","null","","","null","64","","NaN","","","","","","","","","","","","","",""
"","response","","html-keyboard-response","414","429439","0.0-1.0-581.0-0.0","0","0","46005","","766","","","75","64","","","2","64","training","adjacent","ED","5","4","L.jpg","P.jpg","1","0","0","",""
"","feedback","","html-keyboard-response","415","430459","0.0-1.0-582.0-0.0","0","0","46005","","null","","","null","64","","","","","","","","","","","","","","","",""
"","time_out","","html-keyboard-response","416","432477","0.0-1.0-584.0-0.0","0","0","46005","","null","","","null","64","","","","","","","","","","","","","","","",""
"","ITI","","html-keyboard-response","417","433488","0.0-1.0-585.0","0","0","46005","","null","","","null","64","","","","","","","","","","","","","","","NaN",""
"","S1","","html-keyboard-response","418","433742","0.0-1.0-587.0","0","0","46005","","null","","","null","65","","","","","","","","","","","","","","","",""
"","ISI","","html-keyboard-response","419","434766","0.0-1.0-588.0","0","0","46005","","null","","","null","65","NaN","","","","","","","","","","","","","","",""
"","S2","","html-keyboard-response","420","435034","0.0-1.0-589.0","0","0","46005","","null","","","null","65","","NaN","","","","","","","","","","","","","",""
"","response","","html-keyboard-response","421","435420","0.0-1.0-590.0-0.0","0","0","46005","","383","","","68","65","","","2","65","training","adjacent","BC","2","3","O.jpg","Q.jpg","0","1","0","",""
"","feedback","","html-keyboard-response","422","436426","0.0-1.0-591.0-0.0","0","0","46005","","null","","","null","65","","","","","","","","","","","","","","","",""
"","time_out","","html-keyboard-response","423","438432","0.0-1.0-593.0-0.0","0","0","46005","","null","","","null","65","","","","","","","","","","","","","","","",""
"","ITI","","html-keyboard-response","424","439445","0.0-1.0-594.0","0","0","46005","","null","","","null","65","","","","","","","","","","","","","","","NaN",""
"","S1","","html-keyboard-response","425","439698","0.0-1.0-596.0","0","0","46005","","null","","","null","66","","","","","","","","","","","","","","","",""
"","ISI","","html-keyboard-response","426","440742","0.0-1.0-597.0","0","0","46005","","null","","","null","66","NaN","","","","","","","","","","","","","","",""
"","S2","","html-keyboard-response","427","441011","0.0-1.0-598.0","0","0","46005","","null","","","null","66","","NaN","","","","","","","","","","","","","",""
"","response","","html-keyboard-response","428","441619","0.0-1.0-599.0-0.0","0","0","46005","","605","","","75","66","","","2","66","training","adjacent","DE","4","5","P.jpg","L.jpg","1","1","1","",""
"","feedback","","html-keyboard-response","429","442636","0.0-1.0-600.0-0.0","0","0","46005","","null","","","null","66","","","","","","","","","","","","","","","",""
"","ITI","","html-keyboard-response","430","443647","0.0-1.0-603.0","0","0","46005","","null","","","null","66","","","","","","","","","","","","","","","NaN",""
"","S1","","html-keyboard-response","431","443915","0.0-1.0-605.0","0","0","46005","","null","","","null","67","","","","","","","","","","","","","","","",""
"","ISI","","html-keyboard-response","432","444925","0.0-1.0-606.0","0","0","46005","","null","","","null","67","NaN","","","","","","","","","","","","","","",""
"","S2","","html-keyboard-response","433","445179","0.0-1.0-607.0","0","0","46005","","null","","","null","67","","NaN","","","","","","","","","","","","","",""
"","response","","html-keyboard-response","434","445785","0.0-1.0-608.0-0.0","0","0","46005","","604","","","75","67","","","2","67","training","adjacent","DC","4","3","P.jpg","Q.jpg","1","0","0","",""
"","feedback","","html-keyboard-response","435","446819","0.0-1.0-609.0-0.0","0","0","46005","","null","","","null","67","","","","","","","","","","","","","","","",""
"","time_out","","html-keyboard-response","436","448838","0.0-1.0-611.0-0.0","0","0","46005","","null","","","null","67","","","","","","","","","","","","","","","",""
"","ITI","","html-keyboard-response","437","449850","0.0-1.0-612.0","0","0","46005","","null","","","null","67","","","","","","","","","","","","","","","NaN",""
"","S1","","html-keyboard-response","438","450119","0.0-1.0-614.0","0","0","46005","","null","","","null","68","","","","","","","","","","","","","","","",""
"","ISI","","html-keyboard-response","439","451142","0.0-1.0-615.0","0","0","46005","","null","","","null","68","NaN","","","","","","","","","","","","","","",""
"","S2","","html-keyboard-response","440","451411","0.0-1.0-616.0","0","0","46005","","null","","","null","68","","NaN","","","","","","","","","","","","","",""
"","response","","html-keyboard-response","441","451773","0.0-1.0-617.0-0.0","0","0","46005","","360","","","68","68","","","2","68","training","adjacent","BA","2","1","O.jpg","R.jpg","0","0","1","",""
"","feedback","","html-keyboard-response","442","452785","0.0-1.0-618.0-0.0","0","0","46005","","null","","","null","68","","","","","","","","","","","","","","","",""
"","ITI","","html-keyboard-response","443","453799","0.0-1.0-621.0","0","0","46005","","null","","","null","68","","","","","","","","","","","","","","","NaN",""
"","S1","","html-keyboard-response","444","454053","0.0-1.0-623.0","0","0","46005","","null","","","null","69","","","","","","","","","","","","","","","",""
"","ISI","","html-keyboard-response","445","455064","0.0-1.0-624.0","0","0","46005","","null","","","null","69","NaN","","","","","","","","","","","","","","",""
"","S2","","html-keyboard-response","446","455332","0.0-1.0-625.0","0","0","46005","","null","","","null","69","","NaN","","","","","","","","","","","","","",""
"","response","","html-keyboard-response","447","455891","0.0-1.0-626.0-0.0","0","0","46005","","556","","","75","69","","","2","69","training","adjacent","GF","7","6","M.jpg","N.jpg","1","0","0","",""
"","feedback","","html-keyboard-response","448","456911","0.0-1.0-627.0-0.0","0","0","46005","","null","","","null","69","","","","","","","","","","","","","","","",""
"","time_out","","html-keyboard-response","449","458949","0.0-1.0-629.0-0.0","0","0","46005","","null","","","null","69","","","","","","","","","","","","","","","",""
"","ITI","","html-keyboard-response","450","459961","0.0-1.0-630.0","0","0","46005","","null","","","null","69","","","","","","","","","","","","","","","NaN",""
"","S1","","html-keyboard-response","451","460229","0.0-1.0-632.0","0","0","46005","","null","","","null","70","","","","","","","","","","","","","","","",""
"","ISI","","html-keyboard-response","452","461254","0.0-1.0-633.0","0","0","46005","","null","","","null","70","NaN","","","","","","","","","","","","","","",""
"","S2","","html-keyboard-response","453","461522","0.0-1.0-634.0","0","0","46005","","null","","","null","70","","NaN","","","","","","","","","","","","","",""
"","response","","html-keyboard-response","454","462213","0.0-1.0-635.0-0.0","0","0","46005","","688","","","68","70","","","2","70","training","adjacent","CD","3","4","Q.jpg","P.jpg","0","1","0","",""
"","feedback","","html-keyboard-response","455","463224","0.0-1.0-636.0-0.0","0","0","46005","","null","","","null","70","","","","","","","","","","","","","","","",""
"","time_out","","html-keyboard-response","456","465229","0.0-1.0-638.0-0.0","0","0","46005","","null","","","null","70","","","","","","","","","","","","","","","",""
"","ITI","","html-keyboard-response","457","466239","0.0-1.0-639.0","0","0","46005","","null","","","null","70","","","","","","","","","","","","","","","NaN",""
"","S1","","html-keyboard-response","458","466507","0.0-1.0-641.0","0","0","46005","","null","","","null","71","","","","","","","","","","","","","","","",""
"","ISI","","html-keyboard-response","459","467517","0.0-1.0-642.0","0","0","46005","","null","","","null","71","NaN","","","","","","","","","","","","","","",""
"","S2","","html-keyboard-response","460","467801","0.0-1.0-643.0","0","0","46005","","null","","","null","71","","NaN","","","","","","","","","","","","","",""
"","response","","html-keyboard-response","461","468269","0.0-1.0-644.0-0.0","0","0","46005","","465","","","75","71","","","2","71","training","adjacent","DC","4","3","P.jpg","Q.jpg","1","0","0","",""
"","feedback","","html-keyboard-response","462","469287","0.0-1.0-645.0-0.0","0","0","46005","","null","","","null","71","","","","","","","","","","","","","","","",""
"","time_out","","html-keyboard-response","463","471291","0.0-1.0-647.0-0.0","0","0","46005","","null","","","null","71","","","","","","","","","","","","","","","",""
"","ITI","","html-keyboard-response","464","472300","0.0-1.0-648.0","0","0","46005","","null","","","null","71","","","","","","","","","","","","","","","NaN",""
"","S1","","html-keyboard-response","465","472555","0.0-1.0-650.0","0","0","46005","","null","","","null","72","","","","","","","","","","","","","","","",""
"","ISI","","html-keyboard-response","466","473580","0.0-1.0-651.0","0","0","46005","","null","","","null","72","NaN","","","","","","","","","","","","","","",""
"","S2","","html-keyboard-response","467","473848","0.0-1.0-652.0","0","0","46005","","null","","","null","72","","NaN","","","","","","","","","","","","","",""
"","response","","html-keyboard-response","468","474087","0.0-1.0-653.0-0.0","0","0","46005","","236","","","68","72","","","2","72","training","adjacent","BA","2","1","O.jpg","R.jpg","0","0","1","",""
"","feedback","","html-keyboard-response","469","475094","0.0-1.0-654.0-0.0","0","0","46005","","null","","","null","72","","","","","","","","","","","","","","","",""
"","ITI","","html-keyboard-response","470","476103","0.0-1.0-657.0","0","0","46005","","null","","","null","72","","","","","","","","","","","","","","","NaN",""
"","S1","","html-keyboard-response","471","476369","0.0-1.0-659.0","0","0","46005","","null","","","null","73","","","","","","","","","","","","","","","",""
"","ISI","","html-keyboard-response","472","477379","0.0-1.0-660.0","0","0","46005","","null","","","null","73","NaN","","","","","","","","","","","","","","",""
"","S2","","html-keyboard-response","473","477649","0.0-1.0-661.0","0","0","46005","","null","","","null","73","","NaN","","","","","","","","","","","","","",""
"","response","","html-keyboard-response","474","479432","0.0-1.0-662.0-0.0","0","0","46005","","null","","","null","73","","","2","73","training","adjacent","DE","4","5","P.jpg","L.jpg","NaN","1","0","",""
"","too_slow_prompt","","html-keyboard-response","475","480458","0.0-1.0-664.0-0.0","1","0","46005","","null","","","null","","","","","","","","","","","","","","","","",""
"","time_out","","html-keyboard-response","476","482475","0.0-1.0-665.0-0.0","0","0","46005","","null","","","null","73","","","","","","","","","","","","","","","",""
"","ITI","","html-keyboard-response","477","483483","0.0-1.0-666.0","0","0","46005","","null","","","null","73","","","","","","","","","","","","","","","NaN",""
"","S1","","html-keyboard-response","478","483752","0.0-1.0-668.0","0","0","46005","","null","","","null","74","","","","","","","","","","","","","","","",""
"","ISI","","html-keyboard-response","479","484762","0.0-1.0-669.0","0","0","46005","","70","","","75","74","k","","","","","","","","","","","","","","",""
"","S2","","html-keyboard-response","480","485031","0.0-1.0-670.0","0","0","46005","","null","","","null","74","","NaN","","","","","","","","","","","","","",""
"","response","","html-keyboard-response","481","485734","0.0-1.0-671.0-0.0","0","0","46005","","701","","","75","74","","","2","74","training","adjacent","BC","2","3","O.jpg","Q.jpg","1","1","1","",""
"","feedback","","html-keyboard-response","482","486749","0.0-1.0-672.0-0.0","0","0","46005","","null","","","null","74","","","","","","","","","","","","","","","",""
"","ITI","","html-keyboard-response","483","487773","0.0-1.0-675.0","0","0","46005","","null","","","null","74","","","","","","","","","","","","","","","NaN",""
"","S1","","html-keyboard-response","484","488042","0.0-1.0-677.0","0","0","46005","","null","","","null","75","","","","","","","","","","","","","","","",""
"","ISI","","html-keyboard-response","485","489066","0.0-1.0-678.0","0","0","46005","","null","","","null","75","NaN","","","","","","","","","","","","","","",""
"","S2","","html-keyboard-response","486","489335","0.0-1.0-679.0","0","0","46005","","null","","","null","75","","NaN","","","","","","","","","","","","","",""
"","response","","html-keyboard-response","487","490203","0.0-1.0-680.0-0.0","0","0","46005","","866","","","68","75","","","2","75","training","adjacent","AB","1","2","R.jpg","O.jpg","0","1","0","",""
"","feedback","","html-keyboard-response","488","491213","0.0-1.0-681.0-0.0","0","0","46005","","null","","","null","75","","","","","","","","","","","","","","","",""
"","time_out","","html-keyboard-response","489","493232","0.0-1.0-683.0-0.0","0","0","46005","","null","","","null","75","","","","","","","","","","","","","","","",""
"","ITI","","html-keyboard-response","490","494243","0.0-1.0-684.0","0","0","46005","","null","","","null","75","","","","","","","","","","","","","","","NaN",""
"","S1","","html-keyboard-response","491","494497","0.0-1.0-686.0","0","0","46005","","null","","","null","76","","","","","","","","","","","","","","","",""
"","ISI","","html-keyboard-response","492","495521","0.0-1.0-687.0","0","0","46005","","null","","","null","76","NaN","","","","","","","","","","","","","","",""
"","S2","","html-keyboard-response","493","495789","0.0-1.0-688.0","0","0","46005","","null","","","null","76","","NaN","","","","","","","","","","","","","",""
"","response","","html-keyboard-response","494","495894","0.0-1.0-689.0-0.0","0","0","46005","","103","","","75","76","","","2","76","training","adjacent","DE","4","5","P.jpg","L.jpg","1","1","1","",""
"","feedback","","html-keyboard-response","495","496910","0.0-1.0-690.0-0.0","0","0","46005","","null","","","null","76","","","","","","","","","","","","","","","",""
"","ITI","","html-keyboard-response","496","497914","0.0-1.0-693.0","0","0","46005","","935","","","75","76","","","","","","","","","","","","","","","k",""
"","S1","","html-keyboard-response","497","498176","0.0-1.0-695.0","0","0","46005","","null","","","null","77","","","","","","","","","","","","","","","",""
"","ISI","","html-keyboard-response","498","499189","0.0-1.0-696.0","0","0","46005","","158","","","75","77","k","","","","","","","","","","","","","","",""
"","S2","","html-keyboard-response","499","499443","0.0-1.0-697.0","0","0","46005","","null","","","null","77","","NaN","","","","","","","","","","","","","",""
"","response","","html-keyboard-response","500","499995","0.0-1.0-698.0-0.0","0","0","46005","","550","","","68","77","","","2","77","training","adjacent","CD","3","4","Q.jpg","P.jpg","0","1","0","",""
"","feedback","","html-keyboard-response","501","501036","0.0-1.0-699.0-0.0","0","0","46005","","null","","","null","77","","","","","","","","","","","","","","","",""
"","time_out","","html-keyboard-response","502","503069","0.0-1.0-701.0-0.0","0","0","46005","","null","","","null","77","","","","","","","","","","","","","","","",""
"","ITI","","html-keyboard-response","503","504097","0.0-1.0-702.0","0","0","46005","","null","","","null","77","","","","","","","","","","","","","","","NaN",""
"","S1","","html-keyboard-response","504","504365","0.0-1.0-704.0","0","0","46005","","null","","","null","78","","","","","","","","","","","","","","","",""
"","ISI","","html-keyboard-response","505","505378","0.0-1.0-705.0","0","0","46005","","null","","","null","78","NaN","","","","","","","","","","","","","","",""
"","S2","","html-keyboard-response","506","505647","0.0-1.0-706.0","0","0","46005","","null","","","null","78","","NaN","","","","","","","","","","","","","",""
"","response","","html-keyboard-response","507","506162","0.0-1.0-707.0-0.0","0","0","46005","","513","","","75","78","","","2","78","training","adjacent","ED","5","4","L.jpg","P.jpg","1","0","0","",""
"","feedback","","html-keyboard-response","508","507176","0.0-1.0-708.0-0.0","0","0","46005","","null","","","null","78","","","","","","","","","","","","","","","",""
"","time_out","","html-keyboard-response","509","509194","0.0-1.0-710.0-0.0","0","0","46005","","null","","","null","78","","","","","","","","","","","","","","","",""
"","ITI","","html-keyboard-response","510","510204","0.0-1.0-711.0","0","0","46005","","null","","","null","78","","","","","","","","","","","","","","","NaN",""
"","S1","","html-keyboard-response","511","510459","0.0-1.0-713.0","0","0","46005","","null","","","null","79","","","","","","","","","","","","","","","",""
"","ISI","","html-keyboard-response","512","511469","0.0-1.0-714.0","0","0","46005","","952","","","70","79","f","","","","","","","","","","","","","","",""
"","S2","","html-keyboard-response","513","511722","0.0-1.0-715.0","0","0","46005","","null","","","null","79","","NaN","","","","","","","","","","","","","",""
"","response","","html-keyboard-response","514","512359","0.0-1.0-716.0-0.0","0","0","46005","","635","","","68","79","","","2","79","training","adjacent","CB","3","2","Q.jpg","O.jpg","0","0","1","",""
"","feedback","","html-keyboard-response","515","513364","0.0-1.0-717.0-0.0","0","0","46005","","null","","","null","79","","","","","","","","","","","","","","","",""
"","ITI","","html-keyboard-response","516","514372","0.0-1.0-720.0","0","0","46005","","null","","","null","79","","","","","","","","","","","","","","","NaN",""
"","S1","","html-keyboard-response","517","514626","0.0-1.0-722.0","0","0","46005","","null","","","null","80","","","","","","","","","","","","","","","",""
"","ISI","","html-keyboard-response","518","515634","0.0-1.0-723.0","0","0","46005","","null","","","null","80","NaN","","","","","","","","","","","","","","",""
"","S2","","html-keyboard-response","519","515902","0.0-1.0-724.0","0","0","46005","","null","","","null","80","","NaN","","","","","","","","","","","","","",""
"","response","","html-keyboard-response","520","516410","0.0-1.0-725.0-0.0","0","0","46005","","507","","","68","80","","","2","80","training","adjacent","GF","7","6","M.jpg","N.jpg","0","0","1","",""
"","feedback","","html-keyboard-response","521","517418","0.0-1.0-726.0-0.0","0","0","46005","","null","","","null","80","","","","","","","","","","","","","","","",""
"","ITI","","html-keyboard-response","522","518427","0.0-1.0-729.0","0","0","46005","","null","","","null","80","","","","","","","","","","","","","","","NaN",""
"","S1","","html-keyboard-response","523","518695","0.0-1.0-731.0","0","0","46005","","null","","","null","81","","","","","","","","","","","","","","","",""
"","ISI","","html-keyboard-response","524","519704","0.0-1.0-732.0","0","0","46005","","null","","","null","81","NaN","","","","","","","","","","","","","","",""
"","S2","","html-keyboard-response","525","519971","0.0-1.0-733.0","0","0","46005","","null","","","null","81","","NaN","","","","","","","","","","","","","",""
"","response","","html-keyboard-response","526","521739","0.0-1.0-734.0-0.0","0","0","46005","","null","","","null","81","","","2","81","training","adjacent","FE","6","5","N.jpg","L.jpg","NaN","0","0","",""
"","too_slow_prompt","","html-keyboard-response","527","522749","0.0-1.0-736.0-0.0","1","0","46005","","null","","","null","","","","","","","","","","","","","","","","",""
"","time_out","","html-keyboard-response","528","524765","0.0-1.0-737.0-0.0","0","0","46005","","null","","","null","81","","","","","","","","","","","","","","","",""
"","ITI","","html-keyboard-response","529","525773","0.0-1.0-738.0","0","0","46005","","null","","","null","81","","","","","","","","","","","","","","","NaN",""
"","S1","","html-keyboard-response","530","526026","0.0-1.0-740.0","0","0","46005","","null","","","null","82","","","","","","","","","","","","","","","",""
"","ISI","","html-keyboard-response","531","527035","0.0-1.0-741.0","0","0","46005","","null","","","null","82","NaN","","","","","","","","","","","","","","",""
"","S2","","html-keyboard-response","532","527303","0.0-1.0-742.0","0","0","46005","","null","","","null","82","","NaN","","","","","","","","","","","","","",""
"","response","","html-keyboard-response","533","527666","0.0-1.0-743.0-0.0","0","0","46005","","361","","","68","82","","","2","82","training","adjacent","DE","4","5","P.jpg","L.jpg","0","1","0","",""
"","feedback","","html-keyboard-response","534","528677","0.0-1.0-744.0-0.0","0","0","46005","","null","","","null","82","","","","","","","","","","","","","","","",""
"","time_out","","html-keyboard-response","535","530685","0.0-1.0-746.0-0.0","0","0","46005","","null","","","null","82","","","","","","","","","","","","","","","",""
"","ITI","","html-keyboard-response","536","531695","0.0-1.0-747.0","0","0","46005","","null","","","null","82","","","","","","","","","","","","","","","NaN",""
"","S1","","html-keyboard-response","537","531964","0.0-1.0-749.0","0","0","46005","","null","","","null","83","","","","","","","","","","","","","","","",""
"","ISI","","html-keyboard-response","538","532989","0.0-1.0-750.0","0","0","46005","","null","","","null","83","NaN","","","","","","","","","","","","","","",""
"","S2","","html-keyboard-response","539","533257","0.0-1.0-751.0","0","0","46005","","null","","","null","83","","NaN","","","","","","","","","","","","","",""
"","response","","html-keyboard-response","540","533578","0.0-1.0-752.0-0.0","0","0","46005","","319","","","75","83","","","2","83","training","adjacent","FE","6","5","N.jpg","L.jpg","1","0","0","",""
"","feedback","","html-keyboard-response","541","534597","0.0-1.0-753.0-0.0","0","0","46005","","null","","","null","83","","","","","","","","","","","","","","","",""
"","time_out","","html-keyboard-response","542","536600","0.0-1.0-755.0-0.0","0","0","46005","","null","","","null","83","","","","","","","","","","","","","","","",""
"","ITI","","html-keyboard-response","543","537610","0.0-1.0-756.0","0","0","46005","","null","","","null","83","","","","","","","","","","","","","","","NaN",""
"","S1","","html-keyboard-response","544","537863","0.0-1.0-758.0","0","0","46005","","null","","","null","84","","","","","","","","","","","","","","","",""
"","ISI","","html-keyboard-response","545","538889","0.0-1.0-759.0","0","0","46005","","null","","","null","84","NaN","","","","","","","","","","","","","","",""
"","S2","","html-keyboard-response","546","539031","0.0-1.0-760.0","0","0","46005","","138","","","75","84","","k","2","84","training","adjacent","BC","2","3","O.jpg","Q.jpg","1","1","1","",""
"","feedback","","html-keyboard-response","547","540042","0.0-1.0-762.0-0.0","0","0","46005","","null","","","null","84","","","","","","","","","","","","","","","",""
"","ITI","","html-keyboard-response","548","541051","0.0-1.0-765.0","0","0","46005","","null","","","null","84","","","","","","","","","","","","","","","NaN",""
"","S1","","html-keyboard-response","549","541319","0.0-1.0-767.0","0","0","46005","","null","","","null","85","","","","","","","","","","","","","","","",""
"","ISI","","html-keyboard-response","550","542327","0.0-1.0-768.0","0","0","46005","","null","","","null","85","NaN","","","","","","","","","","","","","","",""
"","S2","","html-keyboard-response","551","542581","0.0-1.0-769.0","0","0","46005","","null","","","null","85","","NaN","","","","","","","","","","","","","",""
"","response","","html-keyboard-response","552","544348","0.0-1.0-770.0-0.0","0","0","46005","","null","","","null","85","","","2","85","training","adjacent","CB","3","2","Q.jpg","O.jpg","NaN","0","0","",""
"","too_slow_prompt","","html-keyboard-response","553","545374","0.0-1.0-772.0-0.0","1","0","46005","","null","","","null","","","","","","","","","","","","","","","","",""
"","time_out","","html-keyboard-response","554","547379","0.0-1.0-773.0-0.0","0","0","46005","","null","","","null","85","","","","","","","","","","","","","","","",""
"","ITI","","html-keyboard-response","555","548391","0.0-1.0-774.0","0","0","46005","","null","","","null","85","","","","","","","","","","","","","","","NaN",""
"","S1","","html-keyboard-response","556","548660","0.0-1.0-776.0","0","0","46005","","null","","","null","86","","","","","","","","","","","","","","","",""
"","ISI","","html-keyboard-response","557","549666","0.0-1.0-777.0","0","0","46005","","1","","","68","86","d","","","","","","","","","","","","","","",""
"","S2","","html-keyboard-response","558","549920","0.0-1.0-778.0","0","0","46005","","null","","","null","86","","NaN","","","","","","","","","","","","","",""
"","response","","html-keyboard-response","559","550067","0.0-1.0-779.0-0.0","0","0","46005","","146","","","68","86","","","2","86","training","adjacent","FG","6","7","N.jpg","M.jpg","0","1","0","",""
"","feedback","","html-keyboard-response","560","551075","0.0-1.0-780.0-0.0","0","0","46005","","null","","","null","86","","","","","","","","","","","","","","","",""
"","time_out","","html-keyboard-response","561","553107","0.0-1.0-782.0-0.0","0","0","46005","","null","","","null","86","","","","","","","","","","","","","","","",""
"","ITI","","html-keyboard-response","562","554131","0.0-1.0-783.0","0","0","46005","","null","","","null","86","","","","","","","","","","","","","","","NaN",""
"","S1","","html-keyboard-response","563","554400","0.0-1.0-785.0","0","0","46005","","null","","","null","87","","","","","","","","","","","","","","","",""
"","ISI","","html-keyboard-response","564","555411","0.0-1.0-786.0","0","0","46005","","974","","","75","87","k","","","","","","","","","","","","","","",""
"","S2","","html-keyboard-response","565","555664","0.0-1.0-787.0","0","0","46005","","null","","","null","87","","NaN","","","","","","","","","","","","","",""
"","response","","html-keyboard-response","566","556257","0.0-1.0-788.0-0.0","0","0","46005","","590","","","75","87","","","2","87","training","adjacent","AB","1","2","R.jpg","O.jpg","1","1","1","",""
"","feedback","","html-keyboard-response","567","557275","0.0-1.0-789.0-0.0","0","0","46005","","null","","","null","87","","","","","","","","","","","","","","","",""
"","ITI","","html-keyboard-response","568","558289","0.0-1.0-792.0","0","0","46005","","null","","","null","87","","","","","","","","","","","","","","","NaN",""
"","S1","","html-keyboard-response","569","558557","0.0-1.0-794.0","0","0","46005","","null","","","null","88","","","","","","","","","","","","","","","",""
"","ISI","","html-keyboard-response","570","559565","0.0-1.0-795.0","0","0","46005","","null","","","null","88","NaN","","","","","","","","","","","","","","",""
"","S2","","html-keyboard-response","571","559832","0.0-1.0-796.0","0","0","46005","","null","","","null","88","","NaN","","","","","","","","","","","","","",""
"","response","","html-keyboard-response","572","559990","0.0-1.0-797.0-0.0","0","0","46005","","155","","","75","88","","","2","88","training","adjacent","FG","6","7","N.jpg","M.jpg","1","1","1","",""
"","feedback","","html-keyboard-response","573","561001","0.0-1.0-798.0-0.0","0","0","46005","","null","","","null","88","","","","","","","","","","","","","","","",""
"","ITI","","html-keyboard-response","574","562025","0.0-1.0-801.0","0","0","46005","","null","","","null","88","","","","","","","","","","","","","","","NaN",""
"","S1","","html-keyboard-response","575","562295","0.0-1.0-803.0","0","0","46005","","null","","","null","89","","","","","","","","","","","","","","","",""
"","ISI","","html-keyboard-response","576","563321","0.0-1.0-804.0","0","0","46005","","null","","","null","89","NaN","","","","","","","","","","","","","","",""
"","S2","","html-keyboard-response","577","563589","0.0-1.0-805.0","0","0","46005","","null","","","null","89","","NaN","","","","","","","","","","","","","",""
"","response","","html-keyboard-response","578","564093","0.0-1.0-806.0-0.0","0","0","46005","","501","","","68","89","","","2","89","training","adjacent","GF","7","6","M.jpg","N.jpg","0","0","1","",""
"","feedback","","html-keyboard-response","579","565107","0.0-1.0-807.0-0.0","0","0","46005","","null","","","null","89","","","","","","","","","","","","","","","",""
"","ITI","","html-keyboard-response","580","566117","0.0-1.0-810.0","0","0","46005","","null","","","null","89","","","","","","","","","","","","","","","NaN",""
"","S1","","html-keyboard-response","581","566385","0.0-1.0-812.0","0","0","46005","","null","","","null","90","","","","","","","","","","","","","","","",""
"","ISI","","html-keyboard-response","582","567393","0.0-1.0-813.0","0","0","46005","","485","","","75","90","k","","","","","","","","","","","","","","",""
