"success","ttype","start_time","trial_type","trial_index","time_elapsed","internal_node_id","warning","missed_checkup","PID","view_history","rt","responses","repeat_instructions","key_press","index","keypress_isi","keypress_S2","block","trial_num","phase","group_type","pair_type","S1_stim","S2_stim","S1_img","S2_img","S1_chosen","S1_higher","accuracy","keypress_iti","total_bonus_tally"
"true","full_screen","d08012022hr1504","fullscreen","0","62088","0.0-0.0","0","0","54541","","","","","","","","","","","","","","","","","","","","","",""
"","instructions","","instructions","1","90163","0.0-1.0-0.0-0.0","0","0","54541","[{""page_index"":0,""viewing_time"":3089},{""page_index"":1,""viewing_time"":17197},{""page_index"":2,""viewing_time"":5757},{""page_index"":3,""viewing_time"":2029}]","28073","","","","","","","","","","","","","","","","","","","",""
"","comprehension_check","","survey-multi-choice","2","111534","0.0-1.0-0.0-1.0","0","0","54541","","21366","{""Q0"":""True"",""Q1"":""K"",""Q2"":""While the images are shown"",""Q3"":""Green mark"",""Q4"":""either D or K""}","1","","","","","","","","","","","","","","","","","",""
"","missed_instruction_checkup","","html-keyboard-response","3","113377","0.0-1.0-0.0-2.0-0.0","0","1","54541","","1840","","","32","","","","","","","","","","","","","","","","",""
"","instructions","","instructions","4","139560","0.0-1.0-0.1-0.1","0","0","54541","[{""page_index"":0,""viewing_time"":5824},{""page_index"":1,""viewing_time"":6127},{""page_index"":2,""viewing_time"":8560},{""page_index"":1,""viewing_time"":3117},{""page_index"":2,""viewing_time"":1103},{""page_index"":3,""viewing_time"":1450}]","26181","","","","","","","","","","","","","","","","","","","",""
"","comprehension_check","","survey-multi-choice","5","154825","0.0-1.0-0.1-1.1","0","0","54541","","15259","{""Q0"":""True"",""Q1"":""K"",""Q2"":""When you see the prompt 'MAKE A CHOICE' after the second image was presented"",""Q3"":""Green mark"",""Q4"":""either D or K""}","0","","","","","","","","","","","","","","","","","",""
"","start_exp","","html-keyboard-response","6","156673","0.0-1.0-1.0","0","0","54541","","1846","","","32","","","","","","","","","","","","","","","","",""
"","S1","","html-keyboard-response","7","156926","0.0-1.0-2.0","0","0","54541","","null","","","null","0","","","","","","","","","","","","","","","",""
"","ISI","","html-keyboard-response","8","158928","0.0-1.0-3.0","0","0","54541","","null","","","null","0","NaN","","","","","","","","","","","","","","",""
"","S2","","html-keyboard-response","9","159181","0.0-1.0-4.0","0","0","54541","","null","","","null","0","","NaN","","","","","","","","","","","","","",""
"","response","","html-keyboard-response","10","160025","0.0-1.0-5.0","0","0","54541","","842","","","75","0","","","1","0","training","adjacent","BC","2","3","P.jpg","Q.jpg","1","1","1","",""
"","feedback","","html-keyboard-response","11","161027","0.0-1.0-6.0-0.0","0","0","54541","","null","","","null","0","","","","","","","","","","","","","","","",""
"","ITI","","html-keyboard-response","12","162029","0.0-1.0-9.0","0","0","54541","","null","","","null","0","","","","","","","","","","","","","","","NaN",""
"","S1","","html-keyboard-response","13","162281","0.0-1.0-11.0","0","0","54541","","null","","","null","1","","","","","","","","","","","","","","","",""
"","ISI","","html-keyboard-response","14","164284","0.0-1.0-12.0","0","0","54541","","null","","","null","1","NaN","","","","","","","","","","","","","","",""
"","S2","","html-keyboard-response","15","164536","0.0-1.0-13.0","0","0","54541","","null","","","null","1","","NaN","","","","","","","","","","","","","",""
"","response","","html-keyboard-response","16","164865","0.0-1.0-14.0","0","0","54541","","327","","","68","1","","","1","1","training","adjacent","FG","6","7","M.jpg","O.jpg","0","1","0","",""
"","feedback","","html-keyboard-response","17","165867","0.0-1.0-15.0-0.0","0","0","54541","","null","","","null","1","","","","","","","","","","","","","","","",""
"","time_out","","html-keyboard-response","18","167869","0.0-1.0-17.0-0.0","0","0","54541","","null","","","null","1","","","","","","","","","","","","","","","",""
"","ITI","","html-keyboard-response","19","168872","0.0-1.0-18.0","0","0","54541","","null","","","null","1","","","","","","","","","","","","","","","NaN",""
"","S1","","html-keyboard-response","20","169125","0.0-1.0-20.0","0","0","54541","","null","","","null","2","","","","","","","","","","","","","","","",""
"","ISI","","html-keyboard-response","21","171126","0.0-1.0-21.0","0","0","54541","","null","","","null","2","NaN","","","","","","","","","","","","","","",""
"","S2","","html-keyboard-response","22","171378","0.0-1.0-22.0","0","0","54541","","null","","","null","2","","NaN","","","","","","","","","","","","","",""
"","response","","html-keyboard-response","23","171562","0.0-1.0-23.0","0","0","54541","","181","","","75","2","","","1","2","training","adjacent","GF","7","6","O.jpg","M.jpg","1","0","0","",""
"","feedback","","html-keyboard-response","24","172564","0.0-1.0-24.0-0.0","0","0","54541","","null","","","null","2","","","","","","","","","","","","","","","",""
"","time_out","","html-keyboard-response","25","174566","0.0-1.0-26.0-0.0","0","0","54541","","null","","","null","2","","","","","","","","","","","","","","","",""
"","ITI","","html-keyboard-response","26","175569","0.0-1.0-27.0","0","0","54541","","null","","","null","2","","","","","","","","","","","","","","","NaN",""
"","S1","","html-keyboard-response","27","175821","0.0-1.0-29.0","0","0","54541","","null","","","null","3","","","","","","","","","","","","","","","",""
"","ISI","","html-keyboard-response","28","177823","0.0-1.0-30.0","0","0","54541","","null","","","null","3","NaN","","","","","","","","","","","","","","",""
"","S2","","html-keyboard-response","29","178075","0.0-1.0-31.0","0","0","54541","","null","","","null","3","","NaN","","","","","","","","","","","","","",""
"","response","","html-keyboard-response","30","178697","0.0-1.0-32.0","0","0","54541","","620","","","75","3","","","1","3","training","adjacent","CD","3","4","Q.jpg","R.jpg","1","1","1","",""
"","feedback","","html-keyboard-response","31","179699","0.0-1.0-33.0-0.0","0","0","54541","","null","","","null","3","","","","","","","","","","","","","","","",""
"","ITI","","html-keyboard-response","32","180702","0.0-1.0-36.0","0","0","54541","","null","","","null","3","","","","","","","","","","","","","","","NaN",""
"","S1","","html-keyboard-response","33","180954","0.0-1.0-38.0","0","0","54541","","null","","","null","4","","","","","","","","","","","","","","","",""
"","ISI","","html-keyboard-response","34","182956","0.0-1.0-39.0","0","0","54541","","null","","","null","4","NaN","","","","","","","","","","","","","","",""
"","S2","","html-keyboard-response","35","183208","0.0-1.0-40.0","0","0","54541","","null","","","null","4","","NaN","","","","","","","","","","","","","",""
"","response","","html-keyboard-response","36","183849","0.0-1.0-41.0","0","0","54541","","639","","","68","4","","","1","4","training","adjacent","AB","1","2","L.jpg","P.jpg","0","1","0","",""
"","feedback","","html-keyboard-response","37","184851","0.0-1.0-42.0-0.0","0","0","54541","","null","","","null","4","","","","","","","","","","","","","","","",""
"","time_out","","html-keyboard-response","38","186854","0.0-1.0-44.0-0.0","0","0","54541","","null","","","null","4","","","","","","","","","","","","","","","",""
"","ITI","","html-keyboard-response","39","187856","0.0-1.0-45.0","0","0","54541","","null","","","null","4","","","","","","","","","","","","","","","NaN",""
"","S1","","html-keyboard-response","40","188108","0.0-1.0-47.0","0","0","54541","","null","","","null","5","","","","","","","","","","","","","","","",""
"","ISI","","html-keyboard-response","41","190111","0.0-1.0-48.0","0","0","54541","","null","","","null","5","NaN","","","","","","","","","","","","","","",""
"","S2","","html-keyboard-response","42","190363","0.0-1.0-49.0","0","0","54541","","null","","","null","5","","NaN","","","","","","","","","","","","","",""
"","response","","html-keyboard-response","43","190857","0.0-1.0-50.0","0","0","54541","","492","","","75","5","","","1","5","training","adjacent","CD","3","4","Q.jpg","R.jpg","1","1","1","",""
"","feedback","","html-keyboard-response","44","191860","0.0-1.0-51.0-0.0","0","0","54541","","null","","","null","5","","","","","","","","","","","","","","","",""
"","ITI","","html-keyboard-response","45","192863","0.0-1.0-54.0","0","0","54541","","null","","","null","5","","","","","","","","","","","","","","","NaN",""
"","S1","","html-keyboard-response","46","193115","0.0-1.0-56.0","0","0","54541","","null","","","null","6","","","","","","","","","","","","","","","",""
"","ISI","","html-keyboard-response","47","195118","0.0-1.0-57.0","0","0","54541","","null","","","null","6","NaN","","","","","","","","","","","","","","",""
"","S2","","html-keyboard-response","48","195369","0.0-1.0-58.0","0","0","54541","","null","","","null","6","","NaN","","","","","","","","","","","","","",""
"","response","","html-keyboard-response","49","195841","0.0-1.0-59.0","0","0","54541","","470","","","75","6","","","1","6","training","adjacent","CB","3","2","Q.jpg","P.jpg","1","0","0","",""
"","feedback","","html-keyboard-response","50","196844","0.0-1.0-60.0-0.0","0","0","54541","","null","","","null","6","","","","","","","","","","","","","","","",""
"","time_out","","html-keyboard-response","51","198847","0.0-1.0-62.0-0.0","0","0","54541","","null","","","null","6","","","","","","","","","","","","","","","",""
"","ITI","","html-keyboard-response","52","199849","0.0-1.0-63.0","0","0","54541","","null","","","null","6","","","","","","","","","","","","","","","NaN",""
"","S1","","html-keyboard-response","53","200100","0.0-1.0-65.0","0","0","54541","","null","","","null","7","","","","","","","","","","","","","","","",""
"","ISI","","html-keyboard-response","54","202102","0.0-1.0-66.0","0","0","54541","","null","","","null","7","NaN","","","","","","","","","","","","","","",""
"","S2","","html-keyboard-response","55","202356","0.0-1.0-67.0","0","0","54541","","null","","","null","7","","NaN","","","","","","","","","","","","","",""
"","response","","html-keyboard-response","56","202825","0.0-1.0-68.0","0","0","54541","","468","","","75","7","","","1","7","training","adjacent","AB","1","2","L.jpg","P.jpg","1","1","1","",""
"","feedback","","html-keyboard-response","57","203827","0.0-1.0-69.0-0.0","0","0","54541","","null","","","null","7","","","","","","","","","","","","","","","",""
"","ITI","","html-keyboard-response","58","204830","0.0-1.0-72.0","0","0","54541","","null","","","null","7","","","","","","","","","","","","","","","NaN",""
"","S1","","html-keyboard-response","59","205083","0.0-1.0-74.0","0","0","54541","","null","","","null","8","","","","","","","","","","","","","","","",""
"","ISI","","html-keyboard-response","60","207085","0.0-1.0-75.0","0","0","54541","","null","","","null","8","NaN","","","","","","","","","","","","","","",""
"","S2","","html-keyboard-response","61","207338","0.0-1.0-76.0","0","0","54541","","null","","","null","8","","NaN","","","","","","","","","","","","","",""
"","response","","html-keyboard-response","62","207761","0.0-1.0-77.0","0","0","54541","","421","","","68","8","","","1","8","training","adjacent","EF","5","6","N.jpg","M.jpg","0","1","0","",""
"","feedback","","html-keyboard-response","63","208763","0.0-1.0-78.0-0.0","0","0","54541","","null","","","null","8","","","","","","","","","","","","","","","",""
"","time_out","","html-keyboard-response","64","210766","0.0-1.0-80.0-0.0","0","0","54541","","null","","","null","8","","","","","","","","","","","","","","","",""
"","ITI","","html-keyboard-response","65","211768","0.0-1.0-81.0","0","0","54541","","null","","","null","8","","","","","","","","","","","","","","","NaN",""
"","S1","","html-keyboard-response","66","212021","0.0-1.0-83.0","0","0","54541","","null","","","null","9","","","","","","","","","","","","","","","",""
"","ISI","","html-keyboard-response","67","214023","0.0-1.0-84.0","0","0","54541","","null","","","null","9","NaN","","","","","","","","","","","","","","",""
"","S2","","html-keyboard-response","68","214275","0.0-1.0-85.0","0","0","54541","","null","","","null","9","","NaN","","","","","","","","","","","","","",""
"","response","","html-keyboard-response","69","214753","0.0-1.0-86.0","0","0","54541","","476","","","75","9","","","1","9","training","adjacent","CB","3","2","Q.jpg","P.jpg","1","0","0","",""
"","feedback","","html-keyboard-response","70","215757","0.0-1.0-87.0-0.0","0","0","54541","","null","","","null","9","","","","","","","","","","","","","","","",""
"","time_out","","html-keyboard-response","71","217760","0.0-1.0-89.0-0.0","0","0","54541","","null","","","null","9","","","","","","","","","","","","","","","",""
"","ITI","","html-keyboard-response","72","218762","0.0-1.0-90.0","0","0","54541","","null","","","null","9","","","","","","","","","","","","","","","NaN",""
"","S1","","html-keyboard-response","73","219015","0.0-1.0-92.0","0","0","54541","","null","","","null","10","","","","","","","","","","","","","","","",""
"","ISI","","html-keyboard-response","74","221017","0.0-1.0-93.0","0","0","54541","","null","","","null","10","NaN","","","","","","","","","","","","","","",""
"","S2","","html-keyboard-response","75","221269","0.0-1.0-94.0","0","0","54541","","null","","","null","10","","NaN","","","","","","","","","","","","","",""
"","response","","html-keyboard-response","76","221649","0.0-1.0-95.0","0","0","54541","","379","","","68","10","","","1","10","training","adjacent","FG","6","7","M.jpg","O.jpg","0","1","0","",""
"","feedback","","html-keyboard-response","77","222651","0.0-1.0-96.0-0.0","0","0","54541","","null","","","null","10","","","","","","","","","","","","","","","",""
"","time_out","","html-keyboard-response","78","224654","0.0-1.0-98.0-0.0","0","0","54541","","null","","","null","10","","","","","","","","","","","","","","","",""
"","ITI","","html-keyboard-response","79","225656","0.0-1.0-99.0","0","0","54541","","null","","","null","10","","","","","","","","","","","","","","","NaN",""
"","S1","","html-keyboard-response","80","225908","0.0-1.0-101.0","0","0","54541","","null","","","null","11","","","","","","","","","","","","","","","",""
"","ISI","","html-keyboard-response","81","227909","0.0-1.0-102.0","0","0","54541","","null","","","null","11","NaN","","","","","","","","","","","","","","",""
"","S2","","html-keyboard-response","82","228162","0.0-1.0-103.0","0","0","54541","","null","","","null","11","","NaN","","","","","","","","","","","","","",""
"","response","","html-keyboard-response","83","228329","0.0-1.0-104.0","0","0","54541","","166","","","75","11","","","1","11","training","adjacent","FG","6","7","M.jpg","O.jpg","1","1","1","",""
"","feedback","","html-keyboard-response","84","229336","0.0-1.0-105.0-0.0","0","0","54541","","null","","","null","11","","","","","","","","","","","","","","","",""
"","ITI","","html-keyboard-response","85","230338","0.0-1.0-108.0","0","0","54541","","null","","","null","11","","","","","","","","","","","","","","","NaN",""
"","S1","","html-keyboard-response","86","230592","0.0-1.0-110.0","0","0","54541","","null","","","null","12","","","","","","","","","","","","","","","",""
"","ISI","","html-keyboard-response","87","232594","0.0-1.0-111.0","0","0","54541","","null","","","null","12","NaN","","","","","","","","","","","","","","",""
"","S2","","html-keyboard-response","88","232847","0.0-1.0-112.0","0","0","54541","","null","","","null","12","","NaN","","","","","","","","","","","","","",""
"","response","","html-keyboard-response","89","233081","0.0-1.0-113.0","0","0","54541","","233","","","68","12","","","1","12","training","adjacent","DC","4","3","R.jpg","Q.jpg","0","0","1","",""
"","feedback","","html-keyboard-response","90","234085","0.0-1.0-114.0-0.0","0","0","54541","","null","","","null","12","","","","","","","","","","","","","","","",""
"","ITI","","html-keyboard-response","91","235086","0.0-1.0-117.0","0","0","54541","","null","","","null","12","","","","","","","","","","","","","","","NaN",""
"","S1","","html-keyboard-response","92","235339","0.0-1.0-119.0","0","0","54541","","null","","","null","13","","","","","","","","","","","","","","","",""
"","ISI","","html-keyboard-response","93","237341","0.0-1.0-120.0","0","0","54541","","null","","","null","13","NaN","","","","","","","","","","","","","","",""
"","S2","","html-keyboard-response","94","237593","0.0-1.0-121.0","0","0","54541","","null","","","null","13","","NaN","","","","","","","","","","","","","",""
"","response","","html-keyboard-response","95","238049","0.0-1.0-122.0","0","0","54541","","454","","","75","13","","","1","13","training","adjacent","DC","4","3","R.jpg","Q.jpg","1","0","0","",""
"","feedback","","html-keyboard-response","96","239051","0.0-1.0-123.0-0.0","0","0","54541","","null","","","null","13","","","","","","","","","","","","","","","",""
"","time_out","","html-keyboard-response","97","241055","0.0-1.0-125.0-0.0","0","0","54541","","null","","","null","13","","","","","","","","","","","","","","","",""
"","ITI","","html-keyboard-response","98","242058","0.0-1.0-126.0","0","0","54541","","null","","","null","13","","","","","","","","","","","","","","","NaN",""
"","S1","","html-keyboard-response","99","242309","0.0-1.0-128.0","0","0","54541","","null","","","null","14","","","","","","","","","","","","","","","",""
"","ISI","","html-keyboard-response","100","244312","0.0-1.0-129.0","0","0","54541","","null","","","null","14","NaN","","","","","","","","","","","","","","",""
"","S2","","html-keyboard-response","101","244565","0.0-1.0-130.0","0","0","54541","","null","","","null","14","","NaN","","","","","","","","","","","","","",""
"","response","","html-keyboard-response","102","244901","0.0-1.0-131.0","0","0","54541","","334","","","68","14","","","1","14","training","adjacent","AB","1","2","L.jpg","P.jpg","0","1","0","",""
"","feedback","","html-keyboard-response","103","245904","0.0-1.0-132.0-0.0","0","0","54541","","null","","","null","14","","","","","","","","","","","","","","","",""
"","time_out","","html-keyboard-response","104","247906","0.0-1.0-134.0-0.0","0","0","54541","","null","","","null","14","","","","","","","","","","","","","","","",""
"","ITI","","html-keyboard-response","105","248909","0.0-1.0-135.0","0","0","54541","","null","","","null","14","","","","","","","","","","","","","","","NaN",""
"","S1","","html-keyboard-response","106","249161","0.0-1.0-137.0","0","0","54541","","null","","","null","15","","","","","","","","","","","","","","","",""
"","ISI","","html-keyboard-response","107","251164","0.0-1.0-138.0","0","0","54541","","null","","","null","15","NaN","","","","","","","","","","","","","","",""
"","S2","","html-keyboard-response","108","251416","0.0-1.0-139.0","0","0","54541","","null","","","null","15","","NaN","","","","","","","","","","","","","",""
"","response","","html-keyboard-response","109","251905","0.0-1.0-140.0","0","0","54541","","488","","","75","15","","","1","15","training","adjacent","ED","5","4","N.jpg","R.jpg","1","0","0","",""
"","feedback","","html-keyboard-response","110","252908","0.0-1.0-141.0-0.0","0","0","54541","","null","","","null","15","","","","","","","","","","","","","","","",""
"","time_out","","html-keyboard-response","111","254910","0.0-1.0-143.0-0.0","0","0","54541","","null","","","null","15","","","","","","","","","","","","","","","",""
"","ITI","","html-keyboard-response","112","255913","0.0-1.0-144.0","0","0","54541","","null","","","null","15","","","","","","","","","","","","","","","NaN",""
"","S1","","html-keyboard-response","113","256166","0.0-1.0-146.0","0","0","54541","","null","","","null","16","","","","","","","","","","","","","","","",""
"","ISI","","html-keyboard-response","114","258167","0.0-1.0-147.0","0","0","54541","","null","","","null","16","NaN","","","","","","","","","","","","","","",""
"","S2","","html-keyboard-response","115","258420","0.0-1.0-148.0","0","0","54541","","null","","","null","16","","NaN","","","","","","","","","","","","","",""
"","response","","html-keyboard-response","116","258930","0.0-1.0-149.0","0","0","54541","","508","","","68","16","","","1","16","training","adjacent","ED","5","4","N.jpg","R.jpg","0","0","1","",""
"","feedback","","html-keyboard-response","117","259932","0.0-1.0-150.0-0.0","0","0","54541","","null","","","null","16","","","","","","","","","","","","","","","",""
"","ITI","","html-keyboard-response","118","260935","0.0-1.0-153.0","0","0","54541","","null","","","null","16","","","","","","","","","","","","","","","NaN",""
"","S1","","html-keyboard-response","119","261188","0.0-1.0-155.0","0","0","54541","","null","","","null","17","","","","","","","","","","","","","","","",""
"","ISI","","html-keyboard-response","120","263190","0.0-1.0-156.0","0","0","54541","","null","","","null","17","NaN","","","","","","","","","","","","","","",""
"","S2","","html-keyboard-response","121","263443","0.0-1.0-157.0","0","0","54541","","null","","","null","17","","NaN","","","","","","","","","","","","","",""
"","response","","html-keyboard-response","122","264137","0.0-1.0-158.0","0","0","54541","","693","","","68","17","","","1","17","training","adjacent","EF","5","6","N.jpg","M.jpg","0","1","0","",""
"","feedback","","html-keyboard-response","123","265139","0.0-1.0-159.0-0.0","0","0","54541","","null","","","null","17","","","","","","","","","","","","","","","",""
"","time_out","","html-keyboard-response","124","267142","0.0-1.0-161.0-0.0","0","0","54541","","null","","","null","17","","","","","","","","","","","","","","","",""
"","ITI","","html-keyboard-response","125","268143","0.0-1.0-162.0","0","0","54541","","null","","","null","17","","","","","","","","","","","","","","","NaN",""
"","S1","","html-keyboard-response","126","268396","0.0-1.0-164.0","0","0","54541","","null","","","null","18","","","","","","","","","","","","","","","",""
"","ISI","","html-keyboard-response","127","270399","0.0-1.0-165.0","0","0","54541","","null","","","null","18","NaN","","","","","","","","","","","","","","",""
"","S2","","html-keyboard-response","128","270652","0.0-1.0-166.0","0","0","54541","","null","","","null","18","","NaN","","","","","","","","","","","","","",""
"","response","","html-keyboard-response","129","270985","0.0-1.0-167.0","0","0","54541","","332","","","68","18","","","1","18","training","adjacent","DE","4","5","R.jpg","N.jpg","0","1","0","",""
"","feedback","","html-keyboard-response","130","271988","0.0-1.0-168.0-0.0","0","0","54541","","null","","","null","18","","","","","","","","","","","","","","","",""
"","time_out","","html-keyboard-response","131","273990","0.0-1.0-170.0-0.0","0","0","54541","","null","","","null","18","","","","","","","","","","","","","","","",""
"","ITI","","html-keyboard-response","132","274994","0.0-1.0-171.0","0","0","54541","","null","","","null","18","","","","","","","","","","","","","","","NaN",""
"","S1","","html-keyboard-response","133","275246","0.0-1.0-173.0","0","0","54541","","null","","","null","19","","","","","","","","","","","","","","","",""
"","ISI","","html-keyboard-response","134","277248","0.0-1.0-174.0","0","0","54541","","null","","","null","19","NaN","","","","","","","","","","","","","","",""
"","S2","","html-keyboard-response","135","277499","0.0-1.0-175.0","0","0","54541","","null","","","null","19","","NaN","","","","","","","","","","","","","",""
"","response","","html-keyboard-response","136","277850","0.0-1.0-176.0","0","0","54541","","348","","","68","19","","","1","19","training","adjacent","CB","3","2","Q.jpg","P.jpg","0","0","1","",""
"","feedback","","html-keyboard-response","137","278852","0.0-1.0-177.0-0.0","0","0","54541","","null","","","null","19","","","","","","","","","","","","","","","",""
"","ITI","","html-keyboard-response","138","279853","0.0-1.0-180.0","0","0","54541","","null","","","null","19","","","","","","","","","","","","","","","NaN",""
"","S1","","html-keyboard-response","139","280107","0.0-1.0-182.0","0","0","54541","","null","","","null","20","","","","","","","","","","","","","","","",""
"","ISI","","html-keyboard-response","140","282109","0.0-1.0-183.0","0","0","54541","","null","","","null","20","NaN","","","","","","","","","","","","","","",""
"","S2","","html-keyboard-response","141","282362","0.0-1.0-184.0","0","0","54541","","null","","","null","20","","NaN","","","","","","","","","","","","","",""
"","response","","html-keyboard-response","142","282849","0.0-1.0-185.0","0","0","54541","","486","","","75","20","","","1","20","training","adjacent","BA","2","1","P.jpg","L.jpg","1","0","0","",""
"","feedback","","html-keyboard-response","143","283852","0.0-1.0-186.0-0.0","0","0","54541","","null","","","null","20","","","","","","","","","","","","","","","",""
"","time_out","","html-keyboard-response","144","285854","0.0-1.0-188.0-0.0","0","0","54541","","null","","","null","20","","","","","","","","","","","","","","","",""
"","ITI","","html-keyboard-response","145","286858","0.0-1.0-189.0","0","0","54541","","null","","","null","20","","","","","","","","","","","","","","","NaN",""
"","S1","","html-keyboard-response","146","287111","0.0-1.0-191.0","0","0","54541","","null","","","null","21","","","","","","","","","","","","","","","",""
"","ISI","","html-keyboard-response","147","289114","0.0-1.0-192.0","0","0","54541","","null","","","null","21","NaN","","","","","","","","","","","","","","",""
"","S2","","html-keyboard-response","148","289366","0.0-1.0-193.0","0","0","54541","","null","","","null","21","","NaN","","","","","","","","","","","","","",""
"","response","","html-keyboard-response","149","289705","0.0-1.0-194.0","0","0","54541","","338","","","75","21","","","1","21","training","adjacent","GF","7","6","O.jpg","M.jpg","1","0","0","",""
"","feedback","","html-keyboard-response","150","290708","0.0-1.0-195.0-0.0","0","0","54541","","null","","","null","21","","","","","","","","","","","","","","","",""
"","time_out","","html-keyboard-response","151","292710","0.0-1.0-197.0-0.0","0","0","54541","","null","","","null","21","","","","","","","","","","","","","","","",""
"","ITI","","html-keyboard-response","152","293712","0.0-1.0-198.0","0","0","54541","","null","","","null","21","","","","","","","","","","","","","","","NaN",""
"","S1","","html-keyboard-response","153","293964","0.0-1.0-200.0","0","0","54541","","null","","","null","22","","","","","","","","","","","","","","","",""
"","ISI","","html-keyboard-response","154","295966","0.0-1.0-201.0","0","0","54541","","null","","","null","22","NaN","","","","","","","","","","","","","","",""
"","S2","","html-keyboard-response","155","296219","0.0-1.0-202.0","0","0","54541","","null","","","null","22","","NaN","","","","","","","","","","","","","",""
"","response","","html-keyboard-response","156","296554","0.0-1.0-203.0","0","0","54541","","334","","","75","22","","","1","22","training","adjacent","BA","2","1","P.jpg","L.jpg","1","0","0","",""
"","feedback","","html-keyboard-response","157","297556","0.0-1.0-204.0-0.0","0","0","54541","","null","","","null","22","","","","","","","","","","","","","","","",""
"","time_out","","html-keyboard-response","158","299559","0.0-1.0-206.0-0.0","0","0","54541","","null","","","null","22","","","","","","","","","","","","","","","",""
"","ITI","","html-keyboard-response","159","300562","0.0-1.0-207.0","0","0","54541","","null","","","null","22","","","","","","","","","","","","","","","NaN",""
"","S1","","html-keyboard-response","160","300824","0.0-1.0-209.0","0","0","54541","","null","","","null","23","","","","","","","","","","","","","","","",""
"","ISI","","html-keyboard-response","161","302825","0.0-1.0-210.0","0","0","54541","","null","","","null","23","NaN","","","","","","","","","","","","","","",""
"","S2","","html-keyboard-response","162","303077","0.0-1.0-211.0","0","0","54541","","null","","","null","23","","NaN","","","","","","","","","","","","","",""
"","response","","html-keyboard-response","163","303193","0.0-1.0-212.0","0","0","54541","","115","","","75","23","","","1","23","training","adjacent","CD","3","4","Q.jpg","R.jpg","1","1","1","",""
"","feedback","","html-keyboard-response","164","304197","0.0-1.0-213.0-0.0","0","0","54541","","null","","","null","23","","","","","","","","","","","","","","","",""
"","ITI","","html-keyboard-response","165","305199","0.0-1.0-216.0","0","0","54541","","null","","","null","23","","","","","","","","","","","","","","","NaN",""
"","S1","","html-keyboard-response","166","305452","0.0-1.0-218.0","0","0","54541","","null","","","null","24","","","","","","","","","","","","","","","",""
"","ISI","","html-keyboard-response","167","307455","0.0-1.0-219.0","0","0","54541","","null","","","null","24","NaN","","","","","","","","","","","","","","",""
"","S2","","html-keyboard-response","168","307708","0.0-1.0-220.0","0","0","54541","","null","","","null","24","","NaN","","","","","","","","","","","","","",""
"","response","","html-keyboard-response","169","307962","0.0-1.0-221.0","0","0","54541","","251","","","75","24","","","1","24","training","adjacent","ED","5","4","N.jpg","R.jpg","1","0","0","",""
"","feedback","","html-keyboard-response","170","308964","0.0-1.0-222.0-0.0","0","0","54541","","null","","","null","24","","","","","","","","","","","","","","","",""
"","time_out","","html-keyboard-response","171","310966","0.0-1.0-224.0-0.0","0","0","54541","","null","","","null","24","","","","","","","","","","","","","","","",""
"","ITI","","html-keyboard-response","172","311968","0.0-1.0-225.0","0","0","54541","","null","","","null","24","","","","","","","","","","","","","","","NaN",""
"","S1","","html-keyboard-response","173","312220","0.0-1.0-227.0","0","0","54541","","null","","","null","25","","","","","","","","","","","","","","","",""
"","ISI","","html-keyboard-response","174","314222","0.0-1.0-228.0","0","0","54541","","null","","","null","25","NaN","","","","","","","","","","","","","","",""
"","S2","","html-keyboard-response","175","314474","0.0-1.0-229.0","0","0","54541","","null","","","null","25","","NaN","","","","","","","","","","","","","",""
"","response","","html-keyboard-response","176","314657","0.0-1.0-230.0","0","0","54541","","181","","","68","25","","","1","25","training","adjacent","FE","6","5","M.jpg","N.jpg","0","0","1","",""
"","feedback","","html-keyboard-response","177","315660","0.0-1.0-231.0-0.0","0","0","54541","","null","","","null","25","","","","","","","","","","","","","","","",""
"","ITI","","html-keyboard-response","178","316662","0.0-1.0-234.0","0","0","54541","","null","","","null","25","","","","","","","","","","","","","","","NaN",""
"","S1","","html-keyboard-response","179","316914","0.0-1.0-236.0","0","0","54541","","null","","","null","26","","","","","","","","","","","","","","","",""
"","ISI","","html-keyboard-response","180","318917","0.0-1.0-237.0","0","0","54541","","null","","","null","26","NaN","","","","","","","","","","","","","","",""
"","S2","","html-keyboard-response","181","319170","0.0-1.0-238.0","0","0","54541","","null","","","null","26","","NaN","","","","","","","","","","","","","",""
"","response","","html-keyboard-response","182","319809","0.0-1.0-239.0","0","0","54541","","638","","","75","26","","","1","26","training","adjacent","BC","2","3","P.jpg","Q.jpg","1","1","1","",""
"","feedback","","html-keyboard-response","183","320812","0.0-1.0-240.0-0.0","0","0","54541","","null","","","null","26","","","","","","","","","","","","","","","",""
"","ITI","","html-keyboard-response","184","321829","0.0-1.0-243.0","0","0","54541","","null","","","null","26","","","","","","","","","","","","","","","NaN",""
"","S1","","html-keyboard-response","185","322083","0.0-1.0-245.0","0","0","54541","","null","","","null","27","","","","","","","","","","","","","","","",""
"","ISI","","html-keyboard-response","186","324085","0.0-1.0-246.0","0","0","54541","","null","","","null","27","NaN","","","","","","","","","","","","","","",""
"","S2","","html-keyboard-response","187","324338","0.0-1.0-247.0","0","0","54541","","null","","","null","27","","NaN","","","","","","","","","","","","","",""
"","response","","html-keyboard-response","188","324713","0.0-1.0-248.0","0","0","54541","","373","","","75","27","","","1","27","training","adjacent","FE","6","5","M.jpg","N.jpg","1","0","0","",""
"","feedback","","html-keyboard-response","189","325717","0.0-1.0-249.0-0.0","0","0","54541","","null","","","null","27","","","","","","","","","","","","","","","",""
"","time_out","","html-keyboard-response","190","327719","0.0-1.0-251.0-0.0","0","0","54541","","null","","","null","27","","","","","","","","","","","","","","","",""
"","ITI","","html-keyboard-response","191","328720","0.0-1.0-252.0","0","0","54541","","null","","","null","27","","","","","","","","","","","","","","","NaN",""
"","S1","","html-keyboard-response","192","328973","0.0-1.0-254.0","0","0","54541","","null","","","null","28","","","","","","","","","","","","","","","",""
"","ISI","","html-keyboard-response","193","330975","0.0-1.0-255.0","0","0","54541","","null","","","null","28","NaN","","","","","","","","","","","","","","",""
"","S2","","html-keyboard-response","194","331228","0.0-1.0-256.0","0","0","54541","","null","","","null","28","","NaN","","","","","","","","","","","","","",""
"","response","","html-keyboard-response","195","331625","0.0-1.0-257.0","0","0","54541","","395","","","68","28","","","1","28","training","adjacent","AB","1","2","L.jpg","P.jpg","0","1","0","",""
"","feedback","","html-keyboard-response","196","332628","0.0-1.0-258.0-0.0","0","0","54541","","null","","","null","28","","","","","","","","","","","","","","","",""
"","time_out","","html-keyboard-response","197","334632","0.0-1.0-260.0-0.0","0","0","54541","","null","","","null","28","","","","","","","","","","","","","","","",""
"","ITI","","html-keyboard-response","198","335633","0.0-1.0-261.0","0","0","54541","","null","","","null","28","","","","","","","","","","","","","","","NaN",""
"","S1","","html-keyboard-response","199","335886","0.0-1.0-263.0","0","0","54541","","null","","","null","29","","","","","","","","","","","","","","","",""
"","ISI","","html-keyboard-response","200","337889","0.0-1.0-264.0","0","0","54541","","null","","","null","29","NaN","","","","","","","","","","","","","","",""
"","S2","","html-keyboard-response","201","338141","0.0-1.0-265.0","0","0","54541","","null","","","null","29","","NaN","","","","","","","","","","","","","",""
"","response","","html-keyboard-response","202","338426","0.0-1.0-266.0","0","0","54541","","283","","","75","29","","","1","29","training","adjacent","EF","5","6","N.jpg","M.jpg","1","1","1","",""
"","feedback","","html-keyboard-response","203","339428","0.0-1.0-267.0-0.0","0","0","54541","","null","","","null","29","","","","","","","","","","","","","","","",""
"","ITI","","html-keyboard-response","204","340429","0.0-1.0-270.0","0","0","54541","","null","","","null","29","","","","","","","","","","","","","","","NaN",""
"","S1","","html-keyboard-response","205","340682","0.0-1.0-272.0","0","0","54541","","null","","","null","30","","","","","","","","","","","","","","","",""
"","ISI","","html-keyboard-response","206","342684","0.0-1.0-273.0","0","0","54541","","null","","","null","30","NaN","","","","","","","","","","","","","","",""
"","S2","","html-keyboard-response","207","342935","0.0-1.0-274.0","0","0","54541","","null","","","null","30","","NaN","","","","","","","","","","","","","",""
"","response","","html-keyboard-response","208","343289","0.0-1.0-275.0","0","0","54541","","352","","","68","30","","","1","30","training","adjacent","DC","4","3","R.jpg","Q.jpg","0","0","1","",""
"","feedback","","html-keyboard-response","209","344291","0.0-1.0-276.0-0.0","0","0","54541","","null","","","null","30","","","","","","","","","","","","","","","",""
"","ITI","","html-keyboard-response","210","345293","0.0-1.0-279.0","0","0","54541","","null","","","null","30","","","","","","","","","","","","","","","NaN",""
"","S1","","html-keyboard-response","211","345546","0.0-1.0-281.0","0","0","54541","","null","","","null","31","","","","","","","","","","","","","","","",""
"","ISI","","html-keyboard-response","212","347548","0.0-1.0-282.0","0","0","54541","","null","","","null","31","NaN","","","","","","","","","","","","","","",""
"","S2","","html-keyboard-response","213","347799","0.0-1.0-283.0","0","0","54541","","null","","","null","31","","NaN","","","","","","","","","","","","","",""
"","response","","html-keyboard-response","214","348193","0.0-1.0-284.0","0","0","54541","","392","","","68","31","","","1","31","training","adjacent","CB","3","2","Q.jpg","P.jpg","0","0","1","",""
"","feedback","","html-keyboard-response","215","349196","0.0-1.0-285.0-0.0","0","0","54541","","null","","","null","31","","","","","","","","","","","","","","","",""
"","ITI","","html-keyboard-response","216","350199","0.0-1.0-288.0","0","0","54541","","null","","","null","31","","","","","","","","","","","","","","","NaN",""
"","S1","","html-keyboard-response","217","350452","0.0-1.0-290.0","0","0","54541","","null","","","null","32","","","","","","","","","","","","","","","",""
"","ISI","","html-keyboard-response","218","352454","0.0-1.0-291.0","0","0","54541","","null","","","null","32","NaN","","","","","","","","","","","","","","",""
"","S2","","html-keyboard-response","219","352707","0.0-1.0-292.0","0","0","54541","","null","","","null","32","","NaN","","","","","","","","","","","","","",""
"","response","","html-keyboard-response","220","353105","0.0-1.0-293.0","0","0","54541","","396","","","68","32","","","1","32","training","adjacent","CD","3","4","Q.jpg","R.jpg","0","1","0","",""
"","feedback","","html-keyboard-response","221","354108","0.0-1.0-294.0-0.0","0","0","54541","","null","","","null","32","","","","","","","","","","","","","","","",""
"","time_out","","html-keyboard-response","222","356112","0.0-1.0-296.0-0.0","0","0","54541","","null","","","null","32","","","","","","","","","","","","","","","",""
"","ITI","","html-keyboard-response","223","357114","0.0-1.0-297.0","0","0","54541","","null","","","null","32","","","","","","","","","","","","","","","NaN",""
"","S1","","html-keyboard-response","224","357367","0.0-1.0-299.0","0","0","54541","","null","","","null","33","","","","","","","","","","","","","","","",""
"","ISI","","html-keyboard-response","225","359368","0.0-1.0-300.0","0","0","54541","","null","","","null","33","NaN","","","","","","","","","","","","","","",""
"","S2","","html-keyboard-response","226","359621","0.0-1.0-301.0","0","0","54541","","null","","","null","33","","NaN","","","","","","","","","","","","","",""
"","response","","html-keyboard-response","227","359897","0.0-1.0-302.0","0","0","54541","","274","","","68","33","","","1","33","training","adjacent","GF","7","6","O.jpg","M.jpg","0","0","1","",""
"","feedback","","html-keyboard-response","228","360900","0.0-1.0-303.0-0.0","0","0","54541","","null","","","null","33","","","","","","","","","","","","","","","",""
"","ITI","","html-keyboard-response","229","361902","0.0-1.0-306.0","0","0","54541","","null","","","null","33","","","","","","","","","","","","","","","NaN",""
"","S1","","html-keyboard-response","230","362154","0.0-1.0-308.0","0","0","54541","","null","","","null","34","","","","","","","","","","","","","","","",""
"","ISI","","html-keyboard-response","231","364157","0.0-1.0-309.0","0","0","54541","","null","","","null","34","NaN","","","","","","","","","","","","","","",""
"","S2","","html-keyboard-response","232","364410","0.0-1.0-310.0","0","0","54541","","null","","","null","34","","NaN","","","","","","","","","","","","","",""
"","response","","html-keyboard-response","233","364705","0.0-1.0-311.0","0","0","54541","","293","","","68","34","","","1","34","training","adjacent","EF","5","6","N.jpg","M.jpg","0","1","0","",""
"","feedback","","html-keyboard-response","234","365708","0.0-1.0-312.0-0.0","0","0","54541","","null","","","null","34","","","","","","","","","","","","","","","",""
"","time_out","","html-keyboard-response","235","367711","0.0-1.0-314.0-0.0","0","0","54541","","null","","","null","34","","","","","","","","","","","","","","","",""
"","ITI","","html-keyboard-response","236","368714","0.0-1.0-315.0","0","0","54541","","null","","","null","34","","","","","","","","","","","","","","","NaN",""
"","S1","","html-keyboard-response","237","368966","0.0-1.0-317.0","0","0","54541","","null","","","null","35","","","","","","","","","","","","","","","",""
"","ISI","","html-keyboard-response","238","370967","0.0-1.0-318.0","0","0","54541","","null","","","null","35","NaN","","","","","","","","","","","","","","",""
"","S2","","html-keyboard-response","239","371219","0.0-1.0-319.0","0","0","54541","","null","","","null","35","","NaN","","","","","","","","","","","","","",""
"","response","","html-keyboard-response","240","371633","0.0-1.0-320.0","0","0","54541","","412","","","68","35","","","1","35","training","adjacent","FG","6","7","M.jpg","O.jpg","0","1","0","",""
"","feedback","","html-keyboard-response","241","372635","0.0-1.0-321.0-0.0","0","0","54541","","null","","","null","35","","","","","","","","","","","","","","","",""
"","time_out","","html-keyboard-response","242","374638","0.0-1.0-323.0-0.0","0","0","54541","","null","","","null","35","","","","","","","","","","","","","","","",""
"","ITI","","html-keyboard-response","243","375639","0.0-1.0-324.0","0","0","54541","","null","","","null","35","","","","","","","","","","","","","","","NaN",""
"","S1","","html-keyboard-response","244","375892","0.0-1.0-326.0","0","0","54541","","null","","","null","36","","","","","","","","","","","","","","","",""
"","ISI","","html-keyboard-response","245","377895","0.0-1.0-327.0","0","0","54541","","null","","","null","36","NaN","","","","","","","","","","","","","","",""
"","S2","","html-keyboard-response","246","378147","0.0-1.0-328.0","0","0","54541","","null","","","null","36","","NaN","","","","","","","","","","","","","",""
"","response","","html-keyboard-response","247","378545","0.0-1.0-329.0","0","0","54541","","396","","","68","36","","","1","36","training","adjacent","FE","6","5","M.jpg","N.jpg","0","0","1","",""
"","feedback","","html-keyboard-response","248","379548","0.0-1.0-330.0-0.0","0","0","54541","","null","","","null","36","","","","","","","","","","","","","","","",""
"","ITI","","html-keyboard-response","249","380549","0.0-1.0-333.0","0","0","54541","","null","","","null","36","","","","","","","","","","","","","","","NaN",""
"","S1","","html-keyboard-response","250","380802","0.0-1.0-335.0","0","0","54541","","null","","","null","37","","","","","","","","","","","","","","","",""
"","ISI","","html-keyboard-response","251","382804","0.0-1.0-336.0","0","0","54541","","null","","","null","37","NaN","","","","","","","","","","","","","","",""
"","S2","","html-keyboard-response","252","383057","0.0-1.0-337.0","0","0","54541","","null","","","null","37","","NaN","","","","","","","","","","","","","",""
"","response","","html-keyboard-response","253","383498","0.0-1.0-338.0","0","0","54541","","439","","","68","37","","","1","37","training","adjacent","DC","4","3","R.jpg","Q.jpg","0","0","1","",""
"","feedback","","html-keyboard-response","254","384500","0.0-1.0-339.0-0.0","0","0","54541","","null","","","null","37","","","","","","","","","","","","","","","",""
"","ITI","","html-keyboard-response","255","385502","0.0-1.0-342.0","0","0","54541","","null","","","null","37","","","","","","","","","","","","","","","NaN",""
"","S1","","html-keyboard-response","256","385754","0.0-1.0-344.0","0","0","54541","","null","","","null","38","","","","","","","","","","","","","","","",""
"","ISI","","html-keyboard-response","257","387757","0.0-1.0-345.0","0","0","54541","","null","","","null","38","NaN","","","","","","","","","","","","","","",""
"","S2","","html-keyboard-response","258","388009","0.0-1.0-346.0","0","0","54541","","null","","","null","38","","NaN","","","","","","","","","","","","","",""
"","response","","html-keyboard-response","259","388409","0.0-1.0-347.0","0","0","54541","","398","","","68","38","","","1","38","training","adjacent","BC","2","3","P.jpg","Q.jpg","0","1","0","",""
"","feedback","","html-keyboard-response","260","389412","0.0-1.0-348.0-0.0","0","0","54541","","null","","","null","38","","","","","","","","","","","","","","","",""
"","time_out","","html-keyboard-response","261","391414","0.0-1.0-350.0-0.0","0","0","54541","","null","","","null","38","","","","","","","","","","","","","","","",""
"","ITI","","html-keyboard-response","262","392416","0.0-1.0-351.0","0","0","54541","","null","","","null","38","","","","","","","","","","","","","","","NaN",""
"","S1","","html-keyboard-response","263","392668","0.0-1.0-353.0","0","0","54541","","null","","","null","39","","","","","","","","","","","","","","","",""
"","ISI","","html-keyboard-response","264","394670","0.0-1.0-354.0","0","0","54541","","null","","","null","39","NaN","","","","","","","","","","","","","","",""
"","S2","","html-keyboard-response","265","394922","0.0-1.0-355.0","0","0","54541","","null","","","null","39","","NaN","","","","","","","","","","","","","",""
"","response","","html-keyboard-response","266","395321","0.0-1.0-356.0","0","0","54541","","397","","","68","39","","","1","39","training","adjacent","BC","2","3","P.jpg","Q.jpg","0","1","0","",""
"","feedback","","html-keyboard-response","267","396324","0.0-1.0-357.0-0.0","0","0","54541","","null","","","null","39","","","","","","","","","","","","","","","",""
"","time_out","","html-keyboard-response","268","398326","0.0-1.0-359.0-0.0","0","0","54541","","null","","","null","39","","","","","","","","","","","","","","","",""
"","ITI","","html-keyboard-response","269","399328","0.0-1.0-360.0","0","0","54541","","null","","","null","39","","","","","","","","","","","","","","","NaN",""
"","S1","","html-keyboard-response","270","399581","0.0-1.0-362.0","0","0","54541","","null","","","null","40","","","","","","","","","","","","","","","",""
"","ISI","","html-keyboard-response","271","401584","0.0-1.0-363.0","0","0","54541","","null","","","null","40","NaN","","","","","","","","","","","","","","",""
"","S2","","html-keyboard-response","272","401836","0.0-1.0-364.0","0","0","54541","","null","","","null","40","","NaN","","","","","","","","","","","","","",""
"","response","","html-keyboard-response","273","402121","0.0-1.0-365.0","0","0","54541","","284","","","68","40","","","1","40","training","adjacent","DE","4","5","R.jpg","N.jpg","0","1","0","",""
"","feedback","","html-keyboard-response","274","403123","0.0-1.0-366.0-0.0","0","0","54541","","null","","","null","40","","","","","","","","","","","","","","","",""
"","time_out","","html-keyboard-response","275","405126","0.0-1.0-368.0-0.0","0","0","54541","","null","","","null","40","","","","","","","","","","","","","","","",""
"","ITI","","html-keyboard-response","276","406129","0.0-1.0-369.0","0","0","54541","","null","","","null","40","","","","","","","","","","","","","","","NaN",""
"","S1","","html-keyboard-response","277","406380","0.0-1.0-371.0","0","0","54541","","null","","","null","41","","","","","","","","","","","","","","","",""
"","ISI","","html-keyboard-response","278","408382","0.0-1.0-372.0","0","0","54541","","null","","","null","41","NaN","","","","","","","","","","","","","","",""
"","S2","","html-keyboard-response","279","408634","0.0-1.0-373.0","0","0","54541","","null","","","null","41","","NaN","","","","","","","","","","","","","",""
"","response","","html-keyboard-response","280","408897","0.0-1.0-374.0","0","0","54541","","261","","","68","41","","","1","41","training","adjacent","GF","7","6","O.jpg","M.jpg","0","0","1","",""
"","feedback","","html-keyboard-response","281","409900","0.0-1.0-375.0-0.0","0","0","54541","","null","","","null","41","","","","","","","","","","","","","","","",""
"","ITI","","html-keyboard-response","282","410902","0.0-1.0-378.0","0","0","54541","","null","","","null","41","","","","","","","","","","","","","","","NaN",""
"","S1","","html-keyboard-response","283","411154","0.0-1.0-380.0","0","0","54541","","null","","","null","42","","","","","","","","","","","","","","","",""
"","ISI","","html-keyboard-response","284","413156","0.0-1.0-381.0","0","0","54541","","null","","","null","42","NaN","","","","","","","","","","","","","","",""
"","S2","","html-keyboard-response","285","413408","0.0-1.0-382.0","0","0","54541","","null","","","null","42","","NaN","","","","","","","","","","","","","",""
"","response","","html-keyboard-response","286","413737","0.0-1.0-383.0","0","0","54541","","327","","","75","42","","","1","42","training","adjacent","DE","4","5","R.jpg","N.jpg","1","1","1","",""
"","feedback","","html-keyboard-response","287","414741","0.0-1.0-384.0-0.0","0","0","54541","","null","","","null","42","","","","","","","","","","","","","","","",""
"","ITI","","html-keyboard-response","288","415743","0.0-1.0-387.0","0","0","54541","","null","","","null","42","","","","","","","","","","","","","","","NaN",""
"","S1","","html-keyboard-response","289","415995","0.0-1.0-389.0","0","0","54541","","null","","","null","43","","","","","","","","","","","","","","","",""
"","ISI","","html-keyboard-response","290","417998","0.0-1.0-390.0","0","0","54541","","null","","","null","43","NaN","","","","","","","","","","","","","","",""
"","S2","","html-keyboard-response","291","418250","0.0-1.0-391.0","0","0","54541","","null","","","null","43","","NaN","","","","","","","","","","","","","",""
"","response","","html-keyboard-response","292","418338","0.0-1.0-392.0","0","0","54541","","85","","","68","43","","","1","43","training","adjacent","BA","2","1","P.jpg","L.jpg","0","0","1","",""
"","feedback","","html-keyboard-response","293","419340","0.0-1.0-393.0-0.0","0","0","54541","","null","","","null","43","","","","","","","","","","","","","","","",""
"","ITI","","html-keyboard-response","294","420353","0.0-1.0-396.0","0","0","54541","","null","","","null","43","","","","","","","","","","","","","","","NaN",""
"","S1","","html-keyboard-response","295","420605","0.0-1.0-398.0","0","0","54541","","null","","","null","44","","","","","","","","","","","","","","","",""
"","ISI","","html-keyboard-response","296","422607","0.0-1.0-399.0","0","0","54541","","null","","","null","44","NaN","","","","","","","","","","","","","","",""
"","S2","","html-keyboard-response","297","422859","0.0-1.0-400.0","0","0","54541","","null","","","null","44","","NaN","","","","","","","","","","","","","",""
"","response","","html-keyboard-response","298","423729","0.0-1.0-401.0","0","0","54541","","868","","","75","44","","","1","44","training","adjacent","FE","6","5","M.jpg","N.jpg","1","0","0","",""
"","feedback","","html-keyboard-response","299","424732","0.0-1.0-402.0-0.0","0","0","54541","","null","","","null","44","","","","","","","","","","","","","","","",""
"","time_out","","html-keyboard-response","300","426735","0.0-1.0-404.0-0.0","0","0","54541","","null","","","null","44","","","","","","","","","","","","","","","",""
"","ITI","","html-keyboard-response","301","427737","0.0-1.0-405.0","0","0","54541","","null","","","null","44","","","","","","","","","","","","","","","NaN",""
"","S1","","html-keyboard-response","302","427990","0.0-1.0-407.0","0","0","54541","","null","","","null","45","","","","","","","","","","","","","","","",""
"","ISI","","html-keyboard-response","303","429992","0.0-1.0-408.0","0","0","54541","","null","","","null","45","NaN","","","","","","","","","","","","","","",""
"","S2","","html-keyboard-response","304","430244","0.0-1.0-409.0","0","0","54541","","null","","","null","45","","NaN","","","","","","","","","","","","","",""
"","response","","html-keyboard-response","305","430561","0.0-1.0-410.0","0","0","54541","","315","","","68","45","","","1","45","training","adjacent","BA","2","1","P.jpg","L.jpg","0","0","1","",""
"","feedback","","html-keyboard-response","306","431563","0.0-1.0-411.0-0.0","0","0","54541","","null","","","null","45","","","","","","","","","","","","","","","",""
"","ITI","","html-keyboard-response","307","432565","0.0-1.0-414.0","0","0","54541","","null","","","null","45","","","","","","","","","","","","","","","NaN",""
"","S1","","html-keyboard-response","308","432816","0.0-1.0-416.0","0","0","54541","","null","","","null","46","","","","","","","","","","","","","","","",""
"","ISI","","html-keyboard-response","309","434818","0.0-1.0-417.0","0","0","54541","","null","","","null","46","NaN","","","","","","","","","","","","","","",""
"","S2","","html-keyboard-response","310","435070","0.0-1.0-418.0","0","0","54541","","null","","","null","46","","NaN","","","","","","","","","","","","","",""
"","response","","html-keyboard-response","311","435409","0.0-1.0-419.0","0","0","54541","","337","","","68","46","","","1","46","training","adjacent","ED","5","4","N.jpg","R.jpg","0","0","1","",""
"","feedback","","html-keyboard-response","312","436412","0.0-1.0-420.0-0.0","0","0","54541","","null","","","null","46","","","","","","","","","","","","","","","",""
"","ITI","","html-keyboard-response","313","437415","0.0-1.0-423.0","0","0","54541","","null","","","null","46","","","","","","","","","","","","","","","NaN",""
"","S1","","html-keyboard-response","314","437667","0.0-1.0-425.0","0","0","54541","","null","","","null","47","","","","","","","","","","","","","","","",""
"","ISI","","html-keyboard-response","315","439670","0.0-1.0-426.0","0","0","54541","","null","","","null","47","NaN","","","","","","","","","","","","","","",""
"","S2","","html-keyboard-response","316","439922","0.0-1.0-427.0","0","0","54541","","null","","","null","47","","NaN","","","","","","","","","","","","","",""
"","response","","html-keyboard-response","317","440689","0.0-1.0-428.0","0","0","54541","","765","","","75","47","","","1","47","training","adjacent","DE","4","5","R.jpg","N.jpg","1","1","1","",""
"","feedback","","html-keyboard-response","318","441692","0.0-1.0-429.0-0.0","0","0","54541","","null","","","null","47","","","","","","","","","","","","","","","",""
"","ITI","","html-keyboard-response","319","442693","0.0-1.0-432.0","0","0","54541","","null","","","null","47","","","","","","","","","","","","","","","NaN",""
"","block_over","","html-keyboard-response","320","446338","0.0-1.0-433.0-0.0","0","0","54541","","3643","","","32","47","","","","","","","","","","","","","","","",""
"","S1","","html-keyboard-response","321","446589","0.0-1.0-434.0","0","0","54541","","null","","","null","48","","","","","","","","","","","","","","","",""
"","ISI","","html-keyboard-response","322","448592","0.0-1.0-435.0","0","0","54541","","null","","","null","48","NaN","","","","","","","","","","","","","","",""
"","S2","","html-keyboard-response","323","448845","0.0-1.0-436.0","0","0","54541","","null","","","null","48","","NaN","","","","","","","","","","","","","",""
"","response","","html-keyboard-response","324","448865","0.0-1.0-437.0","0","0","54541","","18","","","68","48","","","2","48","training","adjacent","CB","3","2","Q.jpg","P.jpg","0","0","1","",""
"","feedback","","html-keyboard-response","325","449867","0.0-1.0-438.0-0.0","0","0","54541","","null","","","null","48","","","","","","","","","","","","","","","",""
"","ITI","","html-keyboard-response","326","450869","0.0-1.0-441.0","0","0","54541","","null","","","null","48","","","","","","","","","","","","","","","NaN",""
"","S1","","html-keyboard-response","327","451121","0.0-1.0-443.0","0","0","54541","","null","","","null","49","","","","","","","","","","","","","","","",""
"","ISI","","html-keyboard-response","328","453138","0.0-1.0-444.0","0","0","54541","","null","","","null","49","NaN","","","","","","","","","","","","","","",""
"","S2","","html-keyboard-response","329","453392","0.0-1.0-445.0","0","0","54541","","null","","","null","49","","NaN","","","","","","","","","","","","","",""
"","response","","html-keyboard-response","330","453545","0.0-1.0-446.0","0","0","54541","","152","","","68","49","","","2","49","training","adjacent","EF","5","6","N.jpg","M.jpg","0","1","0","",""
"","feedback","","html-keyboard-response","331","454548","0.0-1.0-447.0-0.0","0","0","54541","","null","","","null","49","","","","","","","","","","","","","","","",""
"","time_out","","html-keyboard-response","332","456562","0.0-1.0-449.0-0.0","0","0","54541","","null","","","null","49","","","","","","","","","","","","","","","",""
"","ITI","","html-keyboard-response","333","457564","0.0-1.0-450.0","0","0","54541","","null","","","null","49","","","","","","","","","","","","","","","NaN",""
"","S1","","html-keyboard-response","334","457818","0.0-1.0-452.0","0","0","54541","","null","","","null","50","","","","","","","","","","","","","","","",""
"","ISI","","html-keyboard-response","335","459820","0.0-1.0-453.0","0","0","54541","","null","","","null","50","NaN","","","","","","","","","","","","","","",""
"","S2","","html-keyboard-response","336","460072","0.0-1.0-454.0","0","0","54541","","null","","","null","50","","NaN","","","","","","","","","","","","","",""
"","response","","html-keyboard-response","337","460297","0.0-1.0-455.0","0","0","54541","","223","","","68","50","","","2","50","training","adjacent","CD","3","4","Q.jpg","R.jpg","0","1","0","",""
"","feedback","","html-keyboard-response","338","461300","0.0-1.0-456.0-0.0","0","0","54541","","null","","","null","50","","","","","","","","","","","","","","","",""
"","time_out","","html-keyboard-response","339","463302","0.0-1.0-458.0-0.0","0","0","54541","","null","","","null","50","","","","","","","","","","","","","","","",""
"","ITI","","html-keyboard-response","340","464305","0.0-1.0-459.0","0","0","54541","","null","","","null","50","","","","","","","","","","","","","","","NaN",""
"","S1","","html-keyboard-response","341","464557","0.0-1.0-461.0","0","0","54541","","null","","","null","51","","","","","","","","","","","","","","","",""
"","ISI","","html-keyboard-response","342","466558","0.0-1.0-462.0","0","0","54541","","null","","","null","51","NaN","","","","","","","","","","","","","","",""
"","S2","","html-keyboard-response","343","466812","0.0-1.0-463.0","0","0","54541","","null","","","null","51","","NaN","","","","","","","","","","","","","",""
"","response","","html-keyboard-response","344","467641","0.0-1.0-464.0","0","0","54541","","828","","","75","51","","","2","51","training","adjacent","ED","5","4","N.jpg","R.jpg","1","0","0","",""
"","feedback","","html-keyboard-response","345","468644","0.0-1.0-465.0-0.0","0","0","54541","","null","","","null","51","","","","","","","","","","","","","","","",""
"","time_out","","html-keyboard-response","346","470647","0.0-1.0-467.0-0.0","0","0","54541","","null","","","null","51","","","","","","","","","","","","","","","",""
"","ITI","","html-keyboard-response","347","471648","0.0-1.0-468.0","0","0","54541","","null","","","null","51","","","","","","","","","","","","","","","NaN",""
"","S1","","html-keyboard-response","348","471901","0.0-1.0-470.0","0","0","54541","","null","","","null","52","","","","","","","","","","","","","","","",""
"","ISI","","html-keyboard-response","349","473903","0.0-1.0-471.0","0","0","54541","","null","","","null","52","NaN","","","","","","","","","","","","","","",""
"","S2","","html-keyboard-response","350","474156","0.0-1.0-472.0","0","0","54541","","null","","","null","52","","NaN","","","","","","","","","","","","","",""
"","response","","html-keyboard-response","351","474329","0.0-1.0-473.0","0","0","54541","","171","","","68","52","","","2","52","training","adjacent","CD","3","4","Q.jpg","R.jpg","0","1","0","",""
"","feedback","","html-keyboard-response","352","475332","0.0-1.0-474.0-0.0","0","0","54541","","null","","","null","52","","","","","","","","","","","","","","","",""
"","time_out","","html-keyboard-response","353","477335","0.0-1.0-476.0-0.0","0","0","54541","","null","","","null","52","","","","","","","","","","","","","","","",""
"","ITI","","html-keyboard-response","354","478336","0.0-1.0-477.0","0","0","54541","","null","","","null","52","","","","","","","","","","","","","","","NaN",""
"","S1","","html-keyboard-response","355","478589","0.0-1.0-479.0","0","0","54541","","null","","","null","53","","","","","","","","","","","","","","","",""
"","ISI","","html-keyboard-response","356","480592","0.0-1.0-480.0","0","0","54541","","null","","","null","53","NaN","","","","","","","","","","","","","","",""
"","S2","","html-keyboard-response","357","480844","0.0-1.0-481.0","0","0","54541","","null","","","null","53","","NaN","","","","","","","","","","","","","",""
"","response","","html-keyboard-response","358","481385","0.0-1.0-482.0","0","0","54541","","539","","","68","53","","","2","53","training","adjacent","EF","5","6","N.jpg","M.jpg","0","1","0","",""
"","feedback","","html-keyboard-response","359","482387","0.0-1.0-483.0-0.0","0","0","54541","","null","","","null","53","","","","","","","","","","","","","","","",""
"","time_out","","html-keyboard-response","360","484389","0.0-1.0-485.0-0.0","0","0","54541","","null","","","null","53","","","","","","","","","","","","","","","",""
"","ITI","","html-keyboard-response","361","485392","0.0-1.0-486.0","0","0","54541","","null","","","null","53","","","","","","","","","","","","","","","NaN",""
"","S1","","html-keyboard-response","362","485644","0.0-1.0-488.0","0","0","54541","","null","","","null","54","","","","","","","","","","","","","","","",""
"","ISI","","html-keyboard-response","363","487646","0.0-1.0-489.0","0","0","54541","","null","","","null","54","NaN","","","","","","","","","","","","","","",""
"","S2","","html-keyboard-response","364","487898","0.0-1.0-490.0","0","0","54541","","null","","","null","54","","NaN","","","","","","","","","","","","","",""
"","response","","html-keyboard-response","365","488186","0.0-1.0-491.0","0","0","54541","","286","","","68","54","","","2","54","training","adjacent","BA","2","1","P.jpg","L.jpg","0","0","1","",""
"","feedback","","html-keyboard-response","366","489188","0.0-1.0-492.0-0.0","0","0","54541","","null","","","null","54","","","","","","","","","","","","","","","",""
"","ITI","","html-keyboard-response","367","490189","0.0-1.0-495.0","0","0","54541","","null","","","null","54","","","","","","","","","","","","","","","NaN",""
"","S1","","html-keyboard-response","368","490441","0.0-1.0-497.0","0","0","54541","","null","","","null","55","","","","","","","","","","","","","","","",""
"","ISI","","html-keyboard-response","369","492444","0.0-1.0-498.0","0","0","54541","","null","","","null","55","NaN","","","","","","","","","","","","","","",""
"","S2","","html-keyboard-response","370","492696","0.0-1.0-499.0","0","0","54541","","null","","","null","55","","NaN","","","","","","","","","","","","","",""
"","response","","html-keyboard-response","371","493003","0.0-1.0-500.0","0","0","54541","","305","","","68","55","","","2","55","training","adjacent","CD","3","4","Q.jpg","R.jpg","0","1","0","",""
"","feedback","","html-keyboard-response","372","494005","0.0-1.0-501.0-0.0","0","0","54541","","null","","","null","55","","","","","","","","","","","","","","","",""
"","time_out","","html-keyboard-response","373","496007","0.0-1.0-503.0-0.0","0","0","54541","","null","","","null","55","","","","","","","","","","","","","","","",""
"","ITI","","html-keyboard-response","374","497010","0.0-1.0-504.0","0","0","54541","","null","","","null","55","","","","","","","","","","","","","","","NaN",""
"","S1","","html-keyboard-response","375","497263","0.0-1.0-506.0","0","0","54541","","null","","","null","56","","","","","","","","","","","","","","","",""
"","ISI","","html-keyboard-response","376","499265","0.0-1.0-507.0","0","0","54541","","null","","","null","56","NaN","","","","","","","","","","","","","","",""
"","S2","","html-keyboard-response","377","499518","0.0-1.0-508.0","0","0","54541","","null","","","null","56","","NaN","","","","","","","","","","","","","",""
"","response","","html-keyboard-response","378","500194","0.0-1.0-509.0","0","0","54541","","675","","","75","56","","","2","56","training","adjacent","AB","1","2","L.jpg","P.jpg","1","1","1","",""
"","feedback","","html-keyboard-response","379","501197","0.0-1.0-510.0-0.0","0","0","54541","","null","","","null","56","","","","","","","","","","","","","","","",""
"","ITI","","html-keyboard-response","380","502200","0.0-1.0-513.0","0","0","54541","","null","","","null","56","","","","","","","","","","","","","","","NaN",""
"","S1","","html-keyboard-response","381","502453","0.0-1.0-515.0","0","0","54541","","null","","","null","57","","","","","","","","","","","","","","","",""
"","ISI","","html-keyboard-response","382","504455","0.0-1.0-516.0","0","0","54541","","null","","","null","57","NaN","","","","","","","","","","","","","","",""
"","S2","","html-keyboard-response","383","504707","0.0-1.0-517.0","0","0","54541","","null","","","null","57","","NaN","","","","","","","","","","","","","",""
"","response","","html-keyboard-response","384","505362","0.0-1.0-518.0","0","0","54541","","653","","","68","57","","","2","57","training","adjacent","BC","2","3","P.jpg","Q.jpg","0","1","0","",""
"","feedback","","html-keyboard-response","385","506364","0.0-1.0-519.0-0.0","0","0","54541","","null","","","null","57","","","","","","","","","","","","","","","",""
"","time_out","","html-keyboard-response","386","508367","0.0-1.0-521.0-0.0","0","0","54541","","null","","","null","57","","","","","","","","","","","","","","","",""
"","ITI","","html-keyboard-response","387","509369","0.0-1.0-522.0","0","0","54541","","null","","","null","57","","","","","","","","","","","","","","","NaN",""
"","S1","","html-keyboard-response","388","509621","0.0-1.0-524.0","0","0","54541","","null","","","null","58","","","","","","","","","","","","","","","",""
"","ISI","","html-keyboard-response","389","511623","0.0-1.0-525.0","0","0","54541","","null","","","null","58","NaN","","","","","","","","","","","","","","",""
"","S2","","html-keyboard-response","390","511876","0.0-1.0-526.0","0","0","54541","","null","","","null","58","","NaN","","","","","","","","","","","","","",""
"","response","","html-keyboard-response","391","512186","0.0-1.0-527.0","0","0","54541","","308","","","75","58","","","2","58","training","adjacent","CD","3","4","Q.jpg","R.jpg","1","1","1","",""
"","feedback","","html-keyboard-response","392","513188","0.0-1.0-528.0-0.0","0","0","54541","","null","","","null","58","","","","","","","","","","","","","","","",""
"","ITI","","html-keyboard-response","393","514191","0.0-1.0-531.0","0","0","54541","","null","","","null","58","","","","","","","","","","","","","","","NaN",""
"","S1","","html-keyboard-response","394","514450","0.0-1.0-533.0","0","0","54541","","null","","","null","59","","","","","","","","","","","","","","","",""
"","ISI","","html-keyboard-response","395","516453","0.0-1.0-534.0","0","0","54541","","null","","","null","59","NaN","","","","","","","","","","","","","","",""
"","S2","","html-keyboard-response","396","516706","0.0-1.0-535.0","0","0","54541","","null","","","null","59","","NaN","","","","","","","","","","","","","",""
"","response","","html-keyboard-response","397","516962","0.0-1.0-536.0","0","0","54541","","254","","","75","59","","","2","59","training","adjacent","BC","2","3","P.jpg","Q.jpg","1","1","1","",""
"","feedback","","html-keyboard-response","398","517964","0.0-1.0-537.0-0.0","0","0","54541","","null","","","null","59","","","","","","","","","","","","","","","",""
"","ITI","","html-keyboard-response","399","518965","0.0-1.0-540.0","0","0","54541","","null","","","null","59","","","","","","","","","","","","","","","NaN",""
"","S1","","html-keyboard-response","400","519218","0.0-1.0-542.0","0","0","54541","","null","","","null","60","","","","","","","","","","","","","","","",""
"","ISI","","html-keyboard-response","401","521220","0.0-1.0-543.0","0","0","54541","","null","","","null","60","NaN","","","","","","","","","","","","","","",""
"","S2","","html-keyboard-response","402","521472","0.0-1.0-544.0","0","0","54541","","null","","","null","60","","NaN","","","","","","","","","","","","","",""
"","response","","html-keyboard-response","403","522146","0.0-1.0-545.0","0","0","54541","","672","","","75","60","","","2","60","training","adjacent","CB","3","2","Q.jpg","P.jpg","1","0","0","",""
"","feedback","","html-keyboard-response","404","523149","0.0-1.0-546.0-0.0","0","0","54541","","null","","","null","60","","","","","","","","","","","","","","","",""
"","time_out","","html-keyboard-response","405","525151","0.0-1.0-548.0-0.0","0","0","54541","","null","","","null","60","","","","","","","","","","","","","","","",""
"","ITI","","html-keyboard-response","406","526153","0.0-1.0-549.0","0","0","54541","","null","","","null","60","","","","","","","","","","","","","","","NaN",""
"","S1","","html-keyboard-response","407","526415","0.0-1.0-551.0","0","0","54541","","null","","","null","61","","","","","","","","","","","","","","","",""
"","ISI","","html-keyboard-response","408","528417","0.0-1.0-552.0","0","0","54541","","null","","","null","61","NaN","","","","","","","","","","","","","","",""
"","S2","","html-keyboard-response","409","528670","0.0-1.0-553.0","0","0","54541","","null","","","null","61","","NaN","","","","","","","","","","","","","",""
"","response","","html-keyboard-response","410","528706","0.0-1.0-554.0","0","0","54541","","35","","","68","61","","","2","61","training","adjacent","GF","7","6","O.jpg","M.jpg","0","0","1","",""
"","feedback","","html-keyboard-response","411","529708","0.0-1.0-555.0-0.0","0","0","54541","","null","","","null","61","","","","","","","","","","","","","","","",""
"","ITI","","html-keyboard-response","412","530710","0.0-1.0-558.0","0","0","54541","","null","","","null","61","","","","","","","","","","","","","","","NaN",""
"","S1","","html-keyboard-response","413","530963","0.0-1.0-560.0","0","0","54541","","null","","","null","62","","","","","","","","","","","","","","","",""
"","ISI","","html-keyboard-response","414","532964","0.0-1.0-561.0","0","0","54541","","null","","","null","62","NaN","","","","","","","","","","","","","","",""
"","S2","","html-keyboard-response","415","533217","0.0-1.0-562.0","0","0","54541","","null","","","null","62","","NaN","","","","","","","","","","","","","",""
"","response","","html-keyboard-response","416","533338","0.0-1.0-563.0","0","0","54541","","119","","","68","62","","","2","62","training","adjacent","DC","4","3","R.jpg","Q.jpg","0","0","1","",""
"","feedback","","html-keyboard-response","417","534340","0.0-1.0-564.0-0.0","0","0","54541","","null","","","null","62","","","","","","","","","","","","","","","",""
"","ITI","","html-keyboard-response","418","535343","0.0-1.0-567.0","0","0","54541","","null","","","null","62","","","","","","","","","","","","","","","NaN",""
"","S1","","html-keyboard-response","419","535596","0.0-1.0-569.0","0","0","54541","","null","","","null","63","","","","","","","","","","","","","","","",""
"","ISI","","html-keyboard-response","420","537598","0.0-1.0-570.0","0","0","54541","","null","","","null","63","NaN","","","","","","","","","","","","","","",""
"","S2","","html-keyboard-response","421","537850","0.0-1.0-571.0","0","0","54541","","null","","","null","63","","NaN","","","","","","","","","","","","","",""
"","response","","html-keyboard-response","422","537986","0.0-1.0-572.0","0","0","54541","","135","","","75","63","","","2","63","training","adjacent","AB","1","2","L.jpg","P.jpg","1","1","1","",""
"","feedback","","html-keyboard-response","423","538989","0.0-1.0-573.0-0.0","0","0","54541","","null","","","null","63","","","","","","","","","","","","","","","",""
"","ITI","","html-keyboard-response","424","539991","0.0-1.0-576.0","0","0","54541","","null","","","null","63","","","","","","","","","","","","","","","NaN",""
"","S1","","html-keyboard-response","425","540244","0.0-1.0-578.0","0","0","54541","","null","","","null","64","","","","","","","","","","","","","","","",""
"","ISI","","html-keyboard-response","426","542246","0.0-1.0-579.0","0","0","54541","","null","","","null","64","NaN","","","","","","","","","","","","","","",""
"","S2","","html-keyboard-response","427","542498","0.0-1.0-580.0","0","0","54541","","250","","","68","64","","d","","","","","","","","","","","","","",""
"","response","","html-keyboard-response","428","543642","0.0-1.0-581.0","0","0","54541","","1142","","","68","64","","","2","64","training","adjacent","FG","6","7","M.jpg","O.jpg","0","1","0","",""
"","feedback","","html-keyboard-response","429","544644","0.0-1.0-582.0-0.0","0","0","54541","","null","","","null","64","","","","","","","","","","","","","","","",""
"","time_out","","html-keyboard-response","430","546646","0.0-1.0-584.0-0.0","0","0","54541","","null","","","null","64","","","","","","","","","","","","","","","",""
"","ITI","","html-keyboard-response","431","547650","0.0-1.0-585.0","0","0","54541","","null","","","null","64","","","","","","","","","","","","","","","NaN",""
"","S1","","html-keyboard-response","432","547902","0.0-1.0-587.0","0","0","54541","","null","","","null","65","","","","","","","","","","","","","","","",""
"","ISI","","html-keyboard-response","433","549904","0.0-1.0-588.0","0","0","54541","","null","","","null","65","NaN","","","","","","","","","","","","","","",""
"","S2","","html-keyboard-response","434","550157","0.0-1.0-589.0","0","0","54541","","null","","","null","65","","NaN","","","","","","","","","","","","","",""
"","response","","html-keyboard-response","435","550457","0.0-1.0-590.0","0","0","54541","","298","","","68","65","","","2","65","training","adjacent","BA","2","1","P.jpg","L.jpg","0","0","1","",""
"","feedback","","html-keyboard-response","436","551460","0.0-1.0-591.0-0.0","0","0","54541","","null","","","null","65","","","","","","","","","","","","","","","",""
"","ITI","","html-keyboard-response","437","552462","0.0-1.0-594.0","0","0","54541","","null","","","null","65","","","","","","","","","","","","","","","NaN",""
"","S1","","html-keyboard-response","438","552715","0.0-1.0-596.0","0","0","54541","","null","","","null","66","","","","","","","","","","","","","","","",""
"","ISI","","html-keyboard-response","439","554717","0.0-1.0-597.0","0","0","54541","","null","","","null","66","NaN","","","","","","","","","","","","","","",""
"","S2","","html-keyboard-response","440","554969","0.0-1.0-598.0","0","0","54541","","null","","","null","66","","NaN","","","","","","","","","","","","","",""
"","response","","html-keyboard-response","441","555322","0.0-1.0-599.0","0","0","54541","","350","","","75","66","","","2","66","training","adjacent","ED","5","4","N.jpg","R.jpg","1","0","0","",""
"","feedback","","html-keyboard-response","442","556324","0.0-1.0-600.0-0.0","0","0","54541","","null","","","null","66","","","","","","","","","","","","","","","",""
"","time_out","","html-keyboard-response","443","558325","0.0-1.0-602.0-0.0","0","0","54541","","null","","","null","66","","","","","","","","","","","","","","","",""
"","ITI","","html-keyboard-response","444","559342","0.0-1.0-603.0","0","0","54541","","null","","","null","66","","","","","","","","","","","","","","","NaN",""
"","S1","","html-keyboard-response","445","559594","0.0-1.0-605.0","0","0","54541","","null","","","null","67","","","","","","","","","","","","","","","",""
"","ISI","","html-keyboard-response","446","561596","0.0-1.0-606.0","0","0","54541","","null","","","null","67","NaN","","","","","","","","","","","","","","",""
"","S2","","html-keyboard-response","447","561848","0.0-1.0-607.0","0","0","54541","","null","","","null","67","","NaN","","","","","","","","","","","","","",""
"","response","","html-keyboard-response","448","562385","0.0-1.0-608.0","0","0","54541","","535","","","68","67","","","2","67","training","adjacent","CB","3","2","Q.jpg","P.jpg","0","0","1","",""
"","feedback","","html-keyboard-response","449","563388","0.0-1.0-609.0-0.0","0","0","54541","","null","","","null","67","","","","","","","","","","","","","","","",""
"","ITI","","html-keyboard-response","450","564390","0.0-1.0-612.0","0","0","54541","","null","","","null","67","","","","","","","","","","","","","","","NaN",""
"","S1","","html-keyboard-response","451","564643","0.0-1.0-614.0","0","0","54541","","null","","","null","68","","","","","","","","","","","","","","","",""
"","ISI","","html-keyboard-response","452","566645","0.0-1.0-615.0","0","0","54541","","null","","","null","68","NaN","","","","","","","","","","","","","","",""
"","S2","","html-keyboard-response","453","566897","0.0-1.0-616.0","0","0","54541","","null","","","null","68","","NaN","","","","","","","","","","","","","",""
"","response","","html-keyboard-response","454","567145","0.0-1.0-617.0","0","0","54541","","246","","","75","68","","","2","68","training","adjacent","FE","6","5","M.jpg","N.jpg","1","0","0","",""
"","feedback","","html-keyboard-response","455","568147","0.0-1.0-618.0-0.0","0","0","54541","","null","","","null","68","","","","","","","","","","","","","","","",""
"","time_out","","html-keyboard-response","456","570150","0.0-1.0-620.0-0.0","0","0","54541","","null","","","null","68","","","","","","","","","","","","","","","",""
"","ITI","","html-keyboard-response","457","571151","0.0-1.0-621.0","0","0","54541","","null","","","null","68","","","","","","","","","","","","","","","NaN",""
"","S1","","html-keyboard-response","458","571403","0.0-1.0-623.0","0","0","54541","","null","","","null","69","","","","","","","","","","","","","","","",""
"","ISI","","html-keyboard-response","459","573405","0.0-1.0-624.0","0","0","54541","","null","","","null","69","NaN","","","","","","","","","","","","","","",""
"","S2","","html-keyboard-response","460","573657","0.0-1.0-625.0","0","0","54541","","null","","","null","69","","NaN","","","","","","","","","","","","","",""
"","response","","html-keyboard-response","461","574297","0.0-1.0-626.0","0","0","54541","","638","","","75","69","","","2","69","training","adjacent","FG","6","7","M.jpg","O.jpg","1","1","1","",""
"","feedback","","html-keyboard-response","462","575299","0.0-1.0-627.0-0.0","0","0","54541","","null","","","null","69","","","","","","","","","","","","","","","",""
"","ITI","","html-keyboard-response","463","576302","0.0-1.0-630.0","0","0","54541","","null","","","null","69","","","","","","","","","","","","","","","NaN",""
"","S1","","html-keyboard-response","464","576555","0.0-1.0-632.0","0","0","54541","","null","","","null","70","","","","","","","","","","","","","","","",""
"","ISI","","html-keyboard-response","465","578557","0.0-1.0-633.0","0","0","54541","","null","","","null","70","NaN","","","","","","","","","","","","","","",""
"","S2","","html-keyboard-response","466","578810","0.0-1.0-634.0","0","0","54541","","null","","","null","70","","NaN","","","","","","","","","","","","","",""
"","response","","html-keyboard-response","467","579202","0.0-1.0-635.0","0","0","54541","","390","","","68","70","","","2","70","training","adjacent","GF","7","6","O.jpg","M.jpg","0","0","1","",""
"","feedback","","html-keyboard-response","468","580204","0.0-1.0-636.0-0.0","0","0","54541","","null","","","null","70","","","","","","","","","","","","","","","",""
"","ITI","","html-keyboard-response","469","581208","0.0-1.0-639.0","0","0","54541","","null","","","null","70","","","","","","","","","","","","","","","NaN",""
"","S1","","html-keyboard-response","470","581460","0.0-1.0-641.0","0","0","54541","","null","","","null","71","","","","","","","","","","","","","","","",""
"","ISI","","html-keyboard-response","471","583464","0.0-1.0-642.0","0","0","54541","","null","","","null","71","NaN","","","","","","","","","","","","","","",""
"","S2","","html-keyboard-response","472","583717","0.0-1.0-643.0","0","0","54541","","null","","","null","71","","NaN","","","","","","","","","","","","","",""
"","response","","html-keyboard-response","473","583937","0.0-1.0-644.0","0","0","54541","","218","","","75","71","","","2","71","training","adjacent","BA","2","1","P.jpg","L.jpg","1","0","0","",""
"","feedback","","html-keyboard-response","474","584939","0.0-1.0-645.0-0.0","0","0","54541","","null","","","null","71","","","","","","","","","","","","","","","",""
"","time_out","","html-keyboard-response","475","586942","0.0-1.0-647.0-0.0","0","0","54541","","null","","","null","71","","","","","","","","","","","","","","","",""
"","ITI","","html-keyboard-response","476","587944","0.0-1.0-648.0","0","0","54541","","null","","","null","71","","","","","","","","","","","","","","","NaN",""
"","S1","","html-keyboard-response","477","588197","0.0-1.0-650.0","0","0","54541","","null","","","null","72","","","","","","","","","","","","","","","",""
"","ISI","","html-keyboard-response","478","590200","0.0-1.0-651.0","0","0","54541","","null","","","null","72","NaN","","","","","","","","","","","","","","",""
"","S2","","html-keyboard-response","479","590452","0.0-1.0-652.0","0","0","54541","","null","","","null","72","","NaN","","","","","","","","","","","","","",""
"","response","","html-keyboard-response","480","590538","0.0-1.0-653.0","0","0","54541","","84","","","75","72","","","2","72","training","adjacent","FE","6","5","M.jpg","N.jpg","1","0","0","",""
"","feedback","","html-keyboard-response","481","591540","0.0-1.0-654.0-0.0","0","0","54541","","null","","","null","72","","","","","","","","","","","","","","","",""
"","time_out","","html-keyboard-response","482","593542","0.0-1.0-656.0-0.0","0","0","54541","","null","","","null","72","","","","","","","","","","","","","","","",""
"","ITI","","html-keyboard-response","483","594545","0.0-1.0-657.0","0","0","54541","","null","","","null","72","","","","","","","","","","","","","","","NaN",""
"","S1","","html-keyboard-response","484","594797","0.0-1.0-659.0","0","0","54541","","null","","","null","73","","","","","","","","","","","","","","","",""
"","ISI","","html-keyboard-response","485","596800","0.0-1.0-660.0","0","0","54541","","null","","","null","73","NaN","","","","","","","","","","","","","","",""
"","S2","","html-keyboard-response","486","597052","0.0-1.0-661.0","0","0","54541","","null","","","null","73","","NaN","","","","","","","","","","","","","",""
"","response","","html-keyboard-response","487","597169","0.0-1.0-662.0","0","0","54541","","115","","","68","73","","","2","73","training","adjacent","FG","6","7","M.jpg","O.jpg","0","1","0","",""
"","feedback","","html-keyboard-response","488","598172","0.0-1.0-663.0-0.0","0","0","54541","","null","","","null","73","","","","","","","","","","","","","","","",""
"","time_out","","html-keyboard-response","489","600174","0.0-1.0-665.0-0.0","0","0","54541","","null","","","null","73","","","","","","","","","","","","","","","",""
"","ITI","","html-keyboard-response","490","601176","0.0-1.0-666.0","0","0","54541","","null","","","null","73","","","","","","","","","","","","","","","NaN",""
"","S1","","html-keyboard-response","491","601429","0.0-1.0-668.0","0","0","54541","","null","","","null","74","","","","","","","","","","","","","","","",""
"","ISI","","html-keyboard-response","492","603430","0.0-1.0-669.0","0","0","54541","","null","","","null","74","NaN","","","","","","","","","","","","","","",""
"","S2","","html-keyboard-response","493","603682","0.0-1.0-670.0","0","0","54541","","null","","","null","74","","NaN","","","","","","","","","","","","","",""
"","response","","html-keyboard-response","494","604001","0.0-1.0-671.0","0","0","54541","","318","","","75","74","","","2","74","training","adjacent","DE","4","5","R.jpg","N.jpg","1","1","1","",""
"","feedback","","html-keyboard-response","495","605004","0.0-1.0-672.0-0.0","0","0","54541","","null","","","null","74","","","","","","","","","","","","","","","",""
"","ITI","","html-keyboard-response","496","606007","0.0-1.0-675.0","0","0","54541","","null","","","null","74","","","","","","","","","","","","","","","NaN",""
"","S1","","html-keyboard-response","497","606259","0.0-1.0-677.0","0","0","54541","","null","","","null","75","","","","","","","","","","","","","","","",""
"","ISI","","html-keyboard-response","498","608262","0.0-1.0-678.0","0","0","54541","","null","","","null","75","NaN","","","","","","","","","","","","","","",""
"","S2","","html-keyboard-response","499","608515","0.0-1.0-679.0","0","0","54541","","null","","","null","75","","NaN","","","","","","","","","","","","","",""
"","response","","html-keyboard-response","500","608650","0.0-1.0-680.0","0","0","54541","","133","","","75","75","","","2","75","training","adjacent","GF","7","6","O.jpg","M.jpg","1","0","0","",""
"","feedback","","html-keyboard-response","501","609653","0.0-1.0-681.0-0.0","0","0","54541","","null","","","null","75","","","","","","","","","","","","","","","",""
"","time_out","","html-keyboard-response","502","611655","0.0-1.0-683.0-0.0","0","0","54541","","null","","","null","75","","","","","","","","","","","","","","","",""
"","ITI","","html-keyboard-response","503","612657","0.0-1.0-684.0","0","0","54541","","null","","","null","75","","","","","","","","","","","","","","","NaN",""
"","S1","","html-keyboard-response","504","612909","0.0-1.0-686.0","0","0","54541","","null","","","null","76","","","","","","","","","","","","","","","",""
"","ISI","","html-keyboard-response","505","614911","0.0-1.0-687.0","0","0","54541","","null","","","null","76","NaN","","","","","","","","","","","","","","",""
"","S2","","html-keyboard-response","506","615164","0.0-1.0-688.0","0","0","54541","","null","","","null","76","","NaN","","","","","","","","","","","","","",""
"","response","","html-keyboard-response","507","615683","0.0-1.0-689.0","0","0","54541","","516","","","68","76","","","2","76","training","adjacent","AB","1","2","L.jpg","P.jpg","0","1","0","",""
"","feedback","","html-keyboard-response","508","616685","0.0-1.0-690.0-0.0","0","0","54541","","null","","","null","76","","","","","","","","","","","","","","","",""
"","time_out","","html-keyboard-response","509","618687","0.0-1.0-692.0-0.0","0","0","54541","","null","","","null","76","","","","","","","","","","","","","","","",""
"","ITI","","html-keyboard-response","510","619690","0.0-1.0-693.0","0","0","54541","","null","","","null","76","","","","","","","","","","","","","","","NaN",""
"","S1","","html-keyboard-response","511","619942","0.0-1.0-695.0","0","0","54541","","null","","","null","77","","","","","","","","","","","","","","","",""
"","ISI","","html-keyboard-response","512","621945","0.0-1.0-696.0","0","0","54541","","null","","","null","77","NaN","","","","","","","","","","","","","","",""
"","S2","","html-keyboard-response","513","622197","0.0-1.0-697.0","0","0","54541","","null","","","null","77","","NaN","","","","","","","","","","","","","",""
"","response","","html-keyboard-response","514","622586","0.0-1.0-698.0","0","0","54541","","388","","","75","77","","","2","77","training","adjacent","DC","4","3","R.jpg","Q.jpg","1","0","0","",""
"","feedback","","html-keyboard-response","515","623589","0.0-1.0-699.0-0.0","0","0","54541","","null","","","null","77","","","","","","","","","","","","","","","",""
"","time_out","","html-keyboard-response","516","625591","0.0-1.0-701.0-0.0","0","0","54541","","null","","","null","77","","","","","","","","","","","","","","","",""
"","ITI","","html-keyboard-response","517","626593","0.0-1.0-702.0","0","0","54541","","null","","","null","77","","","","","","","","","","","","","","","NaN",""
"","S1","","html-keyboard-response","518","626846","0.0-1.0-704.0","0","0","54541","","null","","","null","78","","","","","","","","","","","","","","","",""
"","ISI","","html-keyboard-response","519","628848","0.0-1.0-705.0","0","0","54541","","null","","","null","78","NaN","","","","","","","","","","","","","","",""
"","S2","","html-keyboard-response","520","629100","0.0-1.0-706.0","0","0","54541","","null","","","null","78","","NaN","","","","","","","","","","","","","",""
"","response","","html-keyboard-response","521","629530","0.0-1.0-707.0","0","0","54541","","428","","","68","78","","","2","78","training","adjacent","FE","6","5","M.jpg","N.jpg","0","0","1","",""
"","feedback","","html-keyboard-response","522","630532","0.0-1.0-708.0-0.0","0","0","54541","","null","","","null","78","","","","","","","","","","","","","","","",""
"","ITI","","html-keyboard-response","523","631534","0.0-1.0-711.0","0","0","54541","","null","","","null","78","","","","","","","","","","","","","","","NaN",""
"","S1","","html-keyboard-response","524","631786","0.0-1.0-713.0","0","0","54541","","null","","","null","79","","","","","","","","","","","","","","","",""
"","ISI","","html-keyboard-response","525","633788","0.0-1.0-714.0","0","0","54541","","null","","","null","79","NaN","","","","","","","","","","","","","","",""
"","S2","","html-keyboard-response","526","634040","0.0-1.0-715.0","0","0","54541","","null","","","null","79","","NaN","","","","","","","","","","","","","",""
"","response","","html-keyboard-response","527","634530","0.0-1.0-716.0","0","0","54541","","488","","","68","79","","","2","79","training","adjacent","ED","5","4","N.jpg","R.jpg","0","0","1","",""
"","feedback","","html-keyboard-response","528","635533","0.0-1.0-717.0-0.0","0","0","54541","","null","","","null","79","","","","","","","","","","","","","","","",""
"","ITI","","html-keyboard-response","529","636540","0.0-1.0-720.0","0","0","54541","","null","","","null","79","","","","","","","","","","","","","","","NaN",""
"","S1","","html-keyboard-response","530","636792","0.0-1.0-722.0","0","0","54541","","null","","","null","80","","","","","","","","","","","","","","","",""
"","ISI","","html-keyboard-response","531","638794","0.0-1.0-723.0","0","0","54541","","null","","","null","80","NaN","","","","","","","","","","","","","","",""
"","S2","","html-keyboard-response","532","639046","0.0-1.0-724.0","0","0","54541","","null","","","null","80","","NaN","","","","","","","","","","","","","",""
"","response","","html-keyboard-response","533","639538","0.0-1.0-725.0","0","0","54541","","490","","","68","80","","","2","80","training","adjacent","DE","4","5","R.jpg","N.jpg","0","1","0","",""
"","feedback","","html-keyboard-response","534","640541","0.0-1.0-726.0-0.0","0","0","54541","","null","","","null","80","","","","","","","","","","","","","","","",""
"","time_out","","html-keyboard-response","535","642543","0.0-1.0-728.0-0.0","0","0","54541","","null","","","null","80","","","","","","","","","","","","","","","",""
"","ITI","","html-keyboard-response","536","643547","0.0-1.0-729.0","0","0","54541","","null","","","null","80","","","","","","","","","","","","","","","NaN",""
"","S1","","html-keyboard-response","537","643799","0.0-1.0-731.0","0","0","54541","","null","","","null","81","","","","","","","","","","","","","","","",""
"","ISI","","html-keyboard-response","538","645800","0.0-1.0-732.0","0","0","54541","","null","","","null","81","NaN","","","","","","","","","","","","","","",""
"","S2","","html-keyboard-response","539","646053","0.0-1.0-733.0","0","0","54541","","null","","","null","81","","NaN","","","","","","","","","","","","","",""
"","response","","html-keyboard-response","540","646306","0.0-1.0-734.0","0","0","54541","","251","","","75","81","","","2","81","training","adjacent","DE","4","5","R.jpg","N.jpg","1","1","1","",""
"","feedback","","html-keyboard-response","541","647309","0.0-1.0-735.0-0.0","0","0","54541","","null","","","null","81","","","","","","","","","","","","","","","",""
"","ITI","","html-keyboard-response","542","648312","0.0-1.0-738.0","0","0","54541","","null","","","null","81","","","","","","","","","","","","","","","NaN",""
"","S1","","html-keyboard-response","543","648565","0.0-1.0-740.0","0","0","54541","","null","","","null","82","","","","","","","","","","","","","","","",""
"","ISI","","html-keyboard-response","544","650568","0.0-1.0-741.0","0","0","54541","","null","","","null","82","NaN","","","","","","","","","","","","","","",""
"","S2","","html-keyboard-response","545","650820","0.0-1.0-742.0","0","0","54541","","null","","","null","82","","NaN","","","","","","","","","","","","","",""
"","response","","html-keyboard-response","546","652179","0.0-1.0-743.0","0","0","54541","","1357","","","75","82","","","2","82","training","adjacent","DC","4","3","R.jpg","Q.jpg","1","0","0","",""
"","feedback","","html-keyboard-response","547","653181","0.0-1.0-744.0-0.0","0","0","54541","","null","","","null","82","","","","","","","","","","","","","","","",""
"","time_out","","html-keyboard-response","548","655183","0.0-1.0-746.0-0.0","0","0","54541","","null","","","null","82","","","","","","","","","","","","","","","",""
"","ITI","","html-keyboard-response","549","656186","0.0-1.0-747.0","0","0","54541","","null","","","null","82","","","","","","","","","","","","","","","NaN",""
"","S1","","html-keyboard-response","550","656438","0.0-1.0-749.0","0","0","54541","","null","","","null","83","","","","","","","","","","","","","","","",""
"","ISI","","html-keyboard-response","551","658440","0.0-1.0-750.0","0","0","54541","","null","","","null","83","NaN","","","","","","","","","","","","","","",""
"","S2","","html-keyboard-response","552","658693","0.0-1.0-751.0","0","0","54541","","null","","","null","83","","NaN","","","","","","","","","","","","","",""
"","response","","html-keyboard-response","553","659010","0.0-1.0-752.0","0","0","54541","","315","","","68","83","","","2","83","training","adjacent","BA","2","1","P.jpg","L.jpg","0","0","1","",""
"","feedback","","html-keyboard-response","554","660013","0.0-1.0-753.0-0.0","0","0","54541","","null","","","null","83","","","","","","","","","","","","","","","",""
"","ITI","","html-keyboard-response","555","661016","0.0-1.0-756.0","0","0","54541","","null","","","null","83","","","","","","","","","","","","","","","NaN",""
"","S1","","html-keyboard-response","556","661268","0.0-1.0-758.0","0","0","54541","","null","","","null","84","","","","","","","","","","","","","","","",""
"","ISI","","html-keyboard-response","557","663270","0.0-1.0-759.0","0","0","54541","","null","","","null","84","NaN","","","","","","","","","","","","","","",""
"","S2","","html-keyboard-response","558","663523","0.0-1.0-760.0","0","0","54541","","null","","","null","84","","NaN","","","","","","","","","","","","","",""
"","response","","html-keyboard-response","559","664258","0.0-1.0-761.0","0","0","54541","","733","","","68","84","","","2","84","training","adjacent","BC","2","3","P.jpg","Q.jpg","0","1","0","",""
"","feedback","","html-keyboard-response","560","665261","0.0-1.0-762.0-0.0","0","0","54541","","null","","","null","84","","","","","","","","","","","","","","","",""
"","time_out","","html-keyboard-response","561","667264","0.0-1.0-764.0-0.0","0","0","54541","","null","","","null","84","","","","","","","","","","","","","","","",""
"","ITI","","html-keyboard-response","562","668265","0.0-1.0-765.0","0","0","54541","","null","","","null","84","","","","","","","","","","","","","","","NaN",""
"","S1","","html-keyboard-response","563","668518","0.0-1.0-767.0","0","0","54541","","null","","","null","85","","","","","","","","","","","","","","","",""
"","ISI","","html-keyboard-response","564","670522","0.0-1.0-768.0","0","0","54541","","null","","","null","85","NaN","","","","","","","","","","","","","","",""
"","S2","","html-keyboard-response","565","670773","0.0-1.0-769.0","0","0","54541","","null","","","null","85","","NaN","","","","","","","","","","","","","",""
"","response","","html-keyboard-response","566","671505","0.0-1.0-770.0","0","0","54541","","730","","","75","85","","","2","85","training","adjacent","CB","3","2","Q.jpg","P.jpg","1","0","0","",""
"","feedback","","html-keyboard-response","567","672508","0.0-1.0-771.0-0.0","0","0","54541","","null","","","null","85","","","","","","","","","","","","","","","",""
"","time_out","","html-keyboard-response","568","674510","0.0-1.0-773.0-0.0","0","0","54541","","null","","","null","85","","","","","","","","","","","","","","","",""
"","ITI","","html-keyboard-response","569","675522","0.0-1.0-774.0","0","0","54541","","null","","","null","85","","","","","","","","","","","","","","","NaN",""
"","S1","","html-keyboard-response","570","675787","0.0-1.0-776.0","0","0","54541","","null","","","null","86","","","","","","","","","","","","","","","",""
"","ISI","","html-keyboard-response","571","677789","0.0-1.0-777.0","0","0","54541","","null","","","null","86","NaN","","","","","","","","","","","","","","",""
"","S2","","html-keyboard-response","572","678042","0.0-1.0-778.0","0","0","54541","","null","","","null","86","","NaN","","","","","","","","","","","","","",""
"","response","","html-keyboard-response","573","678265","0.0-1.0-779.0","0","0","54541","","223","","","75","86","","","2","86","training","adjacent","BC","2","3","P.jpg","Q.jpg","1","1","1","",""
"","feedback","","html-keyboard-response","574","679267","0.0-1.0-780.0-0.0","0","0","54541","","null","","","null","86","","","","","","","","","","","","","","","",""
"","ITI","","html-keyboard-response","575","680271","0.0-1.0-783.0","0","0","54541","","null","","","null","86","","","","","","","","","","","","","","","NaN",""
"","S1","","html-keyboard-response","576","680534","0.0-1.0-785.0","0","0","54541","","null","","","null","87","","","","","","","","","","","","","","","",""
"","ISI","","html-keyboard-response","577","682536","0.0-1.0-786.0","0","0","54541","","null","","","null","87","NaN","","","","","","","","","","","","","","",""
"","S2","","html-keyboard-response","578","682789","0.0-1.0-787.0","0","0","54541","","null","","","null","87","","NaN","","","","","","","","","","","","","",""
"","response","","html-keyboard-response","579","683185","0.0-1.0-788.0","0","0","54541","","395","","","68","87","","","2","87","training","adjacent","FE","6","5","M.jpg","N.jpg","0","0","1","",""
"","feedback","","html-keyboard-response","580","684189","0.0-1.0-789.0-0.0","0","0","54541","","null","","","null","87","","","","","","","","","","","","","","","",""
"","ITI","","html-keyboard-response","581","685192","0.0-1.0-792.0","0","0","54541","","null","","","null","87","","","","","","","","","","","","","","","NaN",""
"","S1","","html-keyboard-response","582","685446","0.0-1.0-794.0","0","0","54541","","null","","","null","88","","","","","","","","","","","","","","","",""
