"success","ttype","start_time","trial_type","trial_index","time_elapsed","internal_node_id","warning","missed_checkup","PID","view_history","rt","responses","repeat_instructions","key_press","index","keypress_isi","keypress_S2","block","trial_num","phase","pair_type","S1_stim","S2_stim","S1_img","S2_img","S1_chosen","S1_higher","accuracy","keypress_iti","total_bonus_tally"
"true","full_screen","d07252022hr1931","fullscreen","0","5217","0.0-0.0","0","0","18183","","","","","","","","","","","","","","","","","","","","",""
"","instructions","","instructions","1","6685","0.0-1.0-0.0-0.0","0","0","18183","[{""page_index"":0,""viewing_time"":1159},{""page_index"":1,""viewing_time"":154},{""page_index"":2,""viewing_time"":153}]","1467","","","","","","","","","","","","","","","","","","",""
"","comprehension_check","","survey-multi-choice","2","14289","0.0-1.0-0.0-1.0","0","0","18183","","7599","{""Q0"":""True"",""Q1"":""True"",""Q2"":""When you see the prompt 'MAKE A CHOICE' after the second image was presented"",""Q3"":""Green mark"",""Q4"":""either D or K""}","0","","","","","","","","","","","","","","","","",""
"","start_exp","","html-keyboard-response","3","15812","0.0-1.0-1.0","0","0","18183","","1520","","","32","","","","","","","","","","","","","","","",""
"","S1","","html-keyboard-response","4","16065","0.0-1.0-2.0","0","0","18183","","null","","","null","0","","","","","","","","","","","","","","",""
"","ISI","","html-keyboard-response","5","16169","0.0-1.0-3.0","0","0","18183","","null","","","null","0","NaN","","","","","","","","","","","","","",""
"","S2","","html-keyboard-response","6","16421","0.0-1.0-4.0","0","0","18183","","null","","","null","0","","NaN","","","","","","","","","","","","",""
"","response","","html-keyboard-response","7","16458","0.0-1.0-5.0","0","0","18183","","35","","","68","0","","","1","0","training","adjacent","2","1","L.jpg","N.jpg","0","0","1","",""
"","feedback","","html-keyboard-response","8","16562","0.0-1.0-6.0-0.0","0","0","18183","","null","","","null","0","","","","","","","","","","","","","","",""
"","ITI","","html-keyboard-response","9","17065","0.0-1.0-9.0","0","0","18183","","null","","","null","0","","","","","","","","","","","","","","NaN",""
"","S1","","html-keyboard-response","10","17318","0.0-1.0-11.0","0","0","18183","","null","","","null","1","","","","","","","","","","","","","","",""
"","ISI","","html-keyboard-response","11","17423","0.0-1.0-12.0","0","0","18183","","null","","","null","1","NaN","","","","","","","","","","","","","",""
"","S2","","html-keyboard-response","12","17679","0.0-1.0-13.0","0","0","18183","","137","","","68","1","","d","","","","","","","","","","","","",""
"","response","","html-keyboard-response","13","17830","0.0-1.0-14.0","0","0","18183","","149","","","68","1","","","1","1","training","adjacent","7","6","P.jpg","M.jpg","0","0","1","",""
"","feedback","","html-keyboard-response","14","17934","0.0-1.0-15.0-0.0","0","0","18183","","null","","","null","1","","","","","","","","","","","","","","",""
"","ITI","","html-keyboard-response","15","18438","0.0-1.0-18.0","0","0","18183","","284","","","68","1","","","","","","","","","","","","","","d",""
"","S1","","html-keyboard-response","16","18694","0.0-1.0-20.0","0","0","18183","","null","","","null","2","","","","","","","","","","","","","","",""
"","ISI","","html-keyboard-response","17","18797","0.0-1.0-21.0","0","0","18183","","27","","","75","2","k","","","","","","","","","","","","","",""
"","S2","","html-keyboard-response","18","19052","0.0-1.0-22.0","0","0","18183","","127","","","75","2","","k","","","","","","","","","","","","",""
"","response","","html-keyboard-response","19","19127","0.0-1.0-23.0","0","0","18183","","73","","","75","2","","","1","2","training","adjacent","5","4","O.jpg","Q.jpg","1","0","0","",""
"","feedback","","html-keyboard-response","20","19234","0.0-1.0-24.0-0.0","0","0","18183","","null","","","null","2","","","","","","","","","","","","","","",""
"","time_out","","html-keyboard-response","21","19337","0.0-1.0-26.0-0.0","0","0","18183","","null","","","null","2","","","","","","","","","","","","","","",""
"","ITI","","html-keyboard-response","22","19842","0.0-1.0-27.0","0","0","18183","","176","","","75","2","","","","","","","","","","","","","","k",""
"","S1","","html-keyboard-response","23","20096","0.0-1.0-29.0","0","0","18183","","null","","","null","3","","","","","","","","","","","","","","",""
"","ISI","","html-keyboard-response","24","20199","0.0-1.0-30.0","0","0","18183","","null","","","null","3","NaN","","","","","","","","","","","","","",""
"","S2","","html-keyboard-response","25","20452","0.0-1.0-31.0","0","0","18183","","122","","","68","3","","d","","","","","","","","","","","","",""
"","response","","html-keyboard-response","26","20625","0.0-1.0-32.0","0","0","18183","","171","","","68","3","","","1","3","training","adjacent","4","3","Q.jpg","R.jpg","0","0","1","",""
"","feedback","","html-keyboard-response","27","20726","0.0-1.0-33.0-0.0","0","0","18183","","null","","","null","3","","","","","","","","","","","","","","",""
"","ITI","","html-keyboard-response","28","21233","0.0-1.0-36.0","0","0","18183","","148","","","68","3","","","","","","","","","","","","","","d",""
"","S1","","html-keyboard-response","29","21487","0.0-1.0-38.0","0","0","18183","","null","","","null","4","","","","","","","","","","","","","","",""
"","ISI","","html-keyboard-response","30","21593","0.0-1.0-39.0","0","0","18183","","null","","","null","4","NaN","","","","","","","","","","","","","",""
"","S2","","html-keyboard-response","31","21849","0.0-1.0-40.0","0","0","18183","","27","","","68","4","","d","","","","","","","","","","","","",""
"","response","","html-keyboard-response","32","21907","0.0-1.0-41.0","0","0","18183","","58","","","68","4","","","1","4","training","adjacent","3","2","R.jpg","L.jpg","0","0","1","",""
"","feedback","","html-keyboard-response","33","22013","0.0-1.0-42.0-0.0","0","0","18183","","null","","","null","4","","","","","","","","","","","","","","",""
"","ITI","","html-keyboard-response","34","22518","0.0-1.0-45.0","0","0","18183","","170","","","68","4","","","","","","","","","","","","","","d",""
"","S1","","html-keyboard-response","35","22771","0.0-1.0-47.0","0","0","18183","","null","","","null","5","","","","","","","","","","","","","","",""
"","ISI","","html-keyboard-response","36","22873","0.0-1.0-48.0","0","0","18183","","93","","","75","5","k","","","","","","","","","","","","","",""
"","S2","","html-keyboard-response","37","23127","0.0-1.0-49.0","0","0","18183","","null","","","null","5","","NaN","","","","","","","","","","","","",""
"","response","","html-keyboard-response","38","23291","0.0-1.0-50.0","0","0","18183","","163","","","75","5","","","1","5","training","adjacent","6","7","M.jpg","P.jpg","1","1","1","",""
"","feedback","","html-keyboard-response","39","23394","0.0-1.0-51.0-0.0","0","0","18183","","null","","","null","5","","","","","","","","","","","","","","",""
"","ITI","","html-keyboard-response","40","23898","0.0-1.0-54.0","0","0","18183","","131","","","75","5","","","","","","","","","","","","","","k",""
"","S1","","html-keyboard-response","41","24150","0.0-1.0-56.0","0","0","18183","","null","","","null","6","","","","","","","","","","","","","","",""
"","ISI","","html-keyboard-response","42","24252","0.0-1.0-57.0","0","0","18183","","null","","","null","6","NaN","","","","","","","","","","","","","",""
"","S2","","html-keyboard-response","43","24507","0.0-1.0-58.0","0","0","18183","","68","","","75","6","","k","","","","","","","","","","","","",""
"","response","","html-keyboard-response","44","24569","0.0-1.0-59.0","0","0","18183","","60","","","75","6","","","1","6","training","adjacent","5","6","O.jpg","M.jpg","1","1","1","",""
"","feedback","","html-keyboard-response","45","24672","0.0-1.0-60.0-0.0","0","0","18183","","null","","","null","6","","","","","","","","","","","","","","",""
"","ITI","","html-keyboard-response","46","25175","0.0-1.0-63.0","0","0","18183","","124","","","75","6","","","","","","","","","","","","","","k",""
"","S1","","html-keyboard-response","47","25428","0.0-1.0-65.0","0","0","18183","","null","","","null","7","","","","","","","","","","","","","","",""
"","ISI","","html-keyboard-response","48","25534","0.0-1.0-66.0","0","0","18183","","null","","","null","7","NaN","","","","","","","","","","","","","",""
"","S2","","html-keyboard-response","49","25790","0.0-1.0-67.0","0","0","18183","","5","","","75","7","","k","","","","","","","","","","","","",""
"","response","","html-keyboard-response","50","25795","0.0-1.0-68.0","0","0","18183","","3","","","75","7","","","1","7","training","adjacent","6","5","M.jpg","O.jpg","1","0","0","",""
"","feedback","","html-keyboard-response","51","25897","0.0-1.0-69.0-0.0","0","0","18183","","null","","","null","7","","","","","","","","","","","","","","",""
"","time_out","","html-keyboard-response","52","26000","0.0-1.0-71.0-0.0","0","0","18183","","null","","","null","7","","","","","","","","","","","","","","",""
"","ITI","","html-keyboard-response","53","26503","0.0-1.0-72.0","0","0","18183","","15","","","75","7","","","","","","","","","","","","","","k",""
"","S1","","html-keyboard-response","54","26758","0.0-1.0-74.0","0","0","18183","","null","","","null","8","","","","","","","","","","","","","","",""
"","ISI","","html-keyboard-response","55","26863","0.0-1.0-75.0","0","0","18183","","null","","","null","8","NaN","","","","","","","","","","","","","",""
"","S2","","html-keyboard-response","56","27117","0.0-1.0-76.0","0","0","18183","","36","","","75","8","","k","","","","","","","","","","","","",""
"","response","","html-keyboard-response","57","27358","0.0-1.0-77.0","0","0","18183","","239","","","75","8","","","1","8","training","adjacent","1","2","N.jpg","L.jpg","1","1","1","",""
"","feedback","","html-keyboard-response","58","27462","0.0-1.0-78.0-0.0","0","0","18183","","null","","","null","8","","","","","","","","","","","","","","",""
"","ITI","","html-keyboard-response","59","27965","0.0-1.0-81.0","0","0","18183","","116","","","75","8","","","","","","","","","","","","","","k",""
"","S1","","html-keyboard-response","60","28217","0.0-1.0-83.0","0","0","18183","","null","","","null","9","","","","","","","","","","","","","","",""
"","ISI","","html-keyboard-response","61","28319","0.0-1.0-84.0","0","0","18183","","1","","","75","9","k","","","","","","","","","","","","","",""
"","S2","","html-keyboard-response","62","28575","0.0-1.0-85.0","0","0","18183","","113","","","75","9","","k","","","","","","","","","","","","",""
"","response","","html-keyboard-response","63","28625","0.0-1.0-86.0","0","0","18183","","48","","","75","9","","","1","9","training","adjacent","3","4","R.jpg","Q.jpg","1","1","1","",""
"","feedback","","html-keyboard-response","64","28727","0.0-1.0-87.0-0.0","0","0","18183","","null","","","null","9","","","","","","","","","","","","","","",""
"","ITI","","html-keyboard-response","65","29230","0.0-1.0-90.0","0","0","18183","","85","","","75","9","","","","","","","","","","","","","","k",""
"","S1","","html-keyboard-response","66","29485","0.0-1.0-92.0","0","0","18183","","null","","","null","10","","","","","","","","","","","","","","",""
"","ISI","","html-keyboard-response","67","29588","0.0-1.0-93.0","0","0","18183","","null","","","null","10","NaN","","","","","","","","","","","","","",""
"","S2","","html-keyboard-response","68","29845","0.0-1.0-94.0","0","0","18183","","94","","","75","10","","k","","","","","","","","","","","","",""
"","response","","html-keyboard-response","69","29918","0.0-1.0-95.0","0","0","18183","","72","","","75","10","","","1","10","training","adjacent","2","3","L.jpg","R.jpg","1","1","1","",""
"","feedback","","html-keyboard-response","70","30021","0.0-1.0-96.0-0.0","0","0","18183","","null","","","null","10","","","","","","","","","","","","","","",""
"","ITI","","html-keyboard-response","71","30526","0.0-1.0-99.0","0","0","18183","","137","","","75","10","","","","","","","","","","","","","","k",""
"","S1","","html-keyboard-response","72","30778","0.0-1.0-101.0","0","0","18183","","null","","","null","11","","","","","","","","","","","","","","",""
"","ISI","","html-keyboard-response","73","30884","0.0-1.0-102.0","0","0","18183","","null","","","null","11","NaN","","","","","","","","","","","","","",""
"","S2","","html-keyboard-response","74","31140","0.0-1.0-103.0","0","0","18183","","28","","","75","11","","k","","","","","","","","","","","","",""
"","response","","html-keyboard-response","75","31516","0.0-1.0-104.0","0","0","18183","","375","","","75","11","","","1","11","training","adjacent","4","5","Q.jpg","O.jpg","1","1","1","",""
"","feedback","","html-keyboard-response","76","31618","0.0-1.0-105.0-0.0","0","0","18183","","null","","","null","11","","","","","","","","","","","","","","",""
"","ITI","","html-keyboard-response","77","32123","0.0-1.0-108.0","0","0","18183","","162","","","75","11","","","","","","","","","","","","","","k",""
"","block_over","","html-keyboard-response","78","33633","0.0-1.0-109.0-0.0","0","0","18183","","1506","","","32","11","","","","","","","","","","","","","","",""
"","S1","","html-keyboard-response","79","33888","0.0-1.0-110.0","0","0","18183","","null","","","null","12","","","","","","","","","","","","","","",""
"","ISI","","html-keyboard-response","80","33994","0.0-1.0-111.0","0","0","18183","","55","","","75","12","k","","","","","","","","","","","","","",""
"","S2","","html-keyboard-response","81","34250","0.0-1.0-112.0","0","0","18183","","193","","","75","12","","k","","","","","","","","","","","","",""
"","response","","html-keyboard-response","82","34447","0.0-1.0-113.0","0","0","18183","","195","","","75","12","","","2","12","training","adjacent","3","2","R.jpg","L.jpg","1","0","0","",""
"","feedback","","html-keyboard-response","83","34548","0.0-1.0-114.0-0.0","0","0","18183","","null","","","null","12","","","","","","","","","","","","","","",""
"","time_out","","html-keyboard-response","84","34655","0.0-1.0-116.0-0.0","0","0","18183","","null","","","null","12","","","","","","","","","","","","","","",""
"","ITI","","html-keyboard-response","85","35160","0.0-1.0-117.0","0","0","18183","","59","","","75","12","","","","","","","","","","","","","","k",""
"","S1","","html-keyboard-response","86","35417","0.0-1.0-119.0","0","0","18183","","null","","","null","13","","","","","","","","","","","","","","",""
"","ISI","","html-keyboard-response","87","35524","0.0-1.0-120.0","0","0","18183","","null","","","null","13","NaN","","","","","","","","","","","","","",""
"","S2","","html-keyboard-response","88","35777","0.0-1.0-121.0","0","0","18183","","139","","","68","13","","d","","","","","","","","","","","","",""
"","response","","html-keyboard-response","89","36027","0.0-1.0-122.0","0","0","18183","","249","","","68","13","","","2","13","training","adjacent","4","3","Q.jpg","R.jpg","0","0","1","",""
"","feedback","","html-keyboard-response","90","36130","0.0-1.0-123.0-0.0","0","0","18183","","null","","","null","13","","","","","","","","","","","","","","",""
"","ITI","","html-keyboard-response","91","36635","0.0-1.0-126.0","0","0","18183","","264","","","68","13","","","","","","","","","","","","","","d",""
"","S1","","html-keyboard-response","92","36888","0.0-1.0-128.0","0","0","18183","","null","","","null","14","","","","","","","","","","","","","","",""
"","ISI","","html-keyboard-response","93","36995","0.0-1.0-129.0","0","0","18183","","71","","","68","14","d","","","","","","","","","","","","","",""
"","S2","","html-keyboard-response","94","37252","0.0-1.0-130.0","0","0","18183","","null","","","null","14","","NaN","","","","","","","","","","","","",""
"","response","","html-keyboard-response","95","37286","0.0-1.0-131.0","0","0","18183","","33","","","68","14","","","2","14","training","adjacent","5","4","O.jpg","Q.jpg","0","0","1","",""
"","feedback","","html-keyboard-response","96","37388","0.0-1.0-132.0-0.0","0","0","18183","","null","","","null","14","","","","","","","","","","","","","","",""
"","ITI","","html-keyboard-response","97","37893","0.0-1.0-135.0","0","0","18183","","232","","","68","14","","","","","","","","","","","","","","d",""
"","S1","","html-keyboard-response","98","38147","0.0-1.0-137.0","0","0","18183","","null","","","null","15","","","","","","","","","","","","","","",""
"","ISI","","html-keyboard-response","99","38248","0.0-1.0-138.0","0","0","18183","","22","","","68","15","d","","","","","","","","","","","","","",""
"","S2","","html-keyboard-response","100","38503","0.0-1.0-139.0","0","0","18183","","null","","","null","15","","NaN","","","","","","","","","","","","",""
"","response","","html-keyboard-response","101","38509","0.0-1.0-140.0","0","0","18183","","5","","","68","15","","","2","15","training","adjacent","7","6","P.jpg","M.jpg","0","0","1","",""
"","feedback","","html-keyboard-response","102","38611","0.0-1.0-141.0-0.0","0","0","18183","","null","","","null","15","","","","","","","","","","","","","","",""
"","ITI","","html-keyboard-response","103","39115","0.0-1.0-144.0","0","0","18183","","221","","","68","15","","","","","","","","","","","","","","d",""
"","S1","","html-keyboard-response","104","39372","0.0-1.0-146.0","0","0","18183","","null","","","null","16","","","","","","","","","","","","","","",""
"","ISI","","html-keyboard-response","105","39474","0.0-1.0-147.0","0","0","18183","","null","","","null","16","NaN","","","","","","","","","","","","","",""
"","S2","","html-keyboard-response","106","39730","0.0-1.0-148.0","0","0","18183","","159","","","68","16","","d","","","","","","","","","","","","",""
"","response","","html-keyboard-response","107","40001","0.0-1.0-149.0","0","0","18183","","269","","","68","16","","","2","16","training","adjacent","1","2","N.jpg","L.jpg","0","1","0","",""
"","feedback","","html-keyboard-response","108","40102","0.0-1.0-150.0-0.0","0","0","18183","","null","","","null","16","","","","","","","","","","","","","","",""
"","time_out","","html-keyboard-response","109","40206","0.0-1.0-152.0-0.0","0","0","18183","","null","","","null","16","","","","","","","","","","","","","","",""
"","ITI","","html-keyboard-response","110","40708","0.0-1.0-153.0","0","0","18183","","150","","","68","16","","","","","","","","","","","","","","d",""
"","S1","","html-keyboard-response","111","40963","0.0-1.0-155.0","0","0","18183","","null","","","null","17","","","","","","","","","","","","","","",""
"","ISI","","html-keyboard-response","112","41070","0.0-1.0-156.0","0","0","18183","","null","","","null","17","NaN","","","","","","","","","","","","","",""
"","S2","","html-keyboard-response","113","41322","0.0-1.0-157.0","0","0","18183","","6","","","68","17","","d","","","","","","","","","","","","",""
"","response","","html-keyboard-response","114","41407","0.0-1.0-158.0","0","0","18183","","83","","","68","17","","","2","17","training","adjacent","4","5","Q.jpg","O.jpg","0","1","0","",""
"","feedback","","html-keyboard-response","115","41511","0.0-1.0-159.0-0.0","0","0","18183","","null","","","null","17","","","","","","","","","","","","","","",""
"","time_out","","html-keyboard-response","116","41617","0.0-1.0-161.0-0.0","0","0","18183","","null","","","null","17","","","","","","","","","","","","","","",""
"","ITI","","html-keyboard-response","117","42120","0.0-1.0-162.0","0","0","18183","","9","","","75","17","","","","","","","","","","","","","","k",""
"","S1","","html-keyboard-response","118","42372","0.0-1.0-164.0","0","0","18183","","null","","","null","18","","","","","","","","","","","","","","",""
"","ISI","","html-keyboard-response","119","42474","0.0-1.0-165.0","0","0","18183","","12","","","75","18","k","","","","","","","","","","","","","",""
"","S2","","html-keyboard-response","120","42729","0.0-1.0-166.0","0","0","18183","","176","","","75","18","","k","","","","","","","","","","","","",""
"","response","","html-keyboard-response","121","42954","0.0-1.0-167.0","0","0","18183","","223","","","75","18","","","2","18","training","adjacent","6","7","M.jpg","P.jpg","1","1","1","",""
"","feedback","","html-keyboard-response","122","43057","0.0-1.0-168.0-0.0","0","0","18183","","null","","","null","18","","","","","","","","","","","","","","",""
"","ITI","","html-keyboard-response","123","43562","0.0-1.0-171.0","0","0","18183","","241","","","75","18","","","","","","","","","","","","","","k",""
"","S1","","html-keyboard-response","124","43814","0.0-1.0-173.0","0","0","18183","","null","","","null","19","","","","","","","","","","","","","","",""
"","ISI","","html-keyboard-response","125","43919","0.0-1.0-174.0","0","0","18183","","null","","","null","19","NaN","","","","","","","","","","","","","",""
"","S2","","html-keyboard-response","126","44171","0.0-1.0-175.0","0","0","18183","","58","","","75","19","","k","","","","","","","","","","","","",""
"","response","","html-keyboard-response","127","44276","0.0-1.0-176.0","0","0","18183","","104","","","75","19","","","2","19","training","adjacent","2","3","L.jpg","R.jpg","1","1","1","",""
"","feedback","","html-keyboard-response","128","44379","0.0-1.0-177.0-0.0","0","0","18183","","null","","","null","19","","","","","","","","","","","","","","",""
"","ITI","","html-keyboard-response","129","44883","0.0-1.0-180.0","0","0","18183","","143","","","75","19","","","","","","","","","","","","","","k",""
"","S1","","html-keyboard-response","130","45135","0.0-1.0-182.0","0","0","18183","","null","","","null","20","","","","","","","","","","","","","","",""
"","ISI","","html-keyboard-response","131","45237","0.0-1.0-183.0","0","0","18183","","null","","","null","20","NaN","","","","","","","","","","","","","",""
"","S2","","html-keyboard-response","132","45491","0.0-1.0-184.0","0","0","18183","","106","","","68","20","","d","","","","","","","","","","","","",""
"","response","","html-keyboard-response","133","45669","0.0-1.0-185.0","0","0","18183","","177","","","68","20","","","2","20","training","adjacent","3","4","R.jpg","Q.jpg","0","1","0","",""
"","feedback","","html-keyboard-response","134","45772","0.0-1.0-186.0-0.0","0","0","18183","","null","","","null","20","","","","","","","","","","","","","","",""
"","time_out","","html-keyboard-response","135","45874","0.0-1.0-188.0-0.0","0","0","18183","","null","","","null","20","","","","","","","","","","","","","","",""
"","ITI","","html-keyboard-response","136","46377","0.0-1.0-189.0","0","0","18183","","125","","","68","20","","","","","","","","","","","","","","d",""
"","S1","","html-keyboard-response","137","46631","0.0-1.0-191.0","0","0","18183","","null","","","null","21","","","","","","","","","","","","","","",""
"","ISI","","html-keyboard-response","138","46733","0.0-1.0-192.0","0","0","18183","","68","","","68","21","d","","","","","","","","","","","","","",""
"","S2","","html-keyboard-response","139","46988","0.0-1.0-193.0","0","0","18183","","null","","","null","21","","NaN","","","","","","","","","","","","",""
"","response","","html-keyboard-response","140","47006","0.0-1.0-194.0","0","0","18183","","17","","","68","21","","","2","21","training","adjacent","5","6","O.jpg","M.jpg","0","1","0","",""
"","feedback","","html-keyboard-response","141","47112","0.0-1.0-195.0-0.0","0","0","18183","","null","","","null","21","","","","","","","","","","","","","","",""
"","time_out","","html-keyboard-response","142","47215","0.0-1.0-197.0-0.0","0","0","18183","","null","","","null","21","","","","","","","","","","","","","","",""
"","ITI","","html-keyboard-response","143","47720","0.0-1.0-198.0","0","0","18183","","106","","","68","21","","","","","","","","","","","","","","d",""
"","S1","","html-keyboard-response","144","47974","0.0-1.0-200.0","0","0","18183","","null","","","null","22","","","","","","","","","","","","","","",""
"","ISI","","html-keyboard-response","145","48080","0.0-1.0-201.0","0","0","18183","","26","","","75","22","k","","","","","","","","","","","","","",""
"","S2","","html-keyboard-response","146","48334","0.0-1.0-202.0","0","0","18183","","null","","","null","22","","NaN","","","","","","","","","","","","",""
"","response","","html-keyboard-response","147","48567","0.0-1.0-203.0","0","0","18183","","233","","","75","22","","","2","22","training","adjacent","2","1","L.jpg","N.jpg","1","0","0","",""
"","feedback","","html-keyboard-response","148","48669","0.0-1.0-204.0-0.0","0","0","18183","","null","","","null","22","","","","","","","","","","","","","","",""
"","time_out","","html-keyboard-response","149","48775","0.0-1.0-206.0-0.0","0","0","18183","","null","","","null","22","","","","","","","","","","","","","","",""
"","ITI","","html-keyboard-response","150","49280","0.0-1.0-207.0","0","0","18183","","46","","","75","22","","","","","","","","","","","","","","k",""
"","S1","","html-keyboard-response","151","49534","0.0-1.0-209.0","0","0","18183","","null","","","null","23","","","","","","","","","","","","","","",""
"","ISI","","html-keyboard-response","152","49638","0.0-1.0-210.0","0","0","18183","","2","","","75","23","k","","","","","","","","","","","","","",""
"","S2","","html-keyboard-response","153","49891","0.0-1.0-211.0","0","0","18183","","215","","","75","23","","k","","","","","","","","","","","","",""
"","response","","html-keyboard-response","154","50141","0.0-1.0-212.0","0","0","18183","","248","","","75","23","","","2","23","training","adjacent","6","5","M.jpg","O.jpg","1","0","0","",""
"","feedback","","html-keyboard-response","155","50242","0.0-1.0-213.0-0.0","0","0","18183","","null","","","null","23","","","","","","","","","","","","","","",""
"","time_out","","html-keyboard-response","156","50346","0.0-1.0-215.0-0.0","0","0","18183","","null","","","null","23","","","","","","","","","","","","","","",""
"","ITI","","html-keyboard-response","157","50849","0.0-1.0-216.0","0","0","18183","","131","","","75","23","","","","","","","","","","","","","","k",""
"","block_over","","html-keyboard-response","158","51771","0.0-1.0-217.0-0.0","0","0","18183","","921","","","32","23","","","","","","","","","","","","","","",""
"","S1","","html-keyboard-response","159","52028","0.0-1.0-218.0","0","0","18183","","null","","","null","24","","","","","","","","","","","","","","",""
"","ISI","","html-keyboard-response","160","52133","0.0-1.0-219.0","0","0","18183","","null","","","null","24","NaN","","","","","","","","","","","","","",""
"","S2","","html-keyboard-response","161","52386","0.0-1.0-220.0","0","0","18183","","0","","","75","24","","k","","","","","","","","","","","","",""
"","response","","html-keyboard-response","162","52420","0.0-1.0-221.0","0","0","18183","","32","","","75","24","","","3","24","training","adjacent","7","6","P.jpg","M.jpg","1","0","0","",""
"","feedback","","html-keyboard-response","163","52521","0.0-1.0-222.0-0.0","0","0","18183","","null","","","null","24","","","","","","","","","","","","","","",""
"","time_out","","html-keyboard-response","164","52624","0.0-1.0-224.0-0.0","0","0","18183","","null","","","null","24","","","","","","","","","","","","","","",""
"","ITI","","html-keyboard-response","165","53127","0.0-1.0-225.0","0","0","18183","","69","","","75","24","","","","","","","","","","","","","","k",""
"","S1","","html-keyboard-response","166","53384","0.0-1.0-227.0","0","0","18183","","null","","","null","25","","","","","","","","","","","","","","",""
"","ISI","","html-keyboard-response","167","53488","0.0-1.0-228.0","0","0","18183","","null","","","null","25","NaN","","","","","","","","","","","","","",""
"","S2","","html-keyboard-response","168","53741","0.0-1.0-229.0","0","0","18183","","2","","","75","25","","k","","","","","","","","","","","","",""
"","response","","html-keyboard-response","169","53807","0.0-1.0-230.0","0","0","18183","","65","","","75","25","","","3","25","training","adjacent","4","5","Q.jpg","O.jpg","1","1","1","",""
"","feedback","","html-keyboard-response","170","53913","0.0-1.0-231.0-0.0","0","0","18183","","null","","","null","25","","","","","","","","","","","","","","",""
"","ITI","","html-keyboard-response","171","54415","0.0-1.0-234.0","0","0","18183","","261","","","75","25","","","","","","","","","","","","","","k",""
"","S1","","html-keyboard-response","172","54670","0.0-1.0-236.0","0","0","18183","","null","","","null","26","","","","","","","","","","","","","","",""
"","ISI","","html-keyboard-response","173","54774","0.0-1.0-237.0","0","0","18183","","null","","","null","26","NaN","","","","","","","","","","","","","",""
"","S2","","html-keyboard-response","174","55027","0.0-1.0-238.0","0","0","18183","","58","","","75","26","","k","","","","","","","","","","","","",""
"","response","","html-keyboard-response","175","55112","0.0-1.0-239.0","0","0","18183","","84","","","75","26","","","3","26","training","adjacent","5","6","O.jpg","M.jpg","1","1","1","",""
"","feedback","","html-keyboard-response","176","55218","0.0-1.0-240.0-0.0","0","0","18183","","null","","","null","26","","","","","","","","","","","","","","",""
"","ITI","","html-keyboard-response","177","55722","0.0-1.0-243.0","0","0","18183","","281","","","75","26","","","","","","","","","","","","","","k",""
"","S1","","html-keyboard-response","178","55975","0.0-1.0-245.0","0","0","18183","","null","","","null","27","","","","","","","","","","","","","","",""
"","ISI","","html-keyboard-response","179","56077","0.0-1.0-246.0","0","0","18183","","null","","","null","27","NaN","","","","","","","","","","","","","",""
"","S2","","html-keyboard-response","180","56334","0.0-1.0-247.0","0","0","18183","","70","","","75","27","","k","","","","","","","","","","","","",""
"","response","","html-keyboard-response","181","56394","0.0-1.0-248.0","0","0","18183","","58","","","68","27","","","3","27","training","adjacent","4","3","Q.jpg","R.jpg","0","0","1","",""
"","feedback","","html-keyboard-response","182","56496","0.0-1.0-249.0-0.0","0","0","18183","","null","","","null","27","","","","","","","","","","","","","","",""
"","ITI","","html-keyboard-response","183","57001","0.0-1.0-252.0","0","0","18183","","193","","","68","27","","","","","","","","","","","","","","d",""
"","S1","","html-keyboard-response","184","57255","0.0-1.0-254.0","0","0","18183","","null","","","null","28","","","","","","","","","","","","","","",""
"","ISI","","html-keyboard-response","185","57359","0.0-1.0-255.0","0","0","18183","","84","","","68","28","d","","","","","","","","","","","","","",""
"","S2","","html-keyboard-response","186","57616","0.0-1.0-256.0","0","0","18183","","null","","","null","28","","NaN","","","","","","","","","","","","",""
"","response","","html-keyboard-response","187","57625","0.0-1.0-257.0","0","0","18183","","9","","","68","28","","","3","28","training","adjacent","6","7","M.jpg","P.jpg","0","1","0","",""
"","feedback","","html-keyboard-response","188","57728","0.0-1.0-258.0-0.0","0","0","18183","","null","","","null","28","","","","","","","","","","","","","","",""
"","time_out","","html-keyboard-response","189","57834","0.0-1.0-260.0-0.0","0","0","18183","","null","","","null","28","","","","","","","","","","","","","","",""
"","ITI","","html-keyboard-response","190","58338","0.0-1.0-261.0","0","0","18183","","133","","","68","28","","","","","","","","","","","","","","d",""
"","S1","","html-keyboard-response","191","58593","0.0-1.0-263.0","0","0","18183","","null","","","null","29","","","","","","","","","","","","","","",""
"","ISI","","html-keyboard-response","192","58695","0.0-1.0-264.0","0","0","18183","","null","","","null","29","NaN","","","","","","","","","","","","","",""
"","S2","","html-keyboard-response","193","58948","0.0-1.0-265.0","0","0","18183","","76","","","68","29","","d","","","","","","","","","","","","",""
"","response","","html-keyboard-response","194","59455","0.0-1.0-266.0","0","0","18183","","null","","","null","29","","","3","29","training","adjacent","3","2","R.jpg","L.jpg","NaN","0","0","",""
"","too_slow_prompt","","html-keyboard-response","195","60457","0.0-1.0-268.0-0.0","1","0","18183","","null","","","null","","","","","","","","","","","","","","","",""
"","time_out","","html-keyboard-response","196","60564","0.0-1.0-269.0-0.0","0","0","18183","","null","","","null","29","","","","","","","","","","","","","","",""
"","ITI","","html-keyboard-response","197","61071","0.0-1.0-270.0","0","0","18183","","null","","","null","29","","","","","","","","","","","","","","NaN",""
"","S1","","html-keyboard-response","198","61325","0.0-1.0-272.0","0","0","18183","","null","","","null","30","","","","","","","","","","","","","","",""
"","ISI","","html-keyboard-response","199","61427","0.0-1.0-273.0","0","0","18183","","null","","","null","30","NaN","","","","","","","","","","","","","",""
"","S2","","html-keyboard-response","200","61683","0.0-1.0-274.0","0","0","18183","","null","","","null","30","","NaN","","","","","","","","","","","","",""
"","response","","html-keyboard-response","201","62042","0.0-1.0-275.0","0","0","18183","","359","","","68","30","","","3","30","training","adjacent","3","4","R.jpg","Q.jpg","0","1","0","",""
"","feedback","","html-keyboard-response","202","62147","0.0-1.0-276.0-0.0","0","0","18183","","null","","","null","30","","","","","","","","","","","","","","",""
"","time_out","","html-keyboard-response","203","62249","0.0-1.0-278.0-0.0","0","0","18183","","null","","","null","30","","","","","","","","","","","","","","",""
"","ITI","","html-keyboard-response","204","62750","0.0-1.0-279.0","0","0","18183","","null","","","null","30","","","","","","","","","","","","","","NaN",""
"","S1","","html-keyboard-response","205","63006","0.0-1.0-281.0","0","0","18183","","null","","","null","31","","","","","","","","","","","","","","",""
"","ISI","","html-keyboard-response","206","63109","0.0-1.0-282.0","0","0","18183","","5","","","68","31","d","","","","","","","","","","","","","",""
"","S2","","html-keyboard-response","207","63361","0.0-1.0-283.0","0","0","18183","","null","","","null","31","","NaN","","","","","","","","","","","","",""
"","response","","html-keyboard-response","208","63463","0.0-1.0-284.0","0","0","18183","","101","","","68","31","","","3","31","training","adjacent","6","5","M.jpg","O.jpg","0","0","1","",""
"","feedback","","html-keyboard-response","209","63566","0.0-1.0-285.0-0.0","0","0","18183","","null","","","null","31","","","","","","","","","","","","","","",""
"","ITI","","html-keyboard-response","210","64072","0.0-1.0-288.0","0","0","18183","","null","","","null","31","","","","","","","","","","","","","","NaN",""
"","S1","","html-keyboard-response","211","64326","0.0-1.0-290.0","0","0","18183","","null","","","null","32","","","","","","","","","","","","","","",""
"","ISI","","html-keyboard-response","212","64429","0.0-1.0-291.0","0","0","18183","","null","","","null","32","NaN","","","","","","","","","","","","","",""
"","S2","","html-keyboard-response","213","64684","0.0-1.0-292.0","0","0","18183","","11","","","68","32","","d","","","","","","","","","","","","",""
"","response","","html-keyboard-response","214","64697","0.0-1.0-293.0","0","0","18183","","12","","","68","32","","","3","32","training","adjacent","2","3","L.jpg","R.jpg","0","1","0","",""
"","feedback","","html-keyboard-response","215","64802","0.0-1.0-294.0-0.0","0","0","18183","","null","","","null","32","","","","","","","","","","","","","","",""
"","time_out","","html-keyboard-response","216","64904","0.0-1.0-296.0-0.0","0","0","18183","","null","","","null","32","","","","","","","","","","","","","","",""
"","ITI","","html-keyboard-response","217","65407","0.0-1.0-297.0","0","0","18183","","152","","","68","32","","","","","","","","","","","","","","d",""
"","S1","","html-keyboard-response","218","65662","0.0-1.0-299.0","0","0","18183","","null","","","null","33","","","","","","","","","","","","","","",""
"","ISI","","html-keyboard-response","219","65765","0.0-1.0-300.0","0","0","18183","","null","","","null","33","NaN","","","","","","","","","","","","","",""
"","S2","","html-keyboard-response","220","66022","0.0-1.0-301.0","0","0","18183","","3","","","68","33","","d","","","","","","","","","","","","",""
"","response","","html-keyboard-response","221","66150","0.0-1.0-302.0","0","0","18183","","126","","","68","33","","","3","33","training","adjacent","2","1","L.jpg","N.jpg","0","0","1","",""
"","feedback","","html-keyboard-response","222","66253","0.0-1.0-303.0-0.0","0","0","18183","","null","","","null","33","","","","","","","","","","","","","","",""
"","ITI","","html-keyboard-response","223","66758","0.0-1.0-306.0","0","0","18183","","343","","","68","33","","","","","","","","","","","","","","d",""
"","S1","","html-keyboard-response","224","67013","0.0-1.0-308.0","0","0","18183","","null","","","null","34","","","","","","","","","","","","","","",""
"","ISI","","html-keyboard-response","225","67115","0.0-1.0-309.0","0","0","18183","","74","","","68","34","d","","","","","","","","","","","","","",""
"","S2","","html-keyboard-response","226","67368","0.0-1.0-310.0","0","0","18183","","null","","","null","34","","NaN","","","","","","","","","","","","",""
"","response","","html-keyboard-response","227","67394","0.0-1.0-311.0","0","0","18183","","24","","","68","34","","","3","34","training","adjacent","1","2","N.jpg","L.jpg","0","1","0","",""
"","feedback","","html-keyboard-response","228","67500","0.0-1.0-312.0-0.0","0","0","18183","","null","","","null","34","","","","","","","","","","","","","","",""
"","time_out","","html-keyboard-response","229","67603","0.0-1.0-314.0-0.0","0","0","18183","","null","","","null","34","","","","","","","","","","","","","","",""
"","ITI","","html-keyboard-response","230","68107","0.0-1.0-315.0","0","0","18183","","53","","","68","34","","","","","","","","","","","","","","d",""
"","S1","","html-keyboard-response","231","68360","0.0-1.0-317.0","0","0","18183","","null","","","null","35","","","","","","","","","","","","","","",""
"","ISI","","html-keyboard-response","232","68465","0.0-1.0-318.0","0","0","18183","","null","","","null","35","NaN","","","","","","","","","","","","","",""
"","S2","","html-keyboard-response","233","68718","0.0-1.0-319.0","0","0","18183","","48","","","75","35","","k","","","","","","","","","","","","",""
"","response","","html-keyboard-response","234","68895","0.0-1.0-320.0","0","0","18183","","176","","","75","35","","","3","35","training","adjacent","5","4","O.jpg","Q.jpg","1","0","0","",""
"","feedback","","html-keyboard-response","235","68999","0.0-1.0-321.0-0.0","0","0","18183","","null","","","null","35","","","","","","","","","","","","","","",""
"","time_out","","html-keyboard-response","236","69101","0.0-1.0-323.0-0.0","0","0","18183","","null","","","null","35","","","","","","","","","","","","","","",""
"","ITI","","html-keyboard-response","237","69608","0.0-1.0-324.0","0","0","18183","","75","","","75","35","","","","","","","","","","","","","","k",""
"","block_over","","html-keyboard-response","238","70921","0.0-1.0-325.0-0.0","0","0","18183","","1311","","","32","35","","","","","","","","","","","","","","",""
"","S1","","html-keyboard-response","239","71175","0.0-1.0-326.0","0","0","18183","","null","","","null","36","","","","","","","","","","","","","","",""
"","ISI","","html-keyboard-response","240","71282","0.0-1.0-327.0","0","0","18183","","null","","","null","36","NaN","","","","","","","","","","","","","",""
"","S2","","html-keyboard-response","241","71538","0.0-1.0-328.0","0","0","18183","","null","","","null","36","","NaN","","","","","","","","","","","","",""
"","response","","html-keyboard-response","242","72043","0.0-1.0-329.0","0","0","18183","","null","","","null","36","","","4","36","test","non_adjacent","5","3","O.jpg","R.jpg","NaN","0","0","",""
"","too_slow_prompt","","html-keyboard-response","243","73050","0.0-1.0-331.0-0.0","1","0","18183","","null","","","null","","","","","","","","","","","","","","","",""
"","time_out","","html-keyboard-response","244","73154","0.0-1.0-332.0-0.0","0","0","18183","","null","","","null","36","","","","","","","","","","","","","","",""
"","ITI","","html-keyboard-response","245","73660","0.0-1.0-333.0","0","0","18183","","155","","","78","36","","","","","","","","","","","","","","n",""
"","S1","","html-keyboard-response","246","73917","0.0-1.0-335.0","0","0","18183","","null","","","null","37","","","","","","","","","","","","","","",""
"","ISI","","html-keyboard-response","247","74022","0.0-1.0-336.0","0","0","18183","","87","","","78","37","n","","","","","","","","","","","","","",""
"","S2","","html-keyboard-response","248","74277","0.0-1.0-337.0","0","0","18183","","187","","","78","37","","n","","","","","","","","","","","","",""
"","response","","html-keyboard-response","249","74783","0.0-1.0-338.0","0","0","18183","","null","","","null","37","","","4","37","test","non_adjacent","3","1","R.jpg","N.jpg","NaN","0","0","",""
"","too_slow_prompt","","html-keyboard-response","250","75788","0.0-1.0-340.0-0.0","1","0","18183","","null","","","null","","","","","","","","","","","","","","","",""
"","time_out","","html-keyboard-response","251","75894","0.0-1.0-341.0-0.0","0","0","18183","","null","","","null","37","","","","","","","","","","","","","","",""
"","ITI","","html-keyboard-response","252","76400","0.0-1.0-342.0","0","0","18183","","14","","","75","37","","","","","","","","","","","","","","k",""
"","S1","","html-keyboard-response","253","76652","0.0-1.0-344.0","0","0","18183","","null","","","null","38","","","","","","","","","","","","","","",""
"","ISI","","html-keyboard-response","254","76758","0.0-1.0-345.0","0","0","18183","","null","","","null","38","NaN","","","","","","","","","","","","","",""
"","S2","","html-keyboard-response","255","77011","0.0-1.0-346.0","0","0","18183","","39","","","75","38","","k","","","","","","","","","","","","",""
"","response","","html-keyboard-response","256","77054","0.0-1.0-347.0","0","0","18183","","41","","","75","38","","","4","38","test","non_adjacent","1","3","N.jpg","R.jpg","1","1","1","",""
"","feedback","","html-keyboard-response","257","77158","0.0-1.0-348.0-0.0","0","0","18183","","null","","","null","38","","","","","","","","","","","","","","",""
"","ITI","","html-keyboard-response","258","77665","0.0-1.0-351.0","0","0","18183","","190","","","75","38","","","","","","","","","","","","","","k",""
"","S1","","html-keyboard-response","259","77921","0.0-1.0-353.0","0","0","18183","","null","","","null","39","","","","","","","","","","","","","","",""
"","ISI","","html-keyboard-response","260","78025","0.0-1.0-354.0","0","0","18183","","null","","","null","39","NaN","","","","","","","","","","","","","",""
"","S2","","html-keyboard-response","261","78277","0.0-1.0-355.0","0","0","18183","","71","","","75","39","","k","","","","","","","","","","","","",""
"","response","","html-keyboard-response","262","78363","0.0-1.0-356.0","0","0","18183","","84","","","75","39","","","4","39","test","adjacent","4","3","Q.jpg","R.jpg","1","0","0","",""
"","feedback","","html-keyboard-response","263","78465","0.0-1.0-357.0-0.0","0","0","18183","","null","","","null","39","","","","","","","","","","","","","","",""
"","time_out","","html-keyboard-response","264","78567","0.0-1.0-359.0-0.0","0","0","18183","","null","","","null","39","","","","","","","","","","","","","","",""
"","ITI","","html-keyboard-response","265","79072","0.0-1.0-360.0","0","0","18183","","239","","","75","39","","","","","","","","","","","","","","k",""
"","S1","","html-keyboard-response","266","79324","0.0-1.0-362.0","0","0","18183","","null","","","null","40","","","","","","","","","","","","","","",""
"","ISI","","html-keyboard-response","267","79427","0.0-1.0-363.0","0","0","18183","","null","","","null","40","NaN","","","","","","","","","","","","","",""
"","S2","","html-keyboard-response","268","79684","0.0-1.0-364.0","0","0","18183","","82","","","75","40","","k","","","","","","","","","","","","",""
"","response","","html-keyboard-response","269","79758","0.0-1.0-365.0","0","0","18183","","74","","","75","40","","","4","40","test","non_adjacent","7","1","P.jpg","N.jpg","1","0","0","",""
"","feedback","","html-keyboard-response","270","79862","0.0-1.0-366.0-0.0","0","0","18183","","null","","","null","40","","","","","","","","","","","","","","",""
"","time_out","","html-keyboard-response","271","79967","0.0-1.0-368.0-0.0","0","0","18183","","null","","","null","40","","","","","","","","","","","","","","",""
"","ITI","","html-keyboard-response","272","80472","0.0-1.0-369.0","0","0","18183","","178","","","75","40","","","","","","","","","","","","","","k",""
"","S1","","html-keyboard-response","273","80730","0.0-1.0-371.0","0","0","18183","","null","","","null","41","","","","","","","","","","","","","","",""
"","ISI","","html-keyboard-response","274","80834","0.0-1.0-372.0","0","0","18183","","null","","","null","41","NaN","","","","","","","","","","","","","",""
"","S2","","html-keyboard-response","275","81087","0.0-1.0-373.0","0","0","18183","","152","","","32","41","","space","","","","","","","","","","","","",""
"","response","","html-keyboard-response","276","81591","0.0-1.0-374.0","0","0","18183","","null","","","null","41","","","4","41","test","non_adjacent","4","2","Q.jpg","L.jpg","NaN","0","0","",""
"","too_slow_prompt","","html-keyboard-response","277","82594","0.0-1.0-376.0-0.0","1","0","18183","","null","","","null","","","","","","","","","","","","","","","",""
"","time_out","","html-keyboard-response","278","82700","0.0-1.0-377.0-0.0","0","0","18183","","null","","","null","41","","","","","","","","","","","","","","",""
"","ITI","","html-keyboard-response","279","83207","0.0-1.0-378.0","0","0","18183","","243","","","32","41","","","","","","","","","","","","","","space",""
"","S1","","html-keyboard-response","280","83459","0.0-1.0-380.0","0","0","18183","","null","","","null","42","","","","","","","","","","","","","","",""
"","ISI","","html-keyboard-response","281","83565","0.0-1.0-381.0","0","0","18183","","null","","","null","42","NaN","","","","","","","","","","","","","",""
"","S2","","html-keyboard-response","282","83817","0.0-1.0-382.0","0","0","18183","","127","","","32","42","","space","","","","","","","","","","","","",""
"","response","","html-keyboard-response","283","84322","0.0-1.0-383.0","0","0","18183","","null","","","null","42","","","4","42","test","non_adjacent","4","1","Q.jpg","N.jpg","NaN","0","0","",""
"","too_slow_prompt","","html-keyboard-response","284","85325","0.0-1.0-385.0-0.0","1","0","18183","","null","","","null","","","","","","","","","","","","","","","",""
"","time_out","","html-keyboard-response","285","85430","0.0-1.0-386.0-0.0","0","0","18183","","null","","","null","42","","","","","","","","","","","","","","",""
"","ITI","","html-keyboard-response","286","85933","0.0-1.0-387.0","0","0","18183","","354","","","75","42","","","","","","","","","","","","","","k",""
"","S1","","html-keyboard-response","287","86188","0.0-1.0-389.0","0","0","18183","","null","","","null","43","","","","","","","","","","","","","","",""
"","ISI","","html-keyboard-response","288","86290","0.0-1.0-390.0","0","0","18183","","null","","","null","43","NaN","","","","","","","","","","","","","",""
"","S2","","html-keyboard-response","289","86543","0.0-1.0-391.0","0","0","18183","","182","","","75","43","","k","","","","","","","","","","","","",""
"","response","","html-keyboard-response","290","86801","0.0-1.0-392.0","0","0","18183","","256","","","75","43","","","4","43","test","non_adjacent","7","2","P.jpg","L.jpg","1","0","0","",""
"","feedback","","html-keyboard-response","291","86903","0.0-1.0-393.0-0.0","0","0","18183","","null","","","null","43","","","","","","","","","","","","","","",""
"","time_out","","html-keyboard-response","292","87007","0.0-1.0-395.0-0.0","0","0","18183","","null","","","null","43","","","","","","","","","","","","","","",""
"","ITI","","html-keyboard-response","293","87513","0.0-1.0-396.0","0","0","18183","","71","","","75","43","","","","","","","","","","","","","","k",""
"","S1","","html-keyboard-response","294","87766","0.0-1.0-398.0","0","0","18183","","null","","","null","44","","","","","","","","","","","","","","",""
"","ISI","","html-keyboard-response","295","87870","0.0-1.0-399.0","0","0","18183","","32","","","75","44","k","","","","","","","","","","","","","",""
"","S2","","html-keyboard-response","296","88122","0.0-1.0-400.0","0","0","18183","","241","","","75","44","","k","","","","","","","","","","","","",""
"","response","","html-keyboard-response","297","88557","0.0-1.0-401.0","0","0","18183","","433","","","75","44","","","4","44","test","adjacent","2","3","L.jpg","R.jpg","1","1","1","",""
"","feedback","","html-keyboard-response","298","88661","0.0-1.0-402.0-0.0","0","0","18183","","null","","","null","44","","","","","","","","","","","","","","",""
"","ITI","","html-keyboard-response","299","89163","0.0-1.0-405.0","0","0","18183","","280","","","75","44","","","","","","","","","","","","","","k",""
"","S1","","html-keyboard-response","300","89420","0.0-1.0-407.0","0","0","18183","","null","","","null","45","","","","","","","","","","","","","","",""
"","ISI","","html-keyboard-response","301","89527","0.0-1.0-408.0","0","0","18183","","null","","","null","45","NaN","","","","","","","","","","","","","",""
"","S2","","html-keyboard-response","302","89784","0.0-1.0-409.0","0","0","18183","","173","","","75","45","","k","","","","","","","","","","","","",""
"","response","","html-keyboard-response","303","90288","0.0-1.0-410.0","0","0","18183","","null","","","null","45","","","4","45","test","non_adjacent","5","1","O.jpg","N.jpg","NaN","0","0","",""
"","too_slow_prompt","","html-keyboard-response","304","91294","0.0-1.0-412.0-0.0","1","0","18183","","null","","","null","","","","","","","","","","","","","","","",""
"","time_out","","html-keyboard-response","305","91397","0.0-1.0-413.0-0.0","0","0","18183","","null","","","null","45","","","","","","","","","","","","","","",""
"","ITI","","html-keyboard-response","306","91904","0.0-1.0-414.0","0","0","18183","","118","","","68","45","","","","","","","","","","","","","","d",""
"","S1","","html-keyboard-response","307","92160","0.0-1.0-416.0","0","0","18183","","null","","","null","46","","","","","","","","","","","","","","",""
"","ISI","","html-keyboard-response","308","92265","0.0-1.0-417.0","0","0","18183","","null","","","null","46","NaN","","","","","","","","","","","","","",""
"","S2","","html-keyboard-response","309","92519","0.0-1.0-418.0","0","0","18183","","31","","","68","46","","d","","","","","","","","","","","","",""
"","response","","html-keyboard-response","310","92707","0.0-1.0-419.0","0","0","18183","","187","","","68","46","","","4","46","test","non_adjacent","2","4","L.jpg","Q.jpg","0","1","0","",""
"","feedback","","html-keyboard-response","311","92810","0.0-1.0-420.0-0.0","0","0","18183","","null","","","null","46","","","","","","","","","","","","","","",""
"","time_out","","html-keyboard-response","312","92912","0.0-1.0-422.0-0.0","0","0","18183","","null","","","null","46","","","","","","","","","","","","","","",""
"","ITI","","html-keyboard-response","313","93414","0.0-1.0-423.0","0","0","18183","","219","","","68","46","","","","","","","","","","","","","","d",""
"","S1","","html-keyboard-response","314","93669","0.0-1.0-425.0","0","0","18183","","null","","","null","47","","","","","","","","","","","","","","",""
"","ISI","","html-keyboard-response","315","93775","0.0-1.0-426.0","0","0","18183","","null","","","null","47","NaN","","","","","","","","","","","","","",""
"","S2","","html-keyboard-response","316","94028","0.0-1.0-427.0","0","0","18183","","168","","","68","47","","d","","","","","","","","","","","","",""
"","response","","html-keyboard-response","317","94334","0.0-1.0-428.0","0","0","18183","","305","","","68","47","","","4","47","test","non_adjacent","1","4","N.jpg","Q.jpg","0","1","0","",""
"","feedback","","html-keyboard-response","318","94438","0.0-1.0-429.0-0.0","0","0","18183","","null","","","null","47","","","","","","","","","","","","","","",""
"","time_out","","html-keyboard-response","319","94539","0.0-1.0-431.0-0.0","0","0","18183","","null","","","null","47","","","","","","","","","","","","","","",""
"","ITI","","html-keyboard-response","320","95044","0.0-1.0-432.0","0","0","18183","","205","","","75","47","","","","","","","","","","","","","","k",""
"","S1","","html-keyboard-response","321","95300","0.0-1.0-434.0","0","0","18183","","null","","","null","48","","","","","","","","","","","","","","",""
"","ISI","","html-keyboard-response","322","95402","0.0-1.0-435.0","0","0","18183","","null","","","null","48","NaN","","","","","","","","","","","","","",""
"","S2","","html-keyboard-response","323","95654","0.0-1.0-436.0","0","0","18183","","195","","","75","48","","k","","","","","","","","","","","","",""
"","response","","html-keyboard-response","324","95944","0.0-1.0-437.0","0","0","18183","","288","","","75","48","","","4","48","test","non_adjacent","7","3","P.jpg","R.jpg","1","0","0","",""
"","feedback","","html-keyboard-response","325","96046","0.0-1.0-438.0-0.0","0","0","18183","","null","","","null","48","","","","","","","","","","","","","","",""
"","time_out","","html-keyboard-response","326","96147","0.0-1.0-440.0-0.0","0","0","18183","","null","","","null","48","","","","","","","","","","","","","","",""
"","ITI","","html-keyboard-response","327","96650","0.0-1.0-441.0","0","0","18183","","358","","","75","48","","","","","","","","","","","","","","k",""
"","S1","","html-keyboard-response","328","96905","0.0-1.0-443.0","0","0","18183","","null","","","null","49","","","","","","","","","","","","","","",""
"","ISI","","html-keyboard-response","329","97010","0.0-1.0-444.0","0","0","18183","","null","","","null","49","NaN","","","","","","","","","","","","","",""
"","S2","","html-keyboard-response","330","97267","0.0-1.0-445.0","0","0","18183","","217","","","75","49","","k","","","","","","","","","","","","",""
"","response","","html-keyboard-response","331","97579","0.0-1.0-446.0","0","0","18183","","311","","","75","49","","","4","49","test","adjacent","1","2","N.jpg","L.jpg","1","1","1","",""
"","feedback","","html-keyboard-response","332","97684","0.0-1.0-447.0-0.0","0","0","18183","","null","","","null","49","","","","","","","","","","","","","","",""
"","ITI","","html-keyboard-response","333","98186","0.0-1.0-450.0","0","0","18183","","null","","","null","49","","","","","","","","","","","","","","NaN",""
"","S1","","html-keyboard-response","334","98443","0.0-1.0-452.0","0","0","18183","","null","","","null","50","","","","","","","","","","","","","","",""
"","ISI","","html-keyboard-response","335","98549","0.0-1.0-453.0","0","0","18183","","79","","","75","50","k","","","","","","","","","","","","","",""
"","S2","","html-keyboard-response","336","98801","0.0-1.0-454.0","0","0","18183","","null","","","null","50","","NaN","","","","","","","","","","","","",""
"","response","","html-keyboard-response","337","98880","0.0-1.0-455.0","0","0","18183","","77","","","75","50","","","4","50","test","adjacent","3","4","R.jpg","Q.jpg","1","1","1","",""
"","feedback","","html-keyboard-response","338","98983","0.0-1.0-456.0-0.0","0","0","18183","","null","","","null","50","","","","","","","","","","","","","","",""
"","ITI","","html-keyboard-response","339","99490","0.0-1.0-459.0","0","0","18183","","471","","","75","50","","","","","","","","","","","","","","k",""
"","S1","","html-keyboard-response","340","99745","0.0-1.0-461.0","0","0","18183","","null","","","null","51","","","","","","","","","","","","","","",""
"","ISI","","html-keyboard-response","341","99848","0.0-1.0-462.0","0","0","18183","","23","","","75","51","k","","","","","","","","","","","","","",""
"","S2","","html-keyboard-response","342","100103","0.0-1.0-463.0","0","0","18183","","null","","","null","51","","NaN","","","","","","","","","","","","",""
"","response","","html-keyboard-response","343","100138","0.0-1.0-464.0","0","0","18183","","33","","","75","51","","","4","51","test","non_adjacent","5","2","O.jpg","L.jpg","1","0","0","",""
"","feedback","","html-keyboard-response","344","100243","0.0-1.0-465.0-0.0","0","0","18183","","null","","","null","51","","","","","","","","","","","","","","",""
"","time_out","","html-keyboard-response","345","100349","0.0-1.0-467.0-0.0","0","0","18183","","null","","","null","51","","","","","","","","","","","","","","",""
"","ITI","","html-keyboard-response","346","100853","0.0-1.0-468.0","0","0","18183","","362","","","68","51","","","","","","","","","","","","","","d",""
"","S1","","html-keyboard-response","347","101109","0.0-1.0-470.0","0","0","18183","","null","","","null","52","","","","","","","","","","","","","","",""
"","ISI","","html-keyboard-response","348","101213","0.0-1.0-471.0","0","0","18183","","57","","","68","52","d","","","","","","","","","","","","","",""
"","S2","","html-keyboard-response","349","101467","0.0-1.0-472.0","0","0","18183","","null","","","null","52","","NaN","","","","","","","","","","","","",""
"","response","","html-keyboard-response","350","101485","0.0-1.0-473.0","0","0","18183","","16","","","68","52","","","4","52","test","adjacent","3","2","R.jpg","L.jpg","0","0","1","",""
"","feedback","","html-keyboard-response","351","101588","0.0-1.0-474.0-0.0","0","0","18183","","null","","","null","52","","","","","","","","","","","","","","",""
"","ITI","","html-keyboard-response","352","102090","0.0-1.0-477.0","0","0","18183","","455","","","68","52","","","","","","","","","","","","","","d",""
"","S1","","html-keyboard-response","353","102345","0.0-1.0-479.0","0","0","18183","","null","","","null","53","","","","","","","","","","","","","","",""
"","ISI","","html-keyboard-response","354","102451","0.0-1.0-480.0","0","0","18183","","81","","","68","53","d","","","","","","","","","","","","","",""
"","S2","","html-keyboard-response","355","102704","0.0-1.0-481.0","0","0","18183","","null","","","null","53","","NaN","","","","","","","","","","","","",""
"","response","","html-keyboard-response","356","102879","0.0-1.0-482.0","0","0","18183","","173","","","68","53","","","4","53","test","adjacent","2","1","L.jpg","N.jpg","0","0","1","",""
"","feedback","","html-keyboard-response","357","102984","0.0-1.0-483.0-0.0","0","0","18183","","null","","","null","53","","","","","","","","","","","","","","",""
"","ITI","","html-keyboard-response","358","103490","0.0-1.0-486.0","0","0","18183","","325","","","68","53","","","","","","","","","","","","","","d",""
"","S1","","html-keyboard-response","359","103742","0.0-1.0-488.0","0","0","18183","","null","","","null","54","","","","","","","","","","","","","","",""
"","ISI","","html-keyboard-response","360","103849","0.0-1.0-489.0","0","0","18183","","null","","","null","54","NaN","","","","","","","","","","","","","",""
"","S2","","html-keyboard-response","361","104106","0.0-1.0-490.0","0","0","18183","","192","","","68","54","","d","","","","","","","","","","","","",""
"","response","","html-keyboard-response","362","104440","0.0-1.0-491.0","0","0","18183","","333","","","68","54","","","4","54","test","non_adjacent","6","3","M.jpg","R.jpg","0","0","1","",""
"","feedback","","html-keyboard-response","363","104542","0.0-1.0-492.0-0.0","0","0","18183","","null","","","null","54","","","","","","","","","","","","","","",""
"","ITI","","html-keyboard-response","364","105045","0.0-1.0-495.0","0","0","18183","","275","","","68","54","","","","","","","","","","","","","","d",""
"","S1","","html-keyboard-response","365","105300","0.0-1.0-497.0","0","0","18183","","null","","","null","55","","","","","","","","","","","","","","",""
"","ISI","","html-keyboard-response","366","105405","0.0-1.0-498.0","0","0","18183","","null","","","null","55","NaN","","","","","","","","","","","","","",""
"","S2","","html-keyboard-response","367","105658","0.0-1.0-499.0","0","0","18183","","191","","","68","55","","d","","","","","","","","","","","","",""
"","response","","html-keyboard-response","368","105981","0.0-1.0-500.0","0","0","18183","","321","","","68","55","","","4","55","test","non_adjacent","6","2","M.jpg","L.jpg","0","0","1","",""
"","feedback","","html-keyboard-response","369","106085","0.0-1.0-501.0-0.0","0","0","18183","","null","","","null","55","","","","","","","","","","","","","","",""
"","ITI","","html-keyboard-response","370","106587","0.0-1.0-504.0","0","0","18183","","316","","","68","55","","","","","","","","","","","","","","d",""
"","S1","","html-keyboard-response","371","106839","0.0-1.0-506.0","0","0","18183","","null","","","null","56","","","","","","","","","","","","","","",""
"","ISI","","html-keyboard-response","372","106944","0.0-1.0-507.0","0","0","18183","","null","","","null","56","NaN","","","","","","","","","","","","","",""
"","S2","","html-keyboard-response","373","107200","0.0-1.0-508.0","0","0","18183","","113","","","68","56","","d","","","","","","","","","","","","",""
"","response","","html-keyboard-response","374","107405","0.0-1.0-509.0","0","0","18183","","203","","","68","56","","","4","56","test","non_adjacent","6","1","M.jpg","N.jpg","0","0","1","",""
"","feedback","","html-keyboard-response","375","107511","0.0-1.0-510.0-0.0","0","0","18183","","null","","","null","56","","","","","","","","","","","","","","",""
"","ITI","","html-keyboard-response","376","108014","0.0-1.0-513.0","0","0","18183","","263","","","68","56","","","","","","","","","","","","","","d",""
"","block_over","","html-keyboard-response","377","109392","0.0-1.0-514.0-0.0","0","0","18183","","1376","","","32","56","","","","","","","","","","","","","","",""
"","S1","","html-keyboard-response","378","109646","0.0-1.0-515.0","0","0","18183","","null","","","null","57","","","","","","","","","","","","","","",""
"","ISI","","html-keyboard-response","379","109748","0.0-1.0-516.0","0","0","18183","","null","","","null","57","NaN","","","","","","","","","","","","","",""
"","S2","","html-keyboard-response","380","110000","0.0-1.0-517.0","0","0","18183","","39","","","75","57","","k","","","","","","","","","","","","",""
"","response","","html-keyboard-response","381","110057","0.0-1.0-518.0","0","0","18183","","56","","","75","57","","","5","57","test","non_adjacent","6","4","M.jpg","Q.jpg","1","0","0","",""
"","feedback","","html-keyboard-response","382","110162","0.0-1.0-519.0-0.0","0","0","18183","","null","","","null","57","","","","","","","","","","","","","","",""
"","time_out","","html-keyboard-response","383","110267","0.0-1.0-521.0-0.0","0","0","18183","","null","","","null","57","","","","","","","","","","","","","","",""
"","ITI","","html-keyboard-response","384","110771","0.0-1.0-522.0","0","0","18183","","44","","","75","57","","","","","","","","","","","","","","k",""
"","S1","","html-keyboard-response","385","111026","0.0-1.0-524.0","0","0","18183","","null","","","null","58","","","","","","","","","","","","","","",""
"","ISI","","html-keyboard-response","386","111130","0.0-1.0-525.0","0","0","18183","","null","","","null","58","NaN","","","","","","","","","","","","","",""
"","S2","","html-keyboard-response","387","111384","0.0-1.0-526.0","0","0","18183","","97","","","75","58","","k","","","","","","","","","","","","",""
"","response","","html-keyboard-response","388","111486","0.0-1.0-527.0","0","0","18183","","101","","","75","58","","","5","58","test","non_adjacent","3","5","R.jpg","O.jpg","1","1","1","",""
"","feedback","","html-keyboard-response","389","111588","0.0-1.0-528.0-0.0","0","0","18183","","null","","","null","58","","","","","","","","","","","","","","",""
"","ITI","","html-keyboard-response","390","112092","0.0-1.0-531.0","0","0","18183","","312","","","75","58","","","","","","","","","","","","","","k",""
"","S1","","html-keyboard-response","391","112348","0.0-1.0-533.0","0","0","18183","","null","","","null","59","","","","","","","","","","","","","","",""
"","ISI","","html-keyboard-response","392","112452","0.0-1.0-534.0","0","0","18183","","null","","","null","59","NaN","","","","","","","","","","","","","",""
"","S2","","html-keyboard-response","393","112706","0.0-1.0-535.0","0","0","18183","","50","","","75","59","","k","","","","","","","","","","","","",""
"","response","","html-keyboard-response","394","112795","0.0-1.0-536.0","0","0","18183","","87","","","75","59","","","5","59","test","adjacent","5","4","O.jpg","Q.jpg","1","0","0","",""
"","feedback","","html-keyboard-response","395","112896","0.0-1.0-537.0-0.0","0","0","18183","","null","","","null","59","","","","","","","","","","","","","","",""
"","time_out","","html-keyboard-response","396","112998","0.0-1.0-539.0-0.0","0","0","18183","","null","","","null","59","","","","","","","","","","","","","","",""
"","ITI","","html-keyboard-response","397","113503","0.0-1.0-540.0","0","0","18183","","132","","","75","59","","","","","","","","","","","","","","k",""
"","S1","","html-keyboard-response","398","113760","0.0-1.0-542.0","0","0","18183","","null","","","null","60","","","","","","","","","","","","","","",""
"","ISI","","html-keyboard-response","399","113862","0.0-1.0-543.0","0","0","18183","","null","","","null","60","NaN","","","","","","","","","","","","","",""
"","S2","","html-keyboard-response","400","114118","0.0-1.0-544.0","0","0","18183","","129","","","75","60","","k","","","","","","","","","","","","",""
"","response","","html-keyboard-response","401","114250","0.0-1.0-545.0","0","0","18183","","130","","","75","60","","","5","60","test","adjacent","5","6","O.jpg","M.jpg","1","1","1","",""
"","feedback","","html-keyboard-response","402","114353","0.0-1.0-546.0-0.0","0","0","18183","","null","","","null","60","","","","","","","","","","","","","","",""
"","ITI","","html-keyboard-response","403","114858","0.0-1.0-549.0","0","0","18183","","188","","","75","60","","","","","","","","","","","","","","k",""
"","S1","","html-keyboard-response","404","115111","0.0-1.0-551.0","0","0","18183","","null","","","null","61","","","","","","","","","","","","","","",""
"","ISI","","html-keyboard-response","405","115218","0.0-1.0-552.0","0","0","18183","","24","","","75","61","k","","","","","","","","","","","","","",""
"","S2","","html-keyboard-response","406","115475","0.0-1.0-553.0","0","0","18183","","207","","","75","61","","k","","","","","","","","","","","","",""
"","response","","html-keyboard-response","407","115797","0.0-1.0-554.0","0","0","18183","","322","","","75","61","","","5","61","test","non_adjacent","4","7","Q.jpg","P.jpg","1","1","1","",""
"","feedback","","html-keyboard-response","408","115904","0.0-1.0-555.0-0.0","0","0","18183","","null","","","null","61","","","","","","","","","","","","","","",""
"","ITI","","html-keyboard-response","409","116406","0.0-1.0-558.0","0","0","18183","","199","","","75","61","","","","","","","","","","","","","","k",""
"","S1","","html-keyboard-response","410","116660","0.0-1.0-560.0","0","0","18183","","null","","","null","62","","","","","","","","","","","","","","",""
"","ISI","","html-keyboard-response","411","116764","0.0-1.0-561.0","0","0","18183","","59","","","75","62","k","","","","","","","","","","","","","",""
"","S2","","html-keyboard-response","412","117018","0.0-1.0-562.0","0","0","18183","","223","","","75","62","","k","","","","","","","","","","","","",""
"","response","","html-keyboard-response","413","117335","0.0-1.0-563.0","0","0","18183","","317","","","75","62","","","5","62","test","adjacent","7","6","P.jpg","M.jpg","1","0","0","",""
"","feedback","","html-keyboard-response","414","117438","0.0-1.0-564.0-0.0","0","0","18183","","null","","","null","62","","","","","","","","","","","","","","",""
"","time_out","","html-keyboard-response","415","117544","0.0-1.0-566.0-0.0","0","0","18183","","null","","","null","62","","","","","","","","","","","","","","",""
"","ITI","","html-keyboard-response","416","118048","0.0-1.0-567.0","0","0","18183","","64","","","75","62","","","","","","","","","","","","","","k",""
"","S1","","html-keyboard-response","417","118304","0.0-1.0-569.0","0","0","18183","","null","","","null","63","","","","","","","","","","","","","","",""
"","ISI","","html-keyboard-response","418","118411","0.0-1.0-570.0","0","0","18183","","null","","","null","63","NaN","","","","","","","","","","","","","",""
"","S2","","html-keyboard-response","419","118664","0.0-1.0-571.0","0","0","18183","","6","","","75","63","","k","","","","","","","","","","","","",""
"","response","","html-keyboard-response","420","119019","0.0-1.0-572.0","0","0","18183","","353","","","75","63","","","5","63","test","non_adjacent","1","5","N.jpg","O.jpg","1","1","1","",""
"","feedback","","html-keyboard-response","421","119121","0.0-1.0-573.0-0.0","0","0","18183","","null","","","null","63","","","","","","","","","","","","","","",""
"","ITI","","html-keyboard-response","422","119628","0.0-1.0-576.0","0","0","18183","","170","","","75","63","","","","","","","","","","","","","","k",""
"","S1","","html-keyboard-response","423","119881","0.0-1.0-578.0","0","0","18183","","null","","","null","64","","","","","","","","","","","","","","",""
"","ISI","","html-keyboard-response","424","119984","0.0-1.0-579.0","0","0","18183","","null","","","null","64","NaN","","","","","","","","","","","","","",""
"","S2","","html-keyboard-response","425","120237","0.0-1.0-580.0","0","0","18183","","185","","","75","64","","k","","","","","","","","","","","","",""
"","response","","html-keyboard-response","426","120402","0.0-1.0-581.0","0","0","18183","","164","","","75","64","","","5","64","test","non_adjacent","5","7","O.jpg","P.jpg","1","1","1","",""
"","feedback","","html-keyboard-response","427","120504","0.0-1.0-582.0-0.0","0","0","18183","","null","","","null","64","","","","","","","","","","","","","","",""
"","ITI","","html-keyboard-response","428","121008","0.0-1.0-585.0","0","0","18183","","68","","","68","64","","","","","","","","","","","","","","d",""
"","S1","","html-keyboard-response","429","121263","0.0-1.0-587.0","0","0","18183","","null","","","null","65","","","","","","","","","","","","","","",""
"","ISI","","html-keyboard-response","430","121366","0.0-1.0-588.0","0","0","18183","","null","","","null","65","NaN","","","","","","","","","","","","","",""
"","S2","","html-keyboard-response","431","121622","0.0-1.0-589.0","0","0","18183","","180","","","68","65","","d","","","","","","","","","","","","",""
"","response","","html-keyboard-response","432","121837","0.0-1.0-590.0","0","0","18183","","214","","","68","65","","","5","65","test","non_adjacent","3","7","R.jpg","P.jpg","0","1","0","",""
"","feedback","","html-keyboard-response","433","121939","0.0-1.0-591.0-0.0","0","0","18183","","null","","","null","65","","","","","","","","","","","","","","",""
"","time_out","","html-keyboard-response","434","122042","0.0-1.0-593.0-0.0","0","0","18183","","null","","","null","65","","","","","","","","","","","","","","",""
"","ITI","","html-keyboard-response","435","122545","0.0-1.0-594.0","0","0","18183","","53","","","68","65","","","","","","","","","","","","","","d",""
"","S1","","html-keyboard-response","436","122802","0.0-1.0-596.0","0","0","18183","","null","","","null","66","","","","","","","","","","","","","","",""
"","ISI","","html-keyboard-response","437","122907","0.0-1.0-597.0","0","0","18183","","null","","","null","66","NaN","","","","","","","","","","","","","",""
"","S2","","html-keyboard-response","438","123160","0.0-1.0-598.0","0","0","18183","","146","","","68","66","","d","","","","","","","","","","","","",""
"","response","","html-keyboard-response","439","123320","0.0-1.0-599.0","0","0","18183","","159","","","68","66","","","5","66","test","adjacent","4","5","Q.jpg","O.jpg","0","1","0","",""
"","feedback","","html-keyboard-response","440","123424","0.0-1.0-600.0-0.0","0","0","18183","","null","","","null","66","","","","","","","","","","","","","","",""
"","time_out","","html-keyboard-response","441","123529","0.0-1.0-602.0-0.0","0","0","18183","","null","","","null","66","","","","","","","","","","","","","","",""
"","ITI","","html-keyboard-response","442","124034","0.0-1.0-603.0","0","0","18183","","120","","","68","66","","","","","","","","","","","","","","d",""
"","S1","","html-keyboard-response","443","124288","0.0-1.0-605.0","0","0","18183","","null","","","null","67","","","","","","","","","","","","","","",""
"","ISI","","html-keyboard-response","444","124390","0.0-1.0-606.0","0","0","18183","","62","","","75","67","k","","","","","","","","","","","","","",""
"","S2","","html-keyboard-response","445","124647","0.0-1.0-607.0","0","0","18183","","196","","","75","67","","k","","","","","","","","","","","","",""
"","response","","html-keyboard-response","446","124823","0.0-1.0-608.0","0","0","18183","","175","","","75","67","","","5","67","test","non_adjacent","1","6","N.jpg","M.jpg","1","1","1","",""
"","feedback","","html-keyboard-response","447","124925","0.0-1.0-609.0-0.0","0","0","18183","","null","","","null","67","","","","","","","","","","","","","","",""
"","ITI","","html-keyboard-response","448","125432","0.0-1.0-612.0","0","0","18183","","128","","","75","67","","","","","","","","","","","","","","k",""
"","S1","","html-keyboard-response","449","125688","0.0-1.0-614.0","0","0","18183","","null","","","null","68","","","","","","","","","","","","","","",""
"","ISI","","html-keyboard-response","450","125795","0.0-1.0-615.0","0","0","18183","","null","","","null","68","NaN","","","","","","","","","","","","","",""
"","S2","","html-keyboard-response","451","126047","0.0-1.0-616.0","0","0","18183","","48","","","75","68","","k","","","","","","","","","","","","",""
"","response","","html-keyboard-response","452","126094","0.0-1.0-617.0","0","0","18183","","46","","","75","68","","","5","68","test","non_adjacent","4","6","Q.jpg","M.jpg","1","1","1","",""
"","feedback","","html-keyboard-response","453","126200","0.0-1.0-618.0-0.0","0","0","18183","","null","","","null","68","","","","","","","","","","","","","","",""
"","ITI","","html-keyboard-response","454","126707","0.0-1.0-621.0","0","0","18183","","134","","","75","68","","","","","","","","","","","","","","k",""
"","S1","","html-keyboard-response","455","126960","0.0-1.0-623.0","0","0","18183","","null","","","null","69","","","","","","","","","","","","","","",""
"","ISI","","html-keyboard-response","456","127063","0.0-1.0-624.0","0","0","18183","","null","","","null","69","NaN","","","","","","","","","","","","","",""
"","S2","","html-keyboard-response","457","127316","0.0-1.0-625.0","0","0","18183","","77","","","75","69","","k","","","","","","","","","","","","",""
"","response","","html-keyboard-response","458","127610","0.0-1.0-626.0","0","0","18183","","292","","","75","69","","","5","69","test","non_adjacent","2","7","L.jpg","P.jpg","1","1","1","",""
"","feedback","","html-keyboard-response","459","127713","0.0-1.0-627.0-0.0","0","0","18183","","null","","","null","69","","","","","","","","","","","","","","",""
"","ITI","","html-keyboard-response","460","128217","0.0-1.0-630.0","0","0","18183","","133","","","75","69","","","","","","","","","","","","","","k",""
"","S1","","html-keyboard-response","461","128475","0.0-1.0-632.0","0","0","18183","","null","","","null","70","","","","","","","","","","","","","","",""
"","ISI","","html-keyboard-response","462","128579","0.0-1.0-633.0","0","0","18183","","null","","","null","70","NaN","","","","","","","","","","","","","",""
"","S2","","html-keyboard-response","463","128834","0.0-1.0-634.0","0","0","18183","","92","","","68","70","","d","","","","","","","","","","","","",""
"","response","","html-keyboard-response","464","128954","0.0-1.0-635.0","0","0","18183","","118","","","68","70","","","5","70","test","non_adjacent","1","7","N.jpg","P.jpg","0","1","0","",""
"","feedback","","html-keyboard-response","465","129056","0.0-1.0-636.0-0.0","0","0","18183","","null","","","null","70","","","","","","","","","","","","","","",""
"","time_out","","html-keyboard-response","466","129159","0.0-1.0-638.0-0.0","0","0","18183","","null","","","null","70","","","","","","","","","","","","","","",""
"","ITI","","html-keyboard-response","467","129664","0.0-1.0-639.0","0","0","18183","","49","","","68","70","","","","","","","","","","","","","","d",""
"","S1","","html-keyboard-response","468","129919","0.0-1.0-641.0","0","0","18183","","null","","","null","71","","","","","","","","","","","","","","",""
"","ISI","","html-keyboard-response","469","130022","0.0-1.0-642.0","0","0","18183","","null","","","null","71","NaN","","","","","","","","","","","","","",""
"","S2","","html-keyboard-response","470","130276","0.0-1.0-643.0","0","0","18183","","114","","","68","71","","d","","","","","","","","","","","","",""
"","response","","html-keyboard-response","471","130414","0.0-1.0-644.0","0","0","18183","","137","","","68","71","","","5","71","test","adjacent","6","7","M.jpg","P.jpg","0","1","0","",""
"","feedback","","html-keyboard-response","472","130519","0.0-1.0-645.0-0.0","0","0","18183","","null","","","null","71","","","","","","","","","","","","","","",""
"","time_out","","html-keyboard-response","473","130622","0.0-1.0-647.0-0.0","0","0","18183","","null","","","null","71","","","","","","","","","","","","","","",""
"","ITI","","html-keyboard-response","474","131126","0.0-1.0-648.0","0","0","18183","","62","","","68","71","","","","","","","","","","","","","","d",""
"","S1","","html-keyboard-response","475","131380","0.0-1.0-650.0","0","0","18183","","null","","","null","72","","","","","","","","","","","","","","",""
"","ISI","","html-keyboard-response","476","131483","0.0-1.0-651.0","0","0","18183","","0","","","68","72","d","","","","","","","","","","","","","",""
"","S2","","html-keyboard-response","477","131738","0.0-1.0-652.0","0","0","18183","","221","","","68","72","","d","","","","","","","","","","","","",""
"","response","","html-keyboard-response","478","132007","0.0-1.0-653.0","0","0","18183","","269","","","68","72","","","5","72","test","adjacent","6","5","M.jpg","O.jpg","0","0","1","",""
"","feedback","","html-keyboard-response","479","132110","0.0-1.0-654.0-0.0","0","0","18183","","null","","","null","72","","","","","","","","","","","","","","",""
"","ITI","","html-keyboard-response","480","132617","0.0-1.0-657.0","0","0","18183","","172","","","68","72","","","","","","","","","","","","","","d",""
"","S1","","html-keyboard-response","481","132873","0.0-1.0-659.0","0","0","18183","","null","","","null","73","","","","","","","","","","","","","","",""
"","ISI","","html-keyboard-response","482","132976","0.0-1.0-660.0","0","0","18183","","null","","","null","73","NaN","","","","","","","","","","","","","",""
"","S2","","html-keyboard-response","483","133228","0.0-1.0-661.0","0","0","18183","","0","","","68","73","","d","","","","","","","","","","","","",""
"","response","","html-keyboard-response","484","133274","0.0-1.0-662.0","0","0","18183","","45","","","68","73","","","5","73","test","non_adjacent","7","4","P.jpg","Q.jpg","0","0","1","",""
"","feedback","","html-keyboard-response","485","133380","0.0-1.0-663.0-0.0","0","0","18183","","null","","","null","73","","","","","","","","","","","","","","",""
"","ITI","","html-keyboard-response","486","133883","0.0-1.0-666.0","0","0","18183","","186","","","68","73","","","","","","","","","","","","","","d",""
"","S1","","html-keyboard-response","487","134137","0.0-1.0-668.0","0","0","18183","","null","","","null","74","","","","","","","","","","","","","","",""
"","ISI","","html-keyboard-response","488","134240","0.0-1.0-669.0","0","0","18183","","null","","","null","74","NaN","","","","","","","","","","","","","",""
"","S2","","html-keyboard-response","489","134492","0.0-1.0-670.0","0","0","18183","","18","","","68","74","","d","","","","","","","","","","","","",""
"","response","","html-keyboard-response","490","134563","0.0-1.0-671.0","0","0","18183","","69","","","68","74","","","5","74","test","non_adjacent","2","6","L.jpg","M.jpg","0","1","0","",""
"","feedback","","html-keyboard-response","491","134668","0.0-1.0-672.0-0.0","0","0","18183","","null","","","null","74","","","","","","","","","","","","","","",""
"","time_out","","html-keyboard-response","492","134773","0.0-1.0-674.0-0.0","0","0","18183","","null","","","null","74","","","","","","","","","","","","","","",""
"","ITI","","html-keyboard-response","493","135279","0.0-1.0-675.0","0","0","18183","","128","","","68","74","","","","","","","","","","","","","","d",""
"","S1","","html-keyboard-response","494","135534","0.0-1.0-677.0","0","0","18183","","null","","","null","75","","","","","","","","","","","","","","",""
"","ISI","","html-keyboard-response","495","135636","0.0-1.0-678.0","0","0","18183","","96","","","68","75","d","","","","","","","","","","","","","",""
"","S2","","html-keyboard-response","496","135892","0.0-1.0-679.0","0","0","18183","","null","","","null","75","","NaN","","","","","","","","","","","","",""
"","response","","html-keyboard-response","497","135916","0.0-1.0-680.0","0","0","18183","","22","","","68","75","","","5","75","test","non_adjacent","2","5","L.jpg","O.jpg","0","1","0","",""
"","feedback","","html-keyboard-response","498","136022","0.0-1.0-681.0-0.0","0","0","18183","","null","","","null","75","","","","","","","","","","","","","","",""
"","time_out","","html-keyboard-response","499","136129","0.0-1.0-683.0-0.0","0","0","18183","","null","","","null","75","","","","","","","","","","","","","","",""
"","ITI","","html-keyboard-response","500","136636","0.0-1.0-684.0","0","0","18183","","87","","","68","75","","","","","","","","","","","","","","d",""
"","S1","","html-keyboard-response","501","136889","0.0-1.0-686.0","0","0","18183","","null","","","null","76","","","","","","","","","","","","","","",""
"","ISI","","html-keyboard-response","502","136992","0.0-1.0-687.0","0","0","18183","","1","","","68","76","d","","","","","","","","","","","","","",""
"","S2","","html-keyboard-response","503","137247","0.0-1.0-688.0","0","0","18183","","200","","","68","76","","d","","","","","","","","","","","","",""
"","response","","html-keyboard-response","504","137536","0.0-1.0-689.0","0","0","18183","","288","","","68","76","","","5","76","test","non_adjacent","3","6","R.jpg","M.jpg","0","1","0","",""
"","feedback","","html-keyboard-response","505","137638","0.0-1.0-690.0-0.0","0","0","18183","","null","","","null","76","","","","","","","","","","","","","","",""
"","time_out","","html-keyboard-response","506","137743","0.0-1.0-692.0-0.0","0","0","18183","","null","","","null","76","","","","","","","","","","","","","","",""
"","ITI","","html-keyboard-response","507","138246","0.0-1.0-693.0","0","0","18183","","96","","","68","76","","","","","","","","","","","","","","d",""
"","S1","","html-keyboard-response","508","138499","0.0-1.0-695.0","0","0","18183","","null","","","null","77","","","","","","","","","","","","","","",""
"","ISI","","html-keyboard-response","509","138604","0.0-1.0-696.0","0","0","18183","","null","","","null","77","NaN","","","","","","","","","","","","","",""
"","S2","","html-keyboard-response","510","138860","0.0-1.0-697.0","0","0","18183","","null","","","null","77","","NaN","","","","","","","","","","","","",""
"","response","","html-keyboard-response","511","138885","0.0-1.0-698.0","0","0","18183","","23","","","68","77","","","5","77","test","non_adjacent","7","5","P.jpg","O.jpg","0","0","1","",""
"","feedback","","html-keyboard-response","512","138987","0.0-1.0-699.0-0.0","0","0","18183","","null","","","null","77","","","","","","","","","","","","","","",""
"","ITI","","html-keyboard-response","513","139493","0.0-1.0-702.0","0","0","18183","","274","","","68","77","","","","","","","","","","","","","","d",""
"","block_over","","html-keyboard-response","514","140605","0.0-1.0-703.0-0.0","0","0","18183","","1109","","","32","77","","","","","","","","","","","","","","",""
"","S1","","html-keyboard-response","515","140860","0.0-1.0-704.0","0","0","18183","","null","","","null","78","","","","","","","","","","","","","","",""
"","ISI","","html-keyboard-response","516","140967","0.0-1.0-705.0","0","0","18183","","null","","","null","78","NaN","","","","","","","","","","","","","",""
"","S2","","html-keyboard-response","517","141221","0.0-1.0-706.0","0","0","18183","","11","","","75","78","","k","","","","","","","","","","","","",""
"","response","","html-keyboard-response","518","141456","0.0-1.0-707.0","0","0","18183","","234","","","75","78","","","6","78","test","non_adjacent","3","1","R.jpg","N.jpg","1","0","0","",""
"","feedback","","html-keyboard-response","519","141558","0.0-1.0-708.0-0.0","0","0","18183","","null","","","null","78","","","","","","","","","","","","","","",""
"","time_out","","html-keyboard-response","520","141665","0.0-1.0-710.0-0.0","0","0","18183","","null","","","null","78","","","","","","","","","","","","","","",""
"","ITI","","html-keyboard-response","521","142168","0.0-1.0-711.0","0","0","18183","","28","","","75","78","","","","","","","","","","","","","","k",""
"","S1","","html-keyboard-response","522","142421","0.0-1.0-713.0","0","0","18183","","null","","","null","79","","","","","","","","","","","","","","",""
"","ISI","","html-keyboard-response","523","142524","0.0-1.0-714.0","0","0","18183","","null","","","null","79","NaN","","","","","","","","","","","","","",""
"","S2","","html-keyboard-response","524","142781","0.0-1.0-715.0","0","0","18183","","57","","","75","79","","k","","","","","","","","","","","","",""
"","response","","html-keyboard-response","525","142857","0.0-1.0-716.0","0","0","18183","","74","","","75","79","","","6","79","test","adjacent","1","2","N.jpg","L.jpg","1","1","1","",""
"","feedback","","html-keyboard-response","526","142958","0.0-1.0-717.0-0.0","0","0","18183","","null","","","null","79","","","","","","","","","","","","","","",""
"","ITI","","html-keyboard-response","527","143463","0.0-1.0-720.0","0","0","18183","","160","","","75","79","","","","","","","","","","","","","","k",""
"","S1","","html-keyboard-response","528","143719","0.0-1.0-722.0","0","0","18183","","null","","","null","80","","","","","","","","","","","","","","",""
"","ISI","","html-keyboard-response","529","143826","0.0-1.0-723.0","0","0","18183","","18","","","75","80","k","","","","","","","","","","","","","",""
"","S2","","html-keyboard-response","530","144081","0.0-1.0-724.0","0","0","18183","","211","","","75","80","","k","","","","","","","","","","","","",""
"","response","","html-keyboard-response","531","144343","0.0-1.0-725.0","0","0","18183","","260","","","75","80","","","6","80","test","non_adjacent","4","1","Q.jpg","N.jpg","1","0","0","",""
"","feedback","","html-keyboard-response","532","144445","0.0-1.0-726.0-0.0","0","0","18183","","null","","","null","80","","","","","","","","","","","","","","",""
"","time_out","","html-keyboard-response","533","144548","0.0-1.0-728.0-0.0","0","0","18183","","null","","","null","80","","","","","","","","","","","","","","",""
"","ITI","","html-keyboard-response","534","145051","0.0-1.0-729.0","0","0","18183","","59","","","75","80","","","","","","","","","","","","","","k",""
"","S1","","html-keyboard-response","535","145304","0.0-1.0-731.0","0","0","18183","","null","","","null","81","","","","","","","","","","","","","","",""
"","ISI","","html-keyboard-response","536","145407","0.0-1.0-732.0","0","0","18183","","null","","","null","81","NaN","","","","","","","","","","","","","",""
"","S2","","html-keyboard-response","537","145664","0.0-1.0-733.0","0","0","18183","","195","","","75","81","","k","","","","","","","","","","","","",""
"","response","","html-keyboard-response","538","145851","0.0-1.0-734.0","0","0","18183","","185","","","75","81","","","6","81","test","non_adjacent","2","4","L.jpg","Q.jpg","1","1","1","",""
"","feedback","","html-keyboard-response","539","145954","0.0-1.0-735.0-0.0","0","0","18183","","null","","","null","81","","","","","","","","","","","","","","",""
"","ITI","","html-keyboard-response","540","146460","0.0-1.0-738.0","0","0","18183","","250","","","75","81","","","","","","","","","","","","","","k",""
"","S1","","html-keyboard-response","541","146712","0.0-1.0-740.0","0","0","18183","","null","","","null","82","","","","","","","","","","","","","","",""
"","ISI","","html-keyboard-response","542","146817","0.0-1.0-741.0","0","0","18183","","null","","","null","82","NaN","","","","","","","","","","","","","",""
"","S2","","html-keyboard-response","543","147073","0.0-1.0-742.0","0","0","18183","","84","","","75","82","","k","","","","","","","","","","","","",""
"","response","","html-keyboard-response","544","147152","0.0-1.0-743.0","0","0","18183","","78","","","75","82","","","6","82","test","non_adjacent","7","3","P.jpg","R.jpg","1","0","0","",""
"","feedback","","html-keyboard-response","545","147257","0.0-1.0-744.0-0.0","0","0","18183","","null","","","null","82","","","","","","","","","","","","","","",""
"","time_out","","html-keyboard-response","546","147363","0.0-1.0-746.0-0.0","0","0","18183","","null","","","null","82","","","","","","","","","","","","","","",""
"","ITI","","html-keyboard-response","547","147869","0.0-1.0-747.0","0","0","18183","","44","","","75","82","","","","","","","","","","","","","","k",""
"","S1","","html-keyboard-response","548","148122","0.0-1.0-749.0","0","0","18183","","null","","","null","83","","","","","","","","","","","","","","",""
"","ISI","","html-keyboard-response","549","148229","0.0-1.0-750.0","0","0","18183","","29","","","75","83","k","","","","","","","","","","","","","",""
"","S2","","html-keyboard-response","550","148482","0.0-1.0-751.0","0","0","18183","","182","","","75","83","","k","","","","","","","","","","","","",""
"","response","","html-keyboard-response","551","148640","0.0-1.0-752.0","0","0","18183","","157","","","75","83","","","6","83","test","non_adjacent","6","1","M.jpg","N.jpg","1","0","0","",""
"","feedback","","html-keyboard-response","552","148743","0.0-1.0-753.0-0.0","0","0","18183","","null","","","null","83","","","","","","","","","","","","","","",""
"","time_out","","html-keyboard-response","553","148849","0.0-1.0-755.0-0.0","0","0","18183","","null","","","null","83","","","","","","","","","","","","","","",""
"","ITI","","html-keyboard-response","554","149352","0.0-1.0-756.0","0","0","18183","","274","","","68","83","","","","","","","","","","","","","","d",""
"","S1","","html-keyboard-response","555","149604","0.0-1.0-758.0","0","0","18183","","null","","","null","84","","","","","","","","","","","","","","",""
"","ISI","","html-keyboard-response","556","149710","0.0-1.0-759.0","0","0","18183","","null","","","null","84","NaN","","","","","","","","","","","","","",""
"","S2","","html-keyboard-response","557","149965","0.0-1.0-760.0","0","0","18183","","63","","","68","84","","d","","","","","","","","","","","","",""
"","response","","html-keyboard-response","558","150057","0.0-1.0-761.0","0","0","18183","","90","","","68","84","","","6","84","test","adjacent","3","4","R.jpg","Q.jpg","0","1","0","",""
"","feedback","","html-keyboard-response","559","150159","0.0-1.0-762.0-0.0","0","0","18183","","null","","","null","84","","","","","","","","","","","","","","",""
"","time_out","","html-keyboard-response","560","150266","0.0-1.0-764.0-0.0","0","0","18183","","null","","","null","84","","","","","","","","","","","","","","",""
"","ITI","","html-keyboard-response","561","150773","0.0-1.0-765.0","0","0","18183","","83","","","68","84","","","","","","","","","","","","","","d",""
"","S1","","html-keyboard-response","562","151026","0.0-1.0-767.0","0","0","18183","","null","","","null","85","","","","","","","","","","","","","","",""
"","ISI","","html-keyboard-response","563","151131","0.0-1.0-768.0","0","0","18183","","32","","","68","85","d","","","","","","","","","","","","","",""
"","S2","","html-keyboard-response","564","151388","0.0-1.0-769.0","0","0","18183","","214","","","68","85","","d","","","","","","","","","","","","",""
"","response","","html-keyboard-response","565","151638","0.0-1.0-770.0","0","0","18183","","248","","","68","85","","","6","85","test","non_adjacent","1","3","N.jpg","R.jpg","0","1","0","",""
"","feedback","","html-keyboard-response","566","151742","0.0-1.0-771.0-0.0","0","0","18183","","null","","","null","85","","","","","","","","","","","","","","",""
"","time_out","","html-keyboard-response","567","151849","0.0-1.0-773.0-0.0","0","0","18183","","null","","","null","85","","","","","","","","","","","","","","",""
"","ITI","","html-keyboard-response","568","152353","0.0-1.0-774.0","0","0","18183","","104","","","68","85","","","","","","","","","","","","","","d",""
"","S1","","html-keyboard-response","569","152609","0.0-1.0-776.0","0","0","18183","","null","","","null","86","","","","","","","","","","","","","","",""
"","ISI","","html-keyboard-response","570","152715","0.0-1.0-777.0","0","0","18183","","57","","","68","86","d","","","","","","","","","","","","","",""
"","S2","","html-keyboard-response","571","152967","0.0-1.0-778.0","0","0","18183","","213","","","68","86","","d","","","","","","","","","","","","",""
"","response","","html-keyboard-response","572","153217","0.0-1.0-779.0","0","0","18183","","249","","","68","86","","","6","86","test","non_adjacent","6","3","M.jpg","R.jpg","0","0","1","",""
"","feedback","","html-keyboard-response","573","153320","0.0-1.0-780.0-0.0","0","0","18183","","null","","","null","86","","","","","","","","","","","","","","",""
"","ITI","","html-keyboard-response","574","153824","0.0-1.0-783.0","0","0","18183","","292","","","68","86","","","","","","","","","","","","","","d",""
"","S1","","html-keyboard-response","575","154079","0.0-1.0-785.0","0","0","18183","","null","","","null","87","","","","","","","","","","","","","","",""
"","ISI","","html-keyboard-response","576","154183","0.0-1.0-786.0","0","0","18183","","null","","","null","87","NaN","","","","","","","","","","","","","",""
"","S2","","html-keyboard-response","577","154437","0.0-1.0-787.0","0","0","18183","","83","","","68","87","","d","","","","","","","","","","","","",""
"","response","","html-keyboard-response","578","154575","0.0-1.0-788.0","0","0","18183","","136","","","68","87","","","6","87","test","adjacent","2","3","L.jpg","R.jpg","0","1","0","",""
"","feedback","","html-keyboard-response","579","154676","0.0-1.0-789.0-0.0","0","0","18183","","null","","","null","87","","","","","","","","","","","","","","",""
"","time_out","","html-keyboard-response","580","154780","0.0-1.0-791.0-0.0","0","0","18183","","null","","","null","87","","","","","","","","","","","","","","",""
"","ITI","","html-keyboard-response","581","155284","0.0-1.0-792.0","0","0","18183","","47","","","68","87","","","","","","","","","","","","","","d",""
"","S1","","html-keyboard-response","582","155538","0.0-1.0-794.0","0","0","18183","","null","","","null","88","","","","","","","","","","","","","","",""
"","ISI","","html-keyboard-response","583","155643","0.0-1.0-795.0","0","0","18183","","null","","","null","88","NaN","","","","","","","","","","","","","",""
"","S2","","html-keyboard-response","584","155900","0.0-1.0-796.0","0","0","18183","","88","","","75","88","","k","","","","","","","","","","","","",""
"","response","","html-keyboard-response","585","156031","0.0-1.0-797.0","0","0","18183","","129","","","75","88","","","6","88","test","non_adjacent","1","4","N.jpg","Q.jpg","1","1","1","",""
"","feedback","","html-keyboard-response","586","156133","0.0-1.0-798.0-0.0","0","0","18183","","null","","","null","88","","","","","","","","","","","","","","",""
"","ITI","","html-keyboard-response","587","156638","0.0-1.0-801.0","0","0","18183","","130","","","75","88","","","","","","","","","","","","","","k",""
"","S1","","html-keyboard-response","588","156891","0.0-1.0-803.0","0","0","18183","","null","","","null","89","","","","","","","","","","","","","","",""
"","ISI","","html-keyboard-response","589","156994","0.0-1.0-804.0","0","0","18183","","null","","","null","89","NaN","","","","","","","","","","","","","",""
"","S2","","html-keyboard-response","590","157248","0.0-1.0-805.0","0","0","18183","","149","","","75","89","","k","","","","","","","","","","","","",""
"","response","","html-keyboard-response","591","157363","0.0-1.0-806.0","0","0","18183","","113","","","75","89","","","6","89","test","adjacent","3","2","R.jpg","L.jpg","1","0","0","",""
"","feedback","","html-keyboard-response","592","157466","0.0-1.0-807.0-0.0","0","0","18183","","null","","","null","89","","","","","","","","","","","","","","",""
"","time_out","","html-keyboard-response","593","157573","0.0-1.0-809.0-0.0","0","0","18183","","null","","","null","89","","","","","","","","","","","","","","",""
"","ITI","","html-keyboard-response","594","158076","0.0-1.0-810.0","0","0","18183","","26","","","75","89","","","","","","","","","","","","","","k",""
"","S1","","html-keyboard-response","595","158331","0.0-1.0-812.0","0","0","18183","","null","","","null","90","","","","","","","","","","","","","","",""
"","ISI","","html-keyboard-response","596","158434","0.0-1.0-813.0","0","0","18183","","null","","","null","90","NaN","","","","","","","","","","","","","",""
"","S2","","html-keyboard-response","597","158690","0.0-1.0-814.0","0","0","18183","","49","","","75","90","","k","","","","","","","","","","","","",""
"","response","","html-keyboard-response","598","158709","0.0-1.0-815.0","0","0","18183","","19","","","75","90","","","6","90","test","non_adjacent","5","2","O.jpg","L.jpg","1","0","0","",""
"","feedback","","html-keyboard-response","599","158811","0.0-1.0-816.0-0.0","0","0","18183","","null","","","null","90","","","","","","","","","","","","","","",""
"","time_out","","html-keyboard-response","600","158914","0.0-1.0-818.0-0.0","0","0","18183","","null","","","null","90","","","","","","","","","","","","","","",""
"","ITI","","html-keyboard-response","601","159419","0.0-1.0-819.0","0","0","18183","","21","","","75","90","","","","","","","","","","","","","","k",""
"","S1","","html-keyboard-response","602","159673","0.0-1.0-821.0","0","0","18183","","null","","","null","91","","","","","","","","","","","","","","",""
"","ISI","","html-keyboard-response","603","159778","0.0-1.0-822.0","0","0","18183","","null","","","null","91","NaN","","","","","","","","","","","","","",""
"","S2","","html-keyboard-response","604","160034","0.0-1.0-823.0","0","0","18183","","94","","","75","91","","k","","","","","","","","","","","","",""
"","response","","html-keyboard-response","605","160106","0.0-1.0-824.0","0","0","18183","","71","","","75","91","","","6","91","test","non_adjacent","5","3","O.jpg","R.jpg","1","0","0","",""
