"success","ttype","start_time","trial_type","trial_index","time_elapsed","internal_node_id","warning","missed_checkup","PID","view_history","rt","responses","repeat_instructions","key_press","index","keypress_isi","keypress_S2","block","trial_num","phase","group_type","pair_type","S1_stim","S2_stim","S1_img","S2_img","S1_chosen","S1_higher","accuracy","keypress_iti","total_bonus_tally"
"true","full_screen","d03082023hr1955","fullscreen","0","9312","0.0-0.0","0","0","33732","","","","","","","","","","","","","","","","","","","","","",""
"","instructions","","instructions","1","91832","0.0-1.0-0.0-0.0","0","0","33732","[{""page_index"":0,""viewing_time"":4034},{""page_index"":1,""viewing_time"":66442},{""page_index"":2,""viewing_time"":10085},{""page_index"":3,""viewing_time"":1956}]","82518","","","","","","","","","","","","","","","","","","","",""
"","comprehension_check","","survey-multi-choice","2","188887","0.0-1.0-0.0-1.0","0","0","33732","","97052","{""Q0"":""True"",""Q1"":""D"",""Q2"":""Only when the screen 'MAKE A CHOICE' is shown"",""Q3"":""Green mark"",""Q4"":""either D or K""}","1","","","","","","","","","","","","","","","","","",""
"","missed_instruction_checkup","","html-keyboard-response","3","190836","0.0-1.0-0.0-2.0-0.0","0","1","33732","","1945","","","32","","","","","","","","","","","","","","","","",""
"","instructions","","instructions","4","194642","0.0-1.0-0.1-0.1","0","0","33732","[{""page_index"":0,""viewing_time"":1661},{""page_index"":1,""viewing_time"":722},{""page_index"":2,""viewing_time"":659},{""page_index"":3,""viewing_time"":762}]","3804","","","","","","","","","","","","","","","","","","","",""
"","comprehension_check","","survey-multi-choice","5","208469","0.0-1.0-0.1-1.1","0","0","33732","","13825","{""Q0"":""True"",""Q1"":""D"",""Q2"":""Once the second image appears and while the screen 'MAKE A CHOICE' is shown"",""Q3"":""Green mark"",""Q4"":""either D or K""}","0","","","","","","","","","","","","","","","","","",""
"","start_exp","","html-keyboard-response","6","210117","0.0-1.0-1.0","0","0","33732","","1645","","","32","","","","","","","","","","","","","","","","",""
"","S1","","html-keyboard-response","7","210373","0.0-1.0-2.0","0","0","33732","","null","","","null","0","","","","","","","","","","","","","","","",""
"","ISI","","html-keyboard-response","8","210531","0.0-1.0-3.0","0","0","33732","","null","","","null","0","NaN","","","","","","","","","","","","","","",""
"","S2","","html-keyboard-response","9","210792","0.0-1.0-4.0","0","0","33732","","null","","","null","0","","NaN","","","","","","","","","","","","","",""
"","response","","html-keyboard-response","10","211699","0.0-1.0-5.0-0.0","0","0","33732","","905","","","75","0","","","1","0","training","adjacent","DC","4","3","N.jpg","L.jpg","0","0","1","",""
"","feedback","","html-keyboard-response","11","212705","0.0-1.0-6.0-0.0","0","0","33732","","null","","","null","0","","","","","","","","","","","","","","","",""
"","ITI","","html-keyboard-response","12","213723","0.0-1.0-9.0","0","0","33732","","null","","","null","0","","","","","","","","","","","","","","","NaN",""
"","S1","","html-keyboard-response","13","213989","0.0-1.0-11.0","0","0","33732","","null","","","null","1","","","","","","","","","","","","","","","",""
"","ISI","","html-keyboard-response","14","214150","0.0-1.0-12.0","0","0","33732","","null","","","null","1","NaN","","","","","","","","","","","","","","",""
"","S2","","html-keyboard-response","15","214405","0.0-1.0-13.0","0","0","33732","","null","","","null","1","","NaN","","","","","","","","","","","","","",""
"","response","","html-keyboard-response","16","214771","0.0-1.0-14.0-0.0","0","0","33732","","365","","","68","1","","","1","1","training","adjacent","CD","3","4","L.jpg","N.jpg","1","1","1","",""
"","feedback","","html-keyboard-response","17","215773","0.0-1.0-15.0-0.0","0","0","33732","","null","","","null","1","","","","","","","","","","","","","","","",""
"","ITI","","html-keyboard-response","18","216777","0.0-1.0-18.0","0","0","33732","","null","","","null","1","","","","","","","","","","","","","","","NaN",""
"","S1","","html-keyboard-response","19","217031","0.0-1.0-20.0","0","0","33732","","null","","","null","2","","","","","","","","","","","","","","","",""
"","ISI","","html-keyboard-response","20","217190","0.0-1.0-21.0","0","0","33732","","null","","","null","2","NaN","","","","","","","","","","","","","","",""
"","S2","","html-keyboard-response","21","217450","0.0-1.0-22.0","0","0","33732","","null","","","null","2","","NaN","","","","","","","","","","","","","",""
"","response","","html-keyboard-response","22","217791","0.0-1.0-23.0-0.0","0","0","33732","","340","","","75","2","","","1","2","training","adjacent","BA","2","1","Q.jpg","P.jpg","0","0","1","",""
"","feedback","","html-keyboard-response","23","218798","0.0-1.0-24.0-0.0","0","0","33732","","null","","","null","2","","","","","","","","","","","","","","","",""
"","ITI","","html-keyboard-response","24","219805","0.0-1.0-27.0","0","0","33732","","null","","","null","2","","","","","","","","","","","","","","","NaN",""
"","S1","","html-keyboard-response","25","220063","0.0-1.0-29.0","0","0","33732","","null","","","null","3","","","","","","","","","","","","","","","",""
"","ISI","","html-keyboard-response","26","220220","0.0-1.0-30.0","0","0","33732","","null","","","null","3","NaN","","","","","","","","","","","","","","",""
"","S2","","html-keyboard-response","27","220478","0.0-1.0-31.0","0","0","33732","","null","","","null","3","","NaN","","","","","","","","","","","","","",""
"","response","","html-keyboard-response","28","220692","0.0-1.0-32.0-0.0","0","0","33732","","213","","","68","3","","","1","3","training","adjacent","FE","6","5","O.jpg","R.jpg","1","0","0","",""
"","feedback","","html-keyboard-response","29","221699","0.0-1.0-33.0-0.0","0","0","33732","","null","","","null","3","","","","","","","","","","","","","","","",""
"","time_out","","html-keyboard-response","30","223709","0.0-1.0-35.0-0.0","0","0","33732","","null","","","null","3","","","","","","","","","","","","","","","",""
"","ITI","","html-keyboard-response","31","224721","0.0-1.0-36.0","0","0","33732","","null","","","null","3","","","","","","","","","","","","","","","NaN",""
"","S1","","html-keyboard-response","32","224979","0.0-1.0-38.0","0","0","33732","","null","","","null","4","","","","","","","","","","","","","","","",""
"","ISI","","html-keyboard-response","33","225146","0.0-1.0-39.0","0","0","33732","","null","","","null","4","NaN","","","","","","","","","","","","","","",""
"","S2","","html-keyboard-response","34","225210","0.0-1.0-40.0","0","0","33732","","62","","","75","4","","k","1","4","training","adjacent","GF","7","6","M.jpg","O.jpg","0","0","1","",""
"","feedback","","html-keyboard-response","35","226216","0.0-1.0-42.0-0.0","0","0","33732","","null","","","null","4","","","","","","","","","","","","","","","",""
"","ITI","","html-keyboard-response","36","227227","0.0-1.0-45.0","0","0","33732","","null","","","null","4","","","","","","","","","","","","","","","NaN",""
"","S1","","html-keyboard-response","37","227494","0.0-1.0-47.0","0","0","33732","","null","","","null","5","","","","","","","","","","","","","","","",""
"","ISI","","html-keyboard-response","38","227647","0.0-1.0-48.0","0","0","33732","","null","","","null","5","NaN","","","","","","","","","","","","","","",""
"","S2","","html-keyboard-response","39","227909","0.0-1.0-49.0","0","0","33732","","null","","","null","5","","NaN","","","","","","","","","","","","","",""
"","response","","html-keyboard-response","40","229666","0.0-1.0-50.0-0.0","0","0","33732","","null","","","null","5","","","1","5","training","adjacent","FE","6","5","O.jpg","R.jpg","NaN","0","0","",""
"","too_slow_prompt","","html-keyboard-response","41","230670","0.0-1.0-52.0-0.0","1","0","33732","","null","","","null","","","","","","","","","","","","","","","","",""
"","time_out","","html-keyboard-response","42","232683","0.0-1.0-53.0-0.0","0","0","33732","","null","","","null","5","","","","","","","","","","","","","","","",""
"","ITI","","html-keyboard-response","43","233693","0.0-1.0-54.0","0","0","33732","","null","","","null","5","","","","","","","","","","","","","","","NaN",""
"","S1","","html-keyboard-response","44","233946","0.0-1.0-56.0","0","0","33732","","null","","","null","6","","","","","","","","","","","","","","","",""
"","ISI","","html-keyboard-response","45","234104","0.0-1.0-57.0","0","0","33732","","90","","","75","6","k","","","","","","","","","","","","","","",""
"","S2","","html-keyboard-response","46","234362","0.0-1.0-58.0","0","0","33732","","null","","","null","6","","NaN","","","","","","","","","","","","","",""
"","response","","html-keyboard-response","47","234707","0.0-1.0-59.0-0.0","0","0","33732","","343","","","75","6","","","1","6","training","adjacent","FG","6","7","O.jpg","M.jpg","0","1","0","",""
"","feedback","","html-keyboard-response","48","235713","0.0-1.0-60.0-0.0","0","0","33732","","null","","","null","6","","","","","","","","","","","","","","","",""
"","time_out","","html-keyboard-response","49","237723","0.0-1.0-62.0-0.0","0","0","33732","","null","","","null","6","","","","","","","","","","","","","","","",""
"","ITI","","html-keyboard-response","50","238730","0.0-1.0-63.0","0","0","33732","","null","","","null","6","","","","","","","","","","","","","","","NaN",""
"","S1","","html-keyboard-response","51","238990","0.0-1.0-65.0","0","0","33732","","null","","","null","7","","","","","","","","","","","","","","","",""
"","ISI","","html-keyboard-response","52","239146","0.0-1.0-66.0","0","0","33732","","null","","","null","7","NaN","","","","","","","","","","","","","","",""
"","S2","","html-keyboard-response","53","239399","0.0-1.0-67.0","0","0","33732","","null","","","null","7","","NaN","","","","","","","","","","","","","",""
"","response","","html-keyboard-response","54","240148","0.0-1.0-68.0-0.0","0","0","33732","","748","","","75","7","","","1","7","training","adjacent","EF","5","6","R.jpg","O.jpg","0","1","0","",""
"","feedback","","html-keyboard-response","55","241159","0.0-1.0-69.0-0.0","0","0","33732","","null","","","null","7","","","","","","","","","","","","","","","",""
"","time_out","","html-keyboard-response","56","243167","0.0-1.0-71.0-0.0","0","0","33732","","null","","","null","7","","","","","","","","","","","","","","","",""
"","ITI","","html-keyboard-response","57","244172","0.0-1.0-72.0","0","0","33732","","null","","","null","7","","","","","","","","","","","","","","","NaN",""
"","S1","","html-keyboard-response","58","244429","0.0-1.0-74.0","0","0","33732","","null","","","null","8","","","","","","","","","","","","","","","",""
"","ISI","","html-keyboard-response","59","244592","0.0-1.0-75.0","0","0","33732","","null","","","null","8","NaN","","","","","","","","","","","","","","",""
"","S2","","html-keyboard-response","60","244853","0.0-1.0-76.0","0","0","33732","","null","","","null","8","","NaN","","","","","","","","","","","","","",""
"","response","","html-keyboard-response","61","245149","0.0-1.0-77.0-0.0","0","0","33732","","294","","","75","8","","","1","8","training","adjacent","BC","2","3","Q.jpg","L.jpg","0","1","0","",""
"","feedback","","html-keyboard-response","62","246159","0.0-1.0-78.0-0.0","0","0","33732","","null","","","null","8","","","","","","","","","","","","","","","",""
"","time_out","","html-keyboard-response","63","248165","0.0-1.0-80.0-0.0","0","0","33732","","null","","","null","8","","","","","","","","","","","","","","","",""
"","ITI","","html-keyboard-response","64","249174","0.0-1.0-81.0","0","0","33732","","null","","","null","8","","","","","","","","","","","","","","","NaN",""
"","S1","","html-keyboard-response","65","249434","0.0-1.0-83.0","0","0","33732","","null","","","null","9","","","","","","","","","","","","","","","",""
"","ISI","","html-keyboard-response","66","249587","0.0-1.0-84.0","0","0","33732","","null","","","null","9","NaN","","","","","","","","","","","","","","",""
"","S2","","html-keyboard-response","67","249854","0.0-1.0-85.0","0","0","33732","","null","","","null","9","","NaN","","","","","","","","","","","","","",""
"","response","","html-keyboard-response","68","249967","0.0-1.0-86.0-0.0","0","0","33732","","111","","","68","9","","","1","9","training","adjacent","AB","1","2","P.jpg","Q.jpg","1","1","1","",""
"","feedback","","html-keyboard-response","69","250983","0.0-1.0-87.0-0.0","0","0","33732","","null","","","null","9","","","","","","","","","","","","","","","",""
"","ITI","","html-keyboard-response","70","251991","0.0-1.0-90.0","0","0","33732","","null","","","null","9","","","","","","","","","","","","","","","NaN",""
"","S1","","html-keyboard-response","71","252247","0.0-1.0-92.0","0","0","33732","","null","","","null","10","","","","","","","","","","","","","","","",""
"","ISI","","html-keyboard-response","72","252404","0.0-1.0-93.0","0","0","33732","","null","","","null","10","NaN","","","","","","","","","","","","","","",""
"","S2","","html-keyboard-response","73","252658","0.0-1.0-94.0","0","0","33732","","null","","","null","10","","NaN","","","","","","","","","","","","","",""
"","response","","html-keyboard-response","74","252703","0.0-1.0-95.0-0.0","0","0","33732","","43","","","68","10","","","1","10","training","adjacent","CD","3","4","L.jpg","N.jpg","1","1","1","",""
"","feedback","","html-keyboard-response","75","253721","0.0-1.0-96.0-0.0","0","0","33732","","null","","","null","10","","","","","","","","","","","","","","","",""
"","ITI","","html-keyboard-response","76","254725","0.0-1.0-99.0","0","0","33732","","null","","","null","10","","","","","","","","","","","","","","","NaN",""
"","S1","","html-keyboard-response","77","254985","0.0-1.0-101.0","0","0","33732","","null","","","null","11","","","","","","","","","","","","","","","",""
"","ISI","","html-keyboard-response","78","255143","0.0-1.0-102.0","0","0","33732","","null","","","null","11","NaN","","","","","","","","","","","","","","",""
"","S2","","html-keyboard-response","79","255410","0.0-1.0-103.0","0","0","33732","","null","","","null","11","","NaN","","","","","","","","","","","","","",""
"","response","","html-keyboard-response","80","255472","0.0-1.0-104.0-0.0","0","0","33732","","61","","","68","11","","","1","11","training","adjacent","BA","2","1","Q.jpg","P.jpg","1","0","0","",""
"","feedback","","html-keyboard-response","81","256480","0.0-1.0-105.0-0.0","0","0","33732","","null","","","null","11","","","","","","","","","","","","","","","",""
"","time_out","","html-keyboard-response","82","258483","0.0-1.0-107.0-0.0","0","0","33732","","null","","","null","11","","","","","","","","","","","","","","","",""
"","ITI","","html-keyboard-response","83","259493","0.0-1.0-108.0","0","0","33732","","null","","","null","11","","","","","","","","","","","","","","","NaN",""
"","S1","","html-keyboard-response","84","259751","0.0-1.0-110.0","0","0","33732","","null","","","null","12","","","","","","","","","","","","","","","",""
"","ISI","","html-keyboard-response","85","259917","0.0-1.0-111.0","0","0","33732","","null","","","null","12","NaN","","","","","","","","","","","","","","",""
"","S2","","html-keyboard-response","86","260173","0.0-1.0-112.0","0","0","33732","","null","","","null","12","","NaN","","","","","","","","","","","","","",""
"","response","","html-keyboard-response","87","260385","0.0-1.0-113.0-0.0","0","0","33732","","211","","","75","12","","","1","12","training","adjacent","BA","2","1","Q.jpg","P.jpg","0","0","1","",""
"","feedback","","html-keyboard-response","88","261395","0.0-1.0-114.0-0.0","0","0","33732","","null","","","null","12","","","","","","","","","","","","","","","",""
"","ITI","","html-keyboard-response","89","262398","0.0-1.0-117.0","0","0","33732","","null","","","null","12","","","","","","","","","","","","","","","NaN",""
"","S1","","html-keyboard-response","90","262656","0.0-1.0-119.0","0","0","33732","","null","","","null","13","","","","","","","","","","","","","","","",""
"","ISI","","html-keyboard-response","91","262813","0.0-1.0-120.0","0","0","33732","","null","","","null","13","NaN","","","","","","","","","","","","","","",""
"","S2","","html-keyboard-response","92","263081","0.0-1.0-121.0","0","0","33732","","null","","","null","13","","NaN","","","","","","","","","","","","","",""
"","response","","html-keyboard-response","93","263316","0.0-1.0-122.0-0.0","0","0","33732","","233","","","68","13","","","1","13","training","adjacent","ED","5","4","R.jpg","N.jpg","1","0","0","",""
"","feedback","","html-keyboard-response","94","264322","0.0-1.0-123.0-0.0","0","0","33732","","null","","","null","13","","","","","","","","","","","","","","","",""
"","time_out","","html-keyboard-response","95","266328","0.0-1.0-125.0-0.0","0","0","33732","","null","","","null","13","","","","","","","","","","","","","","","",""
"","ITI","","html-keyboard-response","96","267331","0.0-1.0-126.0","0","0","33732","","null","","","null","13","","","","","","","","","","","","","","","NaN",""
"","S1","","html-keyboard-response","97","267593","0.0-1.0-128.0","0","0","33732","","null","","","null","14","","","","","","","","","","","","","","","",""
"","ISI","","html-keyboard-response","98","267750","0.0-1.0-129.0","0","0","33732","","null","","","null","14","NaN","","","","","","","","","","","","","","",""
"","S2","","html-keyboard-response","99","268009","0.0-1.0-130.0","0","0","33732","","null","","","null","14","","NaN","","","","","","","","","","","","","",""
"","response","","html-keyboard-response","100","268418","0.0-1.0-131.0-0.0","0","0","33732","","408","","","68","14","","","1","14","training","adjacent","AB","1","2","P.jpg","Q.jpg","1","1","1","",""
"","feedback","","html-keyboard-response","101","269422","0.0-1.0-132.0-0.0","0","0","33732","","null","","","null","14","","","","","","","","","","","","","","","",""
"","ITI","","html-keyboard-response","102","270427","0.0-1.0-135.0","0","0","33732","","null","","","null","14","","","","","","","","","","","","","","","NaN",""
"","S1","","html-keyboard-response","103","270681","0.0-1.0-137.0","0","0","33732","","null","","","null","15","","","","","","","","","","","","","","","",""
"","ISI","","html-keyboard-response","104","270834","0.0-1.0-138.0","0","0","33732","","null","","","null","15","NaN","","","","","","","","","","","","","","",""
"","S2","","html-keyboard-response","105","271094","0.0-1.0-139.0","0","0","33732","","null","","","null","15","","NaN","","","","","","","","","","","","","",""
"","response","","html-keyboard-response","106","271406","0.0-1.0-140.0-0.0","0","0","33732","","310","","","75","15","","","1","15","training","adjacent","ED","5","4","R.jpg","N.jpg","0","0","1","",""
"","feedback","","html-keyboard-response","107","272415","0.0-1.0-141.0-0.0","0","0","33732","","null","","","null","15","","","","","","","","","","","","","","","",""
"","ITI","","html-keyboard-response","108","273426","0.0-1.0-144.0","0","0","33732","","null","","","null","15","","","","","","","","","","","","","","","NaN",""
"","S1","","html-keyboard-response","109","273680","0.0-1.0-146.0","0","0","33732","","null","","","null","16","","","","","","","","","","","","","","","",""
"","ISI","","html-keyboard-response","110","273846","0.0-1.0-147.0","0","0","33732","","null","","","null","16","NaN","","","","","","","","","","","","","","",""
"","S2","","html-keyboard-response","111","274110","0.0-1.0-148.0","0","0","33732","","null","","","null","16","","NaN","","","","","","","","","","","","","",""
"","response","","html-keyboard-response","112","274435","0.0-1.0-149.0-0.0","0","0","33732","","324","","","75","16","","","1","16","training","adjacent","CB","3","2","L.jpg","Q.jpg","0","0","1","",""
"","feedback","","html-keyboard-response","113","275442","0.0-1.0-150.0-0.0","0","0","33732","","null","","","null","16","","","","","","","","","","","","","","","",""
"","ITI","","html-keyboard-response","114","276444","0.0-1.0-153.0","0","0","33732","","null","","","null","16","","","","","","","","","","","","","","","NaN",""
"","S1","","html-keyboard-response","115","276704","0.0-1.0-155.0","0","0","33732","","null","","","null","17","","","","","","","","","","","","","","","",""
"","ISI","","html-keyboard-response","116","276862","0.0-1.0-156.0","0","0","33732","","null","","","null","17","NaN","","","","","","","","","","","","","","",""
"","S2","","html-keyboard-response","117","277122","0.0-1.0-157.0","0","0","33732","","null","","","null","17","","NaN","","","","","","","","","","","","","",""
"","response","","html-keyboard-response","118","277332","0.0-1.0-158.0-0.0","0","0","33732","","209","","","75","17","","","1","17","training","adjacent","CD","3","4","L.jpg","N.jpg","0","1","0","",""
"","feedback","","html-keyboard-response","119","278340","0.0-1.0-159.0-0.0","0","0","33732","","null","","","null","17","","","","","","","","","","","","","","","",""
"","time_out","","html-keyboard-response","120","280350","0.0-1.0-161.0-0.0","0","0","33732","","null","","","null","17","","","","","","","","","","","","","","","",""
"","ITI","","html-keyboard-response","121","281360","0.0-1.0-162.0","0","0","33732","","null","","","null","17","","","","","","","","","","","","","","","NaN",""
"","S1","","html-keyboard-response","122","281628","0.0-1.0-164.0","0","0","33732","","null","","","null","18","","","","","","","","","","","","","","","",""
"","ISI","","html-keyboard-response","123","281794","0.0-1.0-165.0","0","0","33732","","null","","","null","18","NaN","","","","","","","","","","","","","","",""
"","S2","","html-keyboard-response","124","282053","0.0-1.0-166.0","0","0","33732","","null","","","null","18","","NaN","","","","","","","","","","","","","",""
"","response","","html-keyboard-response","125","282622","0.0-1.0-167.0-0.0","0","0","33732","","568","","","68","18","","","1","18","training","adjacent","DC","4","3","N.jpg","L.jpg","1","0","0","",""
"","feedback","","html-keyboard-response","126","283625","0.0-1.0-168.0-0.0","0","0","33732","","null","","","null","18","","","","","","","","","","","","","","","",""
"","time_out","","html-keyboard-response","127","285636","0.0-1.0-170.0-0.0","0","0","33732","","null","","","null","18","","","","","","","","","","","","","","","",""
"","ITI","","html-keyboard-response","128","286648","0.0-1.0-171.0","0","0","33732","","null","","","null","18","","","","","","","","","","","","","","","NaN",""
"","S1","","html-keyboard-response","129","286910","0.0-1.0-173.0","0","0","33732","","null","","","null","19","","","","","","","","","","","","","","","",""
"","ISI","","html-keyboard-response","130","287063","0.0-1.0-174.0","0","0","33732","","null","","","null","19","NaN","","","","","","","","","","","","","","",""
"","S2","","html-keyboard-response","131","287323","0.0-1.0-175.0","0","0","33732","","null","","","null","19","","NaN","","","","","","","","","","","","","",""
"","response","","html-keyboard-response","132","287569","0.0-1.0-176.0-0.0","0","0","33732","","244","","","75","19","","","1","19","training","adjacent","ED","5","4","R.jpg","N.jpg","0","0","1","",""
"","feedback","","html-keyboard-response","133","288585","0.0-1.0-177.0-0.0","0","0","33732","","null","","","null","19","","","","","","","","","","","","","","","",""
"","ITI","","html-keyboard-response","134","289598","0.0-1.0-180.0","0","0","33732","","null","","","null","19","","","","","","","","","","","","","","","NaN",""
"","S1","","html-keyboard-response","135","289866","0.0-1.0-182.0","0","0","33732","","null","","","null","20","","","","","","","","","","","","","","","",""
"","ISI","","html-keyboard-response","136","290024","0.0-1.0-183.0","0","0","33732","","null","","","null","20","NaN","","","","","","","","","","","","","","",""
"","S2","","html-keyboard-response","137","290282","0.0-1.0-184.0","0","0","33732","","null","","","null","20","","NaN","","","","","","","","","","","","","",""
"","response","","html-keyboard-response","138","290695","0.0-1.0-185.0-0.0","0","0","33732","","413","","","68","20","","","1","20","training","adjacent","GF","7","6","M.jpg","O.jpg","1","0","0","",""
"","feedback","","html-keyboard-response","139","291703","0.0-1.0-186.0-0.0","0","0","33732","","null","","","null","20","","","","","","","","","","","","","","","",""
"","time_out","","html-keyboard-response","140","293712","0.0-1.0-188.0-0.0","0","0","33732","","null","","","null","20","","","","","","","","","","","","","","","",""
"","ITI","","html-keyboard-response","141","294715","0.0-1.0-189.0","0","0","33732","","null","","","null","20","","","","","","","","","","","","","","","NaN",""
"","S1","","html-keyboard-response","142","294983","0.0-1.0-191.0","0","0","33732","","null","","","null","21","","","","","","","","","","","","","","","",""
"","ISI","","html-keyboard-response","143","295138","0.0-1.0-192.0","0","0","33732","","null","","","null","21","NaN","","","","","","","","","","","","","","",""
"","S2","","html-keyboard-response","144","295400","0.0-1.0-193.0","0","0","33732","","null","","","null","21","","NaN","","","","","","","","","","","","","",""
"","response","","html-keyboard-response","145","295549","0.0-1.0-194.0-0.0","0","0","33732","","148","","","75","21","","","1","21","training","adjacent","BC","2","3","Q.jpg","L.jpg","0","1","0","",""
"","feedback","","html-keyboard-response","146","296560","0.0-1.0-195.0-0.0","0","0","33732","","null","","","null","21","","","","","","","","","","","","","","","",""
"","time_out","","html-keyboard-response","147","298565","0.0-1.0-197.0-0.0","0","0","33732","","null","","","null","21","","","","","","","","","","","","","","","",""
"","ITI","","html-keyboard-response","148","299570","0.0-1.0-198.0","0","0","33732","","null","","","null","21","","","","","","","","","","","","","","","NaN",""
"","S1","","html-keyboard-response","149","299832","0.0-1.0-200.0","0","0","33732","","null","","","null","22","","","","","","","","","","","","","","","",""
"","ISI","","html-keyboard-response","150","299988","0.0-1.0-201.0","0","0","33732","","null","","","null","22","NaN","","","","","","","","","","","","","","",""
"","S2","","html-keyboard-response","151","300246","0.0-1.0-202.0","0","0","33732","","null","","","null","22","","NaN","","","","","","","","","","","","","",""
"","response","","html-keyboard-response","152","300606","0.0-1.0-203.0-0.0","0","0","33732","","358","","","68","22","","","1","22","training","adjacent","EF","5","6","R.jpg","O.jpg","1","1","1","",""
"","feedback","","html-keyboard-response","153","301610","0.0-1.0-204.0-0.0","0","0","33732","","null","","","null","22","","","","","","","","","","","","","","","",""
"","ITI","","html-keyboard-response","154","302628","0.0-1.0-207.0","0","0","33732","","null","","","null","22","","","","","","","","","","","","","","","NaN",""
"","S1","","html-keyboard-response","155","302882","0.0-1.0-209.0","0","0","33732","","null","","","null","23","","","","","","","","","","","","","","","",""
"","ISI","","html-keyboard-response","156","303039","0.0-1.0-210.0","0","0","33732","","null","","","null","23","NaN","","","","","","","","","","","","","","",""
"","S2","","html-keyboard-response","157","303297","0.0-1.0-211.0","0","0","33732","","null","","","null","23","","NaN","","","","","","","","","","","","","",""
"","response","","html-keyboard-response","158","303551","0.0-1.0-212.0-0.0","0","0","33732","","252","","","68","23","","","1","23","training","adjacent","FE","6","5","O.jpg","R.jpg","1","0","0","",""
"","feedback","","html-keyboard-response","159","304556","0.0-1.0-213.0-0.0","0","0","33732","","null","","","null","23","","","","","","","","","","","","","","","",""
"","time_out","","html-keyboard-response","160","306558","0.0-1.0-215.0-0.0","0","0","33732","","null","","","null","23","","","","","","","","","","","","","","","",""
"","ITI","","html-keyboard-response","161","307567","0.0-1.0-216.0","0","0","33732","","null","","","null","23","","","","","","","","","","","","","","","NaN",""
"","S1","","html-keyboard-response","162","307833","0.0-1.0-218.0","0","0","33732","","null","","","null","24","","","","","","","","","","","","","","","",""
"","ISI","","html-keyboard-response","163","307989","0.0-1.0-219.0","0","0","33732","","126","","","75","24","k","","","","","","","","","","","","","","",""
"","S2","","html-keyboard-response","164","308245","0.0-1.0-220.0","0","0","33732","","null","","","null","24","","NaN","","","","","","","","","","","","","",""
"","response","","html-keyboard-response","165","308599","0.0-1.0-221.0-0.0","0","0","33732","","352","","","75","24","","","1","24","training","adjacent","CB","3","2","L.jpg","Q.jpg","0","0","1","",""
"","feedback","","html-keyboard-response","166","309609","0.0-1.0-222.0-0.0","0","0","33732","","null","","","null","24","","","","","","","","","","","","","","","",""
"","ITI","","html-keyboard-response","167","310611","0.0-1.0-225.0","0","0","33732","","null","","","null","24","","","","","","","","","","","","","","","NaN",""
"","S1","","html-keyboard-response","168","310878","0.0-1.0-227.0","0","0","33732","","null","","","null","25","","","","","","","","","","","","","","","",""
"","ISI","","html-keyboard-response","169","311044","0.0-1.0-228.0","0","0","33732","","null","","","null","25","NaN","","","","","","","","","","","","","","",""
"","S2","","html-keyboard-response","170","311305","0.0-1.0-229.0","0","0","33732","","null","","","null","25","","NaN","","","","","","","","","","","","","",""
"","response","","html-keyboard-response","171","311588","0.0-1.0-230.0-0.0","0","0","33732","","282","","","68","25","","","1","25","training","adjacent","BC","2","3","Q.jpg","L.jpg","1","1","1","",""
"","feedback","","html-keyboard-response","172","312594","0.0-1.0-231.0-0.0","0","0","33732","","null","","","null","25","","","","","","","","","","","","","","","",""
"","ITI","","html-keyboard-response","173","313602","0.0-1.0-234.0","0","0","33732","","null","","","null","25","","","","","","","","","","","","","","","NaN",""
"","S1","","html-keyboard-response","174","313863","0.0-1.0-236.0","0","0","33732","","null","","","null","26","","","","","","","","","","","","","","","",""
"","ISI","","html-keyboard-response","175","314020","0.0-1.0-237.0","0","0","33732","","null","","","null","26","NaN","","","","","","","","","","","","","","",""
"","S2","","html-keyboard-response","176","314274","0.0-1.0-238.0","0","0","33732","","null","","","null","26","","NaN","","","","","","","","","","","","","",""
"","response","","html-keyboard-response","177","315132","0.0-1.0-239.0-0.0","0","0","33732","","856","","","75","26","","","1","26","training","adjacent","AB","1","2","P.jpg","Q.jpg","0","1","0","",""
"","feedback","","html-keyboard-response","178","316143","0.0-1.0-240.0-0.0","0","0","33732","","null","","","null","26","","","","","","","","","","","","","","","",""
"","time_out","","html-keyboard-response","179","318146","0.0-1.0-242.0-0.0","0","0","33732","","null","","","null","26","","","","","","","","","","","","","","","",""
"","ITI","","html-keyboard-response","180","319156","0.0-1.0-243.0","0","0","33732","","null","","","null","26","","","","","","","","","","","","","","","NaN",""
"","S1","","html-keyboard-response","181","319412","0.0-1.0-245.0","0","0","33732","","null","","","null","27","","","","","","","","","","","","","","","",""
"","ISI","","html-keyboard-response","182","319564","0.0-1.0-246.0","0","0","33732","","null","","","null","27","NaN","","","","","","","","","","","","","","",""
"","S2","","html-keyboard-response","183","319824","0.0-1.0-247.0","0","0","33732","","null","","","null","27","","NaN","","","","","","","","","","","","","",""
"","response","","html-keyboard-response","184","320537","0.0-1.0-248.0-0.0","0","0","33732","","712","","","68","27","","","1","27","training","adjacent","FG","6","7","O.jpg","M.jpg","1","1","1","",""
"","feedback","","html-keyboard-response","185","321545","0.0-1.0-249.0-0.0","0","0","33732","","null","","","null","27","","","","","","","","","","","","","","","",""
"","ITI","","html-keyboard-response","186","322555","0.0-1.0-252.0","0","0","33732","","null","","","null","27","","","","","","","","","","","","","","","NaN",""
"","S1","","html-keyboard-response","187","322814","0.0-1.0-254.0","0","0","33732","","null","","","null","28","","","","","","","","","","","","","","","",""
"","ISI","","html-keyboard-response","188","322981","0.0-1.0-255.0","0","0","33732","","null","","","null","28","NaN","","","","","","","","","","","","","","",""
"","S2","","html-keyboard-response","189","323237","0.0-1.0-256.0","0","0","33732","","null","","","null","28","","NaN","","","","","","","","","","","","","",""
"","response","","html-keyboard-response","190","323375","0.0-1.0-257.0-0.0","0","0","33732","","137","","","75","28","","","1","28","training","adjacent","EF","5","6","R.jpg","O.jpg","0","1","0","",""
"","feedback","","html-keyboard-response","191","324378","0.0-1.0-258.0-0.0","0","0","33732","","null","","","null","28","","","","","","","","","","","","","","","",""
"","time_out","","html-keyboard-response","192","326386","0.0-1.0-260.0-0.0","0","0","33732","","null","","","null","28","","","","","","","","","","","","","","","",""
"","ITI","","html-keyboard-response","193","327390","0.0-1.0-261.0","0","0","33732","","null","","","null","28","","","","","","","","","","","","","","","NaN",""
"","S1","","html-keyboard-response","194","327645","0.0-1.0-263.0","0","0","33732","","null","","","null","29","","","","","","","","","","","","","","","",""
"","ISI","","html-keyboard-response","195","327803","0.0-1.0-264.0","0","0","33732","","null","","","null","29","NaN","","","","","","","","","","","","","","",""
"","S2","","html-keyboard-response","196","328068","0.0-1.0-265.0","0","0","33732","","null","","","null","29","","NaN","","","","","","","","","","","","","",""
"","response","","html-keyboard-response","197","328319","0.0-1.0-266.0-0.0","0","0","33732","","250","","","68","29","","","1","29","training","adjacent","DE","4","5","N.jpg","R.jpg","1","1","1","",""
"","feedback","","html-keyboard-response","198","329334","0.0-1.0-267.0-0.0","0","0","33732","","null","","","null","29","","","","","","","","","","","","","","","",""
"","ITI","","html-keyboard-response","199","330342","0.0-1.0-270.0","0","0","33732","","null","","","null","29","","","","","","","","","","","","","","","NaN",""
"","S1","","html-keyboard-response","200","330596","0.0-1.0-272.0","0","0","33732","","null","","","null","30","","","","","","","","","","","","","","","",""
"","ISI","","html-keyboard-response","201","330760","0.0-1.0-273.0","0","0","33732","","null","","","null","30","NaN","","","","","","","","","","","","","","",""
"","S2","","html-keyboard-response","202","331014","0.0-1.0-274.0","0","0","33732","","null","","","null","30","","NaN","","","","","","","","","","","","","",""
"","response","","html-keyboard-response","203","331358","0.0-1.0-275.0-0.0","0","0","33732","","343","","","68","30","","","1","30","training","adjacent","CD","3","4","L.jpg","N.jpg","1","1","1","",""
"","feedback","","html-keyboard-response","204","332366","0.0-1.0-276.0-0.0","0","0","33732","","null","","","null","30","","","","","","","","","","","","","","","",""
"","ITI","","html-keyboard-response","205","333374","0.0-1.0-279.0","0","0","33732","","null","","","null","30","","","","","","","","","","","","","","","NaN",""
"","S1","","html-keyboard-response","206","333631","0.0-1.0-281.0","0","0","33732","","null","","","null","31","","","","","","","","","","","","","","","",""
"","ISI","","html-keyboard-response","207","333795","0.0-1.0-282.0","0","0","33732","","null","","","null","31","NaN","","","","","","","","","","","","","","",""
"","S2","","html-keyboard-response","208","334055","0.0-1.0-283.0","0","0","33732","","null","","","null","31","","NaN","","","","","","","","","","","","","",""
"","response","","html-keyboard-response","209","334503","0.0-1.0-284.0-0.0","0","0","33732","","446","","","75","31","","","1","31","training","adjacent","DE","4","5","N.jpg","R.jpg","0","1","0","",""
"","feedback","","html-keyboard-response","210","335508","0.0-1.0-285.0-0.0","0","0","33732","","null","","","null","31","","","","","","","","","","","","","","","",""
"","time_out","","html-keyboard-response","211","337517","0.0-1.0-287.0-0.0","0","0","33732","","null","","","null","31","","","","","","","","","","","","","","","",""
"","ITI","","html-keyboard-response","212","338521","0.0-1.0-288.0","0","0","33732","","null","","","null","31","","","","","","","","","","","","","","","NaN",""
"","S1","","html-keyboard-response","213","338789","0.0-1.0-290.0","0","0","33732","","null","","","null","32","","","","","","","","","","","","","","","",""
"","ISI","","html-keyboard-response","214","338956","0.0-1.0-291.0","0","0","33732","","null","","","null","32","NaN","","","","","","","","","","","","","","",""
"","S2","","html-keyboard-response","215","339215","0.0-1.0-292.0","0","0","33732","","null","","","null","32","","NaN","","","","","","","","","","","","","",""
"","response","","html-keyboard-response","216","339250","0.0-1.0-293.0-0.0","0","0","33732","","34","","","68","32","","","1","32","training","adjacent","FE","6","5","O.jpg","R.jpg","1","0","0","",""
"","feedback","","html-keyboard-response","217","340258","0.0-1.0-294.0-0.0","0","0","33732","","null","","","null","32","","","","","","","","","","","","","","","",""
"","time_out","","html-keyboard-response","218","342267","0.0-1.0-296.0-0.0","0","0","33732","","null","","","null","32","","","","","","","","","","","","","","","",""
"","ITI","","html-keyboard-response","219","343272","0.0-1.0-297.0","0","0","33732","","null","","","null","32","","","","","","","","","","","","","","","NaN",""
"","S1","","html-keyboard-response","220","343535","0.0-1.0-299.0","0","0","33732","","null","","","null","33","","","","","","","","","","","","","","","",""
"","ISI","","html-keyboard-response","221","343692","0.0-1.0-300.0","0","0","33732","","null","","","null","33","NaN","","","","","","","","","","","","","","",""
"","S2","","html-keyboard-response","222","343946","0.0-1.0-301.0","0","0","33732","","null","","","null","33","","NaN","","","","","","","","","","","","","",""
"","response","","html-keyboard-response","223","344143","0.0-1.0-302.0-0.0","0","0","33732","","196","","","75","33","","","1","33","training","adjacent","ED","5","4","R.jpg","N.jpg","0","0","1","",""
"","feedback","","html-keyboard-response","224","345153","0.0-1.0-303.0-0.0","0","0","33732","","null","","","null","33","","","","","","","","","","","","","","","",""
"","ITI","","html-keyboard-response","225","346157","0.0-1.0-306.0","0","0","33732","","null","","","null","33","","","","","","","","","","","","","","","NaN",""
"","S1","","html-keyboard-response","226","346413","0.0-1.0-308.0","0","0","33732","","null","","","null","34","","","","","","","","","","","","","","","",""
"","ISI","","html-keyboard-response","227","346570","0.0-1.0-309.0","0","0","33732","","null","","","null","34","NaN","","","","","","","","","","","","","","",""
"","S2","","html-keyboard-response","228","346829","0.0-1.0-310.0","0","0","33732","","null","","","null","34","","NaN","","","","","","","","","","","","","",""
"","response","","html-keyboard-response","229","347280","0.0-1.0-311.0-0.0","0","0","33732","","449","","","68","34","","","1","34","training","adjacent","GF","7","6","M.jpg","O.jpg","1","0","0","",""
"","feedback","","html-keyboard-response","230","348288","0.0-1.0-312.0-0.0","0","0","33732","","null","","","null","34","","","","","","","","","","","","","","","",""
"","time_out","","html-keyboard-response","231","350293","0.0-1.0-314.0-0.0","0","0","33732","","null","","","null","34","","","","","","","","","","","","","","","",""
"","ITI","","html-keyboard-response","232","351301","0.0-1.0-315.0","0","0","33732","","null","","","null","34","","","","","","","","","","","","","","","NaN",""
"","S1","","html-keyboard-response","233","351559","0.0-1.0-317.0","0","0","33732","","null","","","null","35","","","","","","","","","","","","","","","",""
"","ISI","","html-keyboard-response","234","351725","0.0-1.0-318.0","0","0","33732","","null","","","null","35","NaN","","","","","","","","","","","","","","",""
"","S2","","html-keyboard-response","235","351984","0.0-1.0-319.0","0","0","33732","","null","","","null","35","","NaN","","","","","","","","","","","","","",""
"","response","","html-keyboard-response","236","352280","0.0-1.0-320.0-0.0","0","0","33732","","295","","","75","35","","","1","35","training","adjacent","DE","4","5","N.jpg","R.jpg","0","1","0","",""
"","feedback","","html-keyboard-response","237","353296","0.0-1.0-321.0-0.0","0","0","33732","","null","","","null","35","","","","","","","","","","","","","","","",""
"","time_out","","html-keyboard-response","238","355303","0.0-1.0-323.0-0.0","0","0","33732","","null","","","null","35","","","","","","","","","","","","","","","",""
"","ITI","","html-keyboard-response","239","356315","0.0-1.0-324.0","0","0","33732","","null","","","null","35","","","","","","","","","","","","","","","NaN",""
"","S1","","html-keyboard-response","240","356583","0.0-1.0-326.0","0","0","33732","","null","","","null","36","","","","","","","","","","","","","","","",""
"","ISI","","html-keyboard-response","241","356740","0.0-1.0-327.0","0","0","33732","","43","","","68","36","d","","","","","","","","","","","","","","",""
"","S2","","html-keyboard-response","242","356996","0.0-1.0-328.0","0","0","33732","","null","","","null","36","","NaN","","","","","","","","","","","","","",""
"","response","","html-keyboard-response","243","357113","0.0-1.0-329.0-0.0","0","0","33732","","115","","","68","36","","","1","36","training","adjacent","FG","6","7","O.jpg","M.jpg","1","1","1","",""
"","feedback","","html-keyboard-response","244","358125","0.0-1.0-330.0-0.0","0","0","33732","","null","","","null","36","","","","","","","","","","","","","","","",""
"","ITI","","html-keyboard-response","245","359143","0.0-1.0-333.0","0","0","33732","","null","","","null","36","","","","","","","","","","","","","","","NaN",""
"","S1","","html-keyboard-response","246","359403","0.0-1.0-335.0","0","0","33732","","null","","","null","37","","","","","","","","","","","","","","","",""
"","ISI","","html-keyboard-response","247","359563","0.0-1.0-336.0","0","0","33732","","null","","","null","37","NaN","","","","","","","","","","","","","","",""
"","S2","","html-keyboard-response","248","359817","0.0-1.0-337.0","0","0","33732","","null","","","null","37","","NaN","","","","","","","","","","","","","",""
"","response","","html-keyboard-response","249","361577","0.0-1.0-338.0-0.0","0","0","33732","","null","","","null","37","","","1","37","training","adjacent","CB","3","2","L.jpg","Q.jpg","NaN","0","0","",""
"","too_slow_prompt","","html-keyboard-response","250","362586","0.0-1.0-340.0-0.0","1","0","33732","","null","","","null","","","","","","","","","","","","","","","","",""
"","time_out","","html-keyboard-response","251","364595","0.0-1.0-341.0-0.0","0","0","33732","","null","","","null","37","","","","","","","","","","","","","","","",""
"","ITI","","html-keyboard-response","252","365600","0.0-1.0-342.0","0","0","33732","","null","","","null","37","","","","","","","","","","","","","","","NaN",""
"","S1","","html-keyboard-response","253","365858","0.0-1.0-344.0","0","0","33732","","null","","","null","38","","","","","","","","","","","","","","","",""
"","ISI","","html-keyboard-response","254","366018","0.0-1.0-345.0","0","0","33732","","null","","","null","38","NaN","","","","","","","","","","","","","","",""
"","S2","","html-keyboard-response","255","366271","0.0-1.0-346.0","0","0","33732","","null","","","null","38","","NaN","","","","","","","","","","","","","",""
"","response","","html-keyboard-response","256","366527","0.0-1.0-347.0-0.0","0","0","33732","","255","","","75","38","","","1","38","training","adjacent","EF","5","6","R.jpg","O.jpg","0","1","0","",""
"","feedback","","html-keyboard-response","257","367537","0.0-1.0-348.0-0.0","0","0","33732","","null","","","null","38","","","","","","","","","","","","","","","",""
"","time_out","","html-keyboard-response","258","369542","0.0-1.0-350.0-0.0","0","0","33732","","null","","","null","38","","","","","","","","","","","","","","","",""
"","ITI","","html-keyboard-response","259","370552","0.0-1.0-351.0","0","0","33732","","null","","","null","38","","","","","","","","","","","","","","","NaN",""
"","S1","","html-keyboard-response","260","370811","0.0-1.0-353.0","0","0","33732","","null","","","null","39","","","","","","","","","","","","","","","",""
"","ISI","","html-keyboard-response","261","370969","0.0-1.0-354.0","0","0","33732","","null","","","null","39","NaN","","","","","","","","","","","","","","",""
"","S2","","html-keyboard-response","262","371227","0.0-1.0-355.0","0","0","33732","","null","","","null","39","","NaN","","","","","","","","","","","","","",""
"","response","","html-keyboard-response","263","371447","0.0-1.0-356.0-0.0","0","0","33732","","219","","","68","39","","","1","39","training","adjacent","GF","7","6","M.jpg","O.jpg","1","0","0","",""
"","feedback","","html-keyboard-response","264","372455","0.0-1.0-357.0-0.0","0","0","33732","","null","","","null","39","","","","","","","","","","","","","","","",""
"","time_out","","html-keyboard-response","265","374459","0.0-1.0-359.0-0.0","0","0","33732","","null","","","null","39","","","","","","","","","","","","","","","",""
"","ITI","","html-keyboard-response","266","375463","0.0-1.0-360.0","0","0","33732","","null","","","null","39","","","","","","","","","","","","","","","NaN",""
"","S1","","html-keyboard-response","267","375732","0.0-1.0-362.0","0","0","33732","","null","","","null","40","","","","","","","","","","","","","","","",""
"","ISI","","html-keyboard-response","268","375891","0.0-1.0-363.0","0","0","33732","","null","","","null","40","NaN","","","","","","","","","","","","","","",""
"","S2","","html-keyboard-response","269","376149","0.0-1.0-364.0","0","0","33732","","null","","","null","40","","NaN","","","","","","","","","","","","","",""
"","response","","html-keyboard-response","270","376434","0.0-1.0-365.0-0.0","0","0","33732","","283","","","75","40","","","1","40","training","adjacent","CB","3","2","L.jpg","Q.jpg","0","0","1","",""
"","feedback","","html-keyboard-response","271","377438","0.0-1.0-366.0-0.0","0","0","33732","","null","","","null","40","","","","","","","","","","","","","","","",""
"","ITI","","html-keyboard-response","272","378444","0.0-1.0-369.0","0","0","33732","","null","","","null","40","","","","","","","","","","","","","","","NaN",""
"","S1","","html-keyboard-response","273","378705","0.0-1.0-371.0","0","0","33732","","null","","","null","41","","","","","","","","","","","","","","","",""
"","ISI","","html-keyboard-response","274","378872","0.0-1.0-372.0","0","0","33732","","null","","","null","41","NaN","","","","","","","","","","","","","","",""
"","S2","","html-keyboard-response","275","379128","0.0-1.0-373.0","0","0","33732","","null","","","null","41","","NaN","","","","","","","","","","","","","",""
"","response","","html-keyboard-response","276","379437","0.0-1.0-374.0-0.0","0","0","33732","","308","","","68","41","","","1","41","training","adjacent","BA","2","1","Q.jpg","P.jpg","1","0","0","",""
"","feedback","","html-keyboard-response","277","380448","0.0-1.0-375.0-0.0","0","0","33732","","null","","","null","41","","","","","","","","","","","","","","","",""
"","time_out","","html-keyboard-response","278","382458","0.0-1.0-377.0-0.0","0","0","33732","","null","","","null","41","","","","","","","","","","","","","","","",""
"","ITI","","html-keyboard-response","279","383463","0.0-1.0-378.0","0","0","33732","","null","","","null","41","","","","","","","","","","","","","","","NaN",""
"","S1","","html-keyboard-response","280","383720","0.0-1.0-380.0","0","0","33732","","null","","","null","42","","","","","","","","","","","","","","","",""
"","ISI","","html-keyboard-response","281","383878","0.0-1.0-381.0","0","0","33732","","null","","","null","42","NaN","","","","","","","","","","","","","","",""
"","S2","","html-keyboard-response","282","384132","0.0-1.0-382.0","0","0","33732","","null","","","null","42","","NaN","","","","","","","","","","","","","",""
"","response","","html-keyboard-response","283","384403","0.0-1.0-383.0-0.0","0","0","33732","","269","","","75","42","","","1","42","training","adjacent","AB","1","2","P.jpg","Q.jpg","0","1","0","",""
"","feedback","","html-keyboard-response","284","385407","0.0-1.0-384.0-0.0","0","0","33732","","null","","","null","42","","","","","","","","","","","","","","","",""
"","time_out","","html-keyboard-response","285","387418","0.0-1.0-386.0-0.0","0","0","33732","","null","","","null","42","","","","","","","","","","","","","","","",""
"","ITI","","html-keyboard-response","286","388424","0.0-1.0-387.0","0","0","33732","","null","","","null","42","","","","","","","","","","","","","","","NaN",""
"","S1","","html-keyboard-response","287","388683","0.0-1.0-389.0","0","0","33732","","null","","","null","43","","","","","","","","","","","","","","","",""
"","ISI","","html-keyboard-response","288","388841","0.0-1.0-390.0","0","0","33732","","null","","","null","43","NaN","","","","","","","","","","","","","","",""
"","S2","","html-keyboard-response","289","389108","0.0-1.0-391.0","0","0","33732","","null","","","null","43","","NaN","","","","","","","","","","","","","",""
"","response","","html-keyboard-response","290","389238","0.0-1.0-392.0-0.0","0","0","33732","","129","","","68","43","","","1","43","training","adjacent","BC","2","3","Q.jpg","L.jpg","1","1","1","",""
"","feedback","","html-keyboard-response","291","390244","0.0-1.0-393.0-0.0","0","0","33732","","null","","","null","43","","","","","","","","","","","","","","","",""
"","ITI","","html-keyboard-response","292","391253","0.0-1.0-396.0","0","0","33732","","null","","","null","43","","","","","","","","","","","","","","","NaN",""
"","S1","","html-keyboard-response","293","391507","0.0-1.0-398.0","0","0","33732","","null","","","null","44","","","","","","","","","","","","","","","",""
"","ISI","","html-keyboard-response","294","391668","0.0-1.0-399.0","0","0","33732","","null","","","null","44","NaN","","","","","","","","","","","","","","",""
"","S2","","html-keyboard-response","295","391922","0.0-1.0-400.0","0","0","33732","","null","","","null","44","","NaN","","","","","","","","","","","","","",""
"","response","","html-keyboard-response","296","392842","0.0-1.0-401.0-0.0","0","0","33732","","918","","","75","44","","","1","44","training","adjacent","DC","4","3","N.jpg","L.jpg","0","0","1","",""
"","feedback","","html-keyboard-response","297","393852","0.0-1.0-402.0-0.0","0","0","33732","","null","","","null","44","","","","","","","","","","","","","","","",""
"","ITI","","html-keyboard-response","298","394867","0.0-1.0-405.0","0","0","33732","","null","","","null","44","","","","","","","","","","","","","","","NaN",""
"","S1","","html-keyboard-response","299","395135","0.0-1.0-407.0","0","0","33732","","null","","","null","45","","","","","","","","","","","","","","","",""
"","ISI","","html-keyboard-response","300","395292","0.0-1.0-408.0","0","0","33732","","null","","","null","45","NaN","","","","","","","","","","","","","","",""
"","S2","","html-keyboard-response","301","395547","0.0-1.0-409.0","0","0","33732","","null","","","null","45","","NaN","","","","","","","","","","","","","",""
"","response","","html-keyboard-response","302","396086","0.0-1.0-410.0-0.0","0","0","33732","","539","","","68","45","","","1","45","training","adjacent","DE","4","5","N.jpg","R.jpg","1","1","1","",""
"","feedback","","html-keyboard-response","303","397093","0.0-1.0-411.0-0.0","0","0","33732","","null","","","null","45","","","","","","","","","","","","","","","",""
"","ITI","","html-keyboard-response","304","398105","0.0-1.0-414.0","0","0","33732","","null","","","null","45","","","","","","","","","","","","","","","NaN",""
"","S1","","html-keyboard-response","305","398363","0.0-1.0-416.0","0","0","33732","","null","","","null","46","","","","","","","","","","","","","","","",""
"","ISI","","html-keyboard-response","306","398517","0.0-1.0-417.0","0","0","33732","","null","","","null","46","NaN","","","","","","","","","","","","","","",""
"","S2","","html-keyboard-response","307","398773","0.0-1.0-418.0","0","0","33732","","null","","","null","46","","NaN","","","","","","","","","","","","","",""
"","response","","html-keyboard-response","308","399143","0.0-1.0-419.0-0.0","0","0","33732","","368","","","75","46","","","1","46","training","adjacent","FG","6","7","O.jpg","M.jpg","0","1","0","",""
"","feedback","","html-keyboard-response","309","400145","0.0-1.0-420.0-0.0","0","0","33732","","null","","","null","46","","","","","","","","","","","","","","","",""
"","time_out","","html-keyboard-response","310","402152","0.0-1.0-422.0-0.0","0","0","33732","","null","","","null","46","","","","","","","","","","","","","","","",""
"","ITI","","html-keyboard-response","311","403162","0.0-1.0-423.0","0","0","33732","","null","","","null","46","","","","","","","","","","","","","","","NaN",""
"","S1","","html-keyboard-response","312","403422","0.0-1.0-425.0","0","0","33732","","null","","","null","47","","","","","","","","","","","","","","","",""
"","ISI","","html-keyboard-response","313","403580","0.0-1.0-426.0","0","0","33732","","null","","","null","47","NaN","","","","","","","","","","","","","","",""
"","S2","","html-keyboard-response","314","403842","0.0-1.0-427.0","0","0","33732","","null","","","null","47","","NaN","","","","","","","","","","","","","",""
"","response","","html-keyboard-response","315","404154","0.0-1.0-428.0-0.0","0","0","33732","","310","","","68","47","","","1","47","training","adjacent","DC","4","3","N.jpg","L.jpg","1","0","0","",""
"","feedback","","html-keyboard-response","316","405163","0.0-1.0-429.0-0.0","0","0","33732","","null","","","null","47","","","","","","","","","","","","","","","",""
"","time_out","","html-keyboard-response","317","407167","0.0-1.0-431.0-0.0","0","0","33732","","null","","","null","47","","","","","","","","","","","","","","","",""
"","ITI","","html-keyboard-response","318","408172","0.0-1.0-432.0","0","0","33732","","null","","","null","47","","","","","","","","","","","","","","","NaN",""
"","block_over","","html-keyboard-response","319","416082","0.0-1.0-433.0-0.0","0","0","33732","","7908","","","32","47","","","","","","","","","","","","","","","",""
"","S1","","html-keyboard-response","320","416341","0.0-1.0-434.0","0","0","33732","","null","","","null","48","","","","","","","","","","","","","","","",""
"","ISI","","html-keyboard-response","321","416500","0.0-1.0-435.0","0","0","33732","","null","","","null","48","NaN","","","","","","","","","","","","","","",""
"","S2","","html-keyboard-response","322","416766","0.0-1.0-436.0","0","0","33732","","null","","","null","48","","NaN","","","","","","","","","","","","","",""
"","response","","html-keyboard-response","323","417192","0.0-1.0-437.0-0.0","0","0","33732","","425","","","75","48","","","2","48","training","adjacent","FG","6","7","O.jpg","M.jpg","0","1","0","",""
"","feedback","","html-keyboard-response","324","418210","0.0-1.0-438.0-0.0","0","0","33732","","null","","","null","48","","","","","","","","","","","","","","","",""
"","time_out","","html-keyboard-response","325","420212","0.0-1.0-440.0-0.0","0","0","33732","","null","","","null","48","","","","","","","","","","","","","","","",""
"","ITI","","html-keyboard-response","326","421216","0.0-1.0-441.0","0","0","33732","","null","","","null","48","","","","","","","","","","","","","","","NaN",""
"","S1","","html-keyboard-response","327","421477","0.0-1.0-443.0","0","0","33732","","null","","","null","49","","","","","","","","","","","","","","","",""
"","ISI","","html-keyboard-response","328","421644","0.0-1.0-444.0","0","0","33732","","null","","","null","49","NaN","","","","","","","","","","","","","","",""
"","S2","","html-keyboard-response","329","421902","0.0-1.0-445.0","0","0","33732","","null","","","null","49","","NaN","","","","","","","","","","","","","",""
"","response","","html-keyboard-response","330","421944","0.0-1.0-446.0-0.0","0","0","33732","","40","","","75","49","","","2","49","training","adjacent","FE","6","5","O.jpg","R.jpg","0","0","1","",""
"","feedback","","html-keyboard-response","331","422949","0.0-1.0-447.0-0.0","0","0","33732","","null","","","null","49","","","","","","","","","","","","","","","",""
"","ITI","","html-keyboard-response","332","423954","0.0-1.0-450.0","0","0","33732","","null","","","null","49","","","","","","","","","","","","","","","NaN",""
"","S1","","html-keyboard-response","333","424207","0.0-1.0-452.0","0","0","33732","","null","","","null","50","","","","","","","","","","","","","","","",""
"","ISI","","html-keyboard-response","334","424375","0.0-1.0-453.0","0","0","33732","","null","","","null","50","NaN","","","","","","","","","","","","","","",""
"","S2","","html-keyboard-response","335","424635","0.0-1.0-454.0","0","0","33732","","null","","","null","50","","NaN","","","","","","","","","","","","","",""
"","response","","html-keyboard-response","336","424780","0.0-1.0-455.0-0.0","0","0","33732","","143","","","68","50","","","2","50","training","adjacent","DE","4","5","N.jpg","R.jpg","1","1","1","",""
"","feedback","","html-keyboard-response","337","425788","0.0-1.0-456.0-0.0","0","0","33732","","null","","","null","50","","","","","","","","","","","","","","","",""
"","ITI","","html-keyboard-response","338","426798","0.0-1.0-459.0","0","0","33732","","null","","","null","50","","","","","","","","","","","","","","","NaN",""
"","S1","","html-keyboard-response","339","427064","0.0-1.0-461.0","0","0","33732","","null","","","null","51","","","","","","","","","","","","","","","",""
"","ISI","","html-keyboard-response","340","427217","0.0-1.0-462.0","0","0","33732","","null","","","null","51","NaN","","","","","","","","","","","","","","",""
"","S2","","html-keyboard-response","341","427484","0.0-1.0-463.0","0","0","33732","","null","","","null","51","","NaN","","","","","","","","","","","","","",""
"","response","","html-keyboard-response","342","427973","0.0-1.0-464.0-0.0","0","0","33732","","487","","","68","51","","","2","51","training","adjacent","AB","1","2","P.jpg","Q.jpg","1","1","1","",""
"","feedback","","html-keyboard-response","343","428976","0.0-1.0-465.0-0.0","0","0","33732","","null","","","null","51","","","","","","","","","","","","","","","",""
"","ITI","","html-keyboard-response","344","429982","0.0-1.0-468.0","0","0","33732","","null","","","null","51","","","","","","","","","","","","","","","NaN",""
"","S1","","html-keyboard-response","345","430241","0.0-1.0-470.0","0","0","33732","","null","","","null","52","","","","","","","","","","","","","","","",""
"","ISI","","html-keyboard-response","346","430398","0.0-1.0-471.0","0","0","33732","","null","","","null","52","NaN","","","","","","","","","","","","","","",""
"","S2","","html-keyboard-response","347","430659","0.0-1.0-472.0","0","0","33732","","null","","","null","52","","NaN","","","","","","","","","","","","","",""
"","response","","html-keyboard-response","348","430932","0.0-1.0-473.0-0.0","0","0","33732","","272","","","68","52","","","2","52","training","adjacent","BA","2","1","Q.jpg","P.jpg","1","0","0","",""
"","feedback","","html-keyboard-response","349","431935","0.0-1.0-474.0-0.0","0","0","33732","","null","","","null","52","","","","","","","","","","","","","","","",""
"","time_out","","html-keyboard-response","350","433938","0.0-1.0-476.0-0.0","0","0","33732","","null","","","null","52","","","","","","","","","","","","","","","",""
"","ITI","","html-keyboard-response","351","434945","0.0-1.0-477.0","0","0","33732","","null","","","null","52","","","","","","","","","","","","","","","NaN",""
"","S1","","html-keyboard-response","352","435204","0.0-1.0-479.0","0","0","33732","","null","","","null","53","","","","","","","","","","","","","","","",""
"","ISI","","html-keyboard-response","353","435357","0.0-1.0-480.0","0","0","33732","","null","","","null","53","NaN","","","","","","","","","","","","","","",""
"","S2","","html-keyboard-response","354","435625","0.0-1.0-481.0","0","0","33732","","null","","","null","53","","NaN","","","","","","","","","","","","","",""
"","response","","html-keyboard-response","355","435640","0.0-1.0-482.0-0.0","0","0","33732","","13","","","68","53","","","2","53","training","adjacent","EF","5","6","R.jpg","O.jpg","1","1","1","",""
"","feedback","","html-keyboard-response","356","436648","0.0-1.0-483.0-0.0","0","0","33732","","null","","","null","53","","","","","","","","","","","","","","","",""
"","ITI","","html-keyboard-response","357","437652","0.0-1.0-486.0","0","0","33732","","null","","","null","53","","","","","","","","","","","","","","","NaN",""
"","S1","","html-keyboard-response","358","437917","0.0-1.0-488.0","0","0","33732","","null","","","null","54","","","","","","","","","","","","","","","",""
"","ISI","","html-keyboard-response","359","438075","0.0-1.0-489.0","0","0","33732","","null","","","null","54","NaN","","","","","","","","","","","","","","",""
"","S2","","html-keyboard-response","360","438330","0.0-1.0-490.0","0","0","33732","","null","","","null","54","","NaN","","","","","","","","","","","","","",""
"","response","","html-keyboard-response","361","438475","0.0-1.0-491.0-0.0","0","0","33732","","144","","","75","54","","","2","54","training","adjacent","GF","7","6","M.jpg","O.jpg","0","0","1","",""
"","feedback","","html-keyboard-response","362","439492","0.0-1.0-492.0-0.0","0","0","33732","","null","","","null","54","","","","","","","","","","","","","","","",""
"","ITI","","html-keyboard-response","363","440501","0.0-1.0-495.0","0","0","33732","","null","","","null","54","","","","","","","","","","","","","","","NaN",""
"","S1","","html-keyboard-response","364","440762","0.0-1.0-497.0","0","0","33732","","null","","","null","55","","","","","","","","","","","","","","","",""
"","ISI","","html-keyboard-response","365","440920","0.0-1.0-498.0","0","0","33732","","null","","","null","55","NaN","","","","","","","","","","","","","","",""
"","S2","","html-keyboard-response","366","441179","0.0-1.0-499.0","0","0","33732","","null","","","null","55","","NaN","","","","","","","","","","","","","",""
"","response","","html-keyboard-response","367","441468","0.0-1.0-500.0-0.0","0","0","33732","","287","","","75","55","","","2","55","training","adjacent","EF","5","6","R.jpg","O.jpg","0","1","0","",""
"","feedback","","html-keyboard-response","368","442476","0.0-1.0-501.0-0.0","0","0","33732","","null","","","null","55","","","","","","","","","","","","","","","",""
"","time_out","","html-keyboard-response","369","444486","0.0-1.0-503.0-0.0","0","0","33732","","null","","","null","55","","","","","","","","","","","","","","","",""
"","ITI","","html-keyboard-response","370","445494","0.0-1.0-504.0","0","0","33732","","null","","","null","55","","","","","","","","","","","","","","","NaN",""
"","S1","","html-keyboard-response","371","445754","0.0-1.0-506.0","0","0","33732","","null","","","null","56","","","","","","","","","","","","","","","",""
"","ISI","","html-keyboard-response","372","445906","0.0-1.0-507.0","0","0","33732","","null","","","null","56","NaN","","","","","","","","","","","","","","",""
"","S2","","html-keyboard-response","373","446165","0.0-1.0-508.0","0","0","33732","","null","","","null","56","","NaN","","","","","","","","","","","","","",""
"","response","","html-keyboard-response","374","446345","0.0-1.0-509.0-0.0","0","0","33732","","178","","","68","56","","","2","56","training","adjacent","CB","3","2","L.jpg","Q.jpg","1","0","0","",""
"","feedback","","html-keyboard-response","375","447350","0.0-1.0-510.0-0.0","0","0","33732","","null","","","null","56","","","","","","","","","","","","","","","",""
"","time_out","","html-keyboard-response","376","449357","0.0-1.0-512.0-0.0","0","0","33732","","null","","","null","56","","","","","","","","","","","","","","","",""
"","ITI","","html-keyboard-response","377","450365","0.0-1.0-513.0","0","0","33732","","null","","","null","56","","","","","","","","","","","","","","","NaN",""
"","S1","","html-keyboard-response","378","450618","0.0-1.0-515.0","0","0","33732","","null","","","null","57","","","","","","","","","","","","","","","",""
"","ISI","","html-keyboard-response","379","450785","0.0-1.0-516.0","0","0","33732","","null","","","null","57","NaN","","","","","","","","","","","","","","",""
"","S2","","html-keyboard-response","380","451043","0.0-1.0-517.0","0","0","33732","","null","","","null","57","","NaN","","","","","","","","","","","","","",""
"","response","","html-keyboard-response","381","451382","0.0-1.0-518.0-0.0","0","0","33732","","338","","","75","57","","","2","57","training","adjacent","ED","5","4","R.jpg","N.jpg","0","0","1","",""
"","feedback","","html-keyboard-response","382","452386","0.0-1.0-519.0-0.0","0","0","33732","","null","","","null","57","","","","","","","","","","","","","","","",""
"","ITI","","html-keyboard-response","383","453391","0.0-1.0-522.0","0","0","33732","","null","","","null","57","","","","","","","","","","","","","","","NaN",""
"","S1","","html-keyboard-response","384","453652","0.0-1.0-524.0","0","0","33732","","null","","","null","58","","","","","","","","","","","","","","","",""
"","ISI","","html-keyboard-response","385","453812","0.0-1.0-525.0","0","0","33732","","null","","","null","58","NaN","","","","","","","","","","","","","","",""
"","S2","","html-keyboard-response","386","454065","0.0-1.0-526.0","0","0","33732","","null","","","null","58","","NaN","","","","","","","","","","","","","",""
"","response","","html-keyboard-response","387","454563","0.0-1.0-527.0-0.0","0","0","33732","","497","","","75","58","","","2","58","training","adjacent","AB","1","2","P.jpg","Q.jpg","0","1","0","",""
"","feedback","","html-keyboard-response","388","455569","0.0-1.0-528.0-0.0","0","0","33732","","null","","","null","58","","","","","","","","","","","","","","","",""
"","time_out","","html-keyboard-response","389","457575","0.0-1.0-530.0-0.0","0","0","33732","","null","","","null","58","","","","","","","","","","","","","","","",""
"","ITI","","html-keyboard-response","390","458588","0.0-1.0-531.0","0","0","33732","","null","","","null","58","","","","","","","","","","","","","","","NaN",""
"","S1","","html-keyboard-response","391","458841","0.0-1.0-533.0","0","0","33732","","null","","","null","59","","","","","","","","","","","","","","","",""
"","ISI","","html-keyboard-response","392","459001","0.0-1.0-534.0","0","0","33732","","null","","","null","59","NaN","","","","","","","","","","","","","","",""
"","S2","","html-keyboard-response","393","459259","0.0-1.0-535.0","0","0","33732","","null","","","null","59","","NaN","","","","","","","","","","","","","",""
"","response","","html-keyboard-response","394","459460","0.0-1.0-536.0-0.0","0","0","33732","","201","","","68","59","","","2","59","training","adjacent","FG","6","7","O.jpg","M.jpg","1","1","1","",""
"","feedback","","html-keyboard-response","395","460473","0.0-1.0-537.0-0.0","0","0","33732","","null","","","null","59","","","","","","","","","","","","","","","",""
"","ITI","","html-keyboard-response","396","461480","0.0-1.0-540.0","0","0","33732","","null","","","null","59","","","","","","","","","","","","","","","NaN",""
"","S1","","html-keyboard-response","397","461748","0.0-1.0-542.0","0","0","33732","","null","","","null","60","","","","","","","","","","","","","","","",""
"","ISI","","html-keyboard-response","398","461906","0.0-1.0-543.0","0","0","33732","","null","","","null","60","NaN","","","","","","","","","","","","","","",""
"","S2","","html-keyboard-response","399","462166","0.0-1.0-544.0","0","0","33732","","null","","","null","60","","NaN","","","","","","","","","","","","","",""
"","response","","html-keyboard-response","400","462798","0.0-1.0-545.0-0.0","0","0","33732","","630","","","75","60","","","2","60","training","adjacent","CB","3","2","L.jpg","Q.jpg","0","0","1","",""
"","feedback","","html-keyboard-response","401","463802","0.0-1.0-546.0-0.0","0","0","33732","","null","","","null","60","","","","","","","","","","","","","","","",""
"","ITI","","html-keyboard-response","402","464805","0.0-1.0-549.0","0","0","33732","","null","","","null","60","","","","","","","","","","","","","","","NaN",""
"","S1","","html-keyboard-response","403","465058","0.0-1.0-551.0","0","0","33732","","null","","","null","61","","","","","","","","","","","","","","","",""
"","ISI","","html-keyboard-response","404","465215","0.0-1.0-552.0","0","0","33732","","null","","","null","61","NaN","","","","","","","","","","","","","","",""
"","S2","","html-keyboard-response","405","465475","0.0-1.0-553.0","0","0","33732","","null","","","null","61","","NaN","","","","","","","","","","","","","",""
"","response","","html-keyboard-response","406","465763","0.0-1.0-554.0-0.0","0","0","33732","","287","","","68","61","","","2","61","training","adjacent","ED","5","4","R.jpg","N.jpg","1","0","0","",""
"","feedback","","html-keyboard-response","407","466766","0.0-1.0-555.0-0.0","0","0","33732","","null","","","null","61","","","","","","","","","","","","","","","",""
"","time_out","","html-keyboard-response","408","468771","0.0-1.0-557.0-0.0","0","0","33732","","null","","","null","61","","","","","","","","","","","","","","","",""
"","ITI","","html-keyboard-response","409","469776","0.0-1.0-558.0","0","0","33732","","null","","","null","61","","","","","","","","","","","","","","","NaN",""
"","S1","","html-keyboard-response","410","470039","0.0-1.0-560.0","0","0","33732","","null","","","null","62","","","","","","","","","","","","","","","",""
"","ISI","","html-keyboard-response","411","470197","0.0-1.0-561.0","0","0","33732","","null","","","null","62","NaN","","","","","","","","","","","","","","",""
"","S2","","html-keyboard-response","412","470457","0.0-1.0-562.0","0","0","33732","","null","","","null","62","","NaN","","","","","","","","","","","","","",""
"","response","","html-keyboard-response","413","470744","0.0-1.0-563.0-0.0","0","0","33732","","285","","","75","62","","","2","62","training","adjacent","EF","5","6","R.jpg","O.jpg","0","1","0","",""
"","feedback","","html-keyboard-response","414","471749","0.0-1.0-564.0-0.0","0","0","33732","","null","","","null","62","","","","","","","","","","","","","","","",""
"","time_out","","html-keyboard-response","415","473754","0.0-1.0-566.0-0.0","0","0","33732","","null","","","null","62","","","","","","","","","","","","","","","",""
"","ITI","","html-keyboard-response","416","474765","0.0-1.0-567.0","0","0","33732","","null","","","null","62","","","","","","","","","","","","","","","NaN",""
"","S1","","html-keyboard-response","417","475024","0.0-1.0-569.0","0","0","33732","","null","","","null","63","","","","","","","","","","","","","","","",""
"","ISI","","html-keyboard-response","418","475182","0.0-1.0-570.0","0","0","33732","","null","","","null","63","NaN","","","","","","","","","","","","","","",""
"","S2","","html-keyboard-response","419","475436","0.0-1.0-571.0","0","0","33732","","null","","","null","63","","NaN","","","","","","","","","","","","","",""
"","response","","html-keyboard-response","420","475527","0.0-1.0-572.0-0.0","0","0","33732","","89","","","68","63","","","2","63","training","adjacent","DC","4","3","N.jpg","L.jpg","1","0","0","",""
"","feedback","","html-keyboard-response","421","476536","0.0-1.0-573.0-0.0","0","0","33732","","null","","","null","63","","","","","","","","","","","","","","","",""
"","time_out","","html-keyboard-response","422","478545","0.0-1.0-575.0-0.0","0","0","33732","","null","","","null","63","","","","","","","","","","","","","","","",""
"","ITI","","html-keyboard-response","423","479554","0.0-1.0-576.0","0","0","33732","","null","","","null","63","","","","","","","","","","","","","","","NaN",""
"","S1","","html-keyboard-response","424","479813","0.0-1.0-578.0","0","0","33732","","null","","","null","64","","","","","","","","","","","","","","","",""
"","ISI","","html-keyboard-response","425","479980","0.0-1.0-579.0","0","0","33732","","null","","","null","64","NaN","","","","","","","","","","","","","","",""
"","S2","","html-keyboard-response","426","480239","0.0-1.0-580.0","0","0","33732","","null","","","null","64","","NaN","","","","","","","","","","","","","",""
"","response","","html-keyboard-response","427","480241","0.0-1.0-581.0-0.0","0","0","33732","","1","","","75","64","","","2","64","training","adjacent","DE","4","5","N.jpg","R.jpg","0","1","0","",""
"","feedback","","html-keyboard-response","428","481252","0.0-1.0-582.0-0.0","0","0","33732","","null","","","null","64","","","","","","","","","","","","","","","",""
"","time_out","","html-keyboard-response","429","483263","0.0-1.0-584.0-0.0","0","0","33732","","null","","","null","64","","","","","","","","","","","","","","","",""
"","ITI","","html-keyboard-response","430","484273","0.0-1.0-585.0","0","0","33732","","null","","","null","64","","","","","","","","","","","","","","","NaN",""
"","S1","","html-keyboard-response","431","484533","0.0-1.0-587.0","0","0","33732","","null","","","null","65","","","","","","","","","","","","","","","",""
"","ISI","","html-keyboard-response","432","484692","0.0-1.0-588.0","0","0","33732","","null","","","null","65","NaN","","","","","","","","","","","","","","",""
"","S2","","html-keyboard-response","433","484953","0.0-1.0-589.0","0","0","33732","","null","","","null","65","","NaN","","","","","","","","","","","","","",""
"","response","","html-keyboard-response","434","485404","0.0-1.0-590.0-0.0","0","0","33732","","450","","","68","65","","","2","65","training","adjacent","FG","6","7","O.jpg","M.jpg","1","1","1","",""
"","feedback","","html-keyboard-response","435","486409","0.0-1.0-591.0-0.0","0","0","33732","","null","","","null","65","","","","","","","","","","","","","","","",""
"","ITI","","html-keyboard-response","436","487415","0.0-1.0-594.0","0","0","33732","","null","","","null","65","","","","","","","","","","","","","","","NaN",""
"","S1","","html-keyboard-response","437","487671","0.0-1.0-596.0","0","0","33732","","null","","","null","66","","","","","","","","","","","","","","","",""
"","ISI","","html-keyboard-response","438","487829","0.0-1.0-597.0","0","0","33732","","null","","","null","66","NaN","","","","","","","","","","","","","","",""
"","S2","","html-keyboard-response","439","488081","0.0-1.0-598.0","0","0","33732","","null","","","null","66","","NaN","","","","","","","","","","","","","",""
"","response","","html-keyboard-response","440","488478","0.0-1.0-599.0-0.0","0","0","33732","","396","","","75","66","","","2","66","training","adjacent","EF","5","6","R.jpg","O.jpg","0","1","0","",""
"","feedback","","html-keyboard-response","441","489485","0.0-1.0-600.0-0.0","0","0","33732","","null","","","null","66","","","","","","","","","","","","","","","",""
"","time_out","","html-keyboard-response","442","491497","0.0-1.0-602.0-0.0","0","0","33732","","null","","","null","66","","","","","","","","","","","","","","","",""
"","ITI","","html-keyboard-response","443","492500","0.0-1.0-603.0","0","0","33732","","null","","","null","66","","","","","","","","","","","","","","","NaN",""
"","S1","","html-keyboard-response","444","492766","0.0-1.0-605.0","0","0","33732","","null","","","null","67","","","","","","","","","","","","","","","",""
"","ISI","","html-keyboard-response","445","492922","0.0-1.0-606.0","0","0","33732","","null","","","null","67","NaN","","","","","","","","","","","","","","",""
"","S2","","html-keyboard-response","446","493190","0.0-1.0-607.0","0","0","33732","","null","","","null","67","","NaN","","","","","","","","","","","","","",""
"","response","","html-keyboard-response","447","493477","0.0-1.0-608.0-0.0","0","0","33732","","285","","","68","67","","","2","67","training","adjacent","BC","2","3","Q.jpg","L.jpg","1","1","1","",""
"","feedback","","html-keyboard-response","448","494487","0.0-1.0-609.0-0.0","0","0","33732","","null","","","null","67","","","","","","","","","","","","","","","",""
"","ITI","","html-keyboard-response","449","495496","0.0-1.0-612.0","0","0","33732","","null","","","null","67","","","","","","","","","","","","","","","NaN",""
"","S1","","html-keyboard-response","450","495757","0.0-1.0-614.0","0","0","33732","","null","","","null","68","","","","","","","","","","","","","","","",""
"","ISI","","html-keyboard-response","451","495916","0.0-1.0-615.0","0","0","33732","","null","","","null","68","NaN","","","","","","","","","","","","","","",""
"","S2","","html-keyboard-response","452","496178","0.0-1.0-616.0","0","0","33732","","null","","","null","68","","NaN","","","","","","","","","","","","","",""
"","response","","html-keyboard-response","453","496385","0.0-1.0-617.0-0.0","0","0","33732","","205","","","75","68","","","2","68","training","adjacent","GF","7","6","M.jpg","O.jpg","0","0","1","",""
"","feedback","","html-keyboard-response","454","497394","0.0-1.0-618.0-0.0","0","0","33732","","null","","","null","68","","","","","","","","","","","","","","","",""
"","ITI","","html-keyboard-response","455","498397","0.0-1.0-621.0","0","0","33732","","null","","","null","68","","","","","","","","","","","","","","","NaN",""
"","S1","","html-keyboard-response","456","498657","0.0-1.0-623.0","0","0","33732","","null","","","null","69","","","","","","","","","","","","","","","",""
"","ISI","","html-keyboard-response","457","498815","0.0-1.0-624.0","0","0","33732","","null","","","null","69","NaN","","","","","","","","","","","","","","",""
"","S2","","html-keyboard-response","458","499069","0.0-1.0-625.0","0","0","33732","","null","","","null","69","","NaN","","","","","","","","","","","","","",""
"","response","","html-keyboard-response","459","499382","0.0-1.0-626.0-0.0","0","0","33732","","312","","","75","69","","","2","69","training","adjacent","DE","4","5","N.jpg","R.jpg","0","1","0","",""
"","feedback","","html-keyboard-response","460","500389","0.0-1.0-627.0-0.0","0","0","33732","","null","","","null","69","","","","","","","","","","","","","","","",""
"","time_out","","html-keyboard-response","461","502392","0.0-1.0-629.0-0.0","0","0","33732","","null","","","null","69","","","","","","","","","","","","","","","",""
"","ITI","","html-keyboard-response","462","503399","0.0-1.0-630.0","0","0","33732","","null","","","null","69","","","","","","","","","","","","","","","NaN",""
"","S1","","html-keyboard-response","463","503658","0.0-1.0-632.0","0","0","33732","","null","","","null","70","","","","","","","","","","","","","","","",""
"","ISI","","html-keyboard-response","464","503814","0.0-1.0-633.0","0","0","33732","","null","","","null","70","NaN","","","","","","","","","","","","","","",""
"","S2","","html-keyboard-response","465","504074","0.0-1.0-634.0","0","0","33732","","null","","","null","70","","NaN","","","","","","","","","","","","","",""
"","response","","html-keyboard-response","466","504166","0.0-1.0-635.0-0.0","0","0","33732","","92","","","75","70","","","2","70","training","adjacent","ED","5","4","R.jpg","N.jpg","0","0","1","",""
"","feedback","","html-keyboard-response","467","505172","0.0-1.0-636.0-0.0","0","0","33732","","null","","","null","70","","","","","","","","","","","","","","","",""
"","ITI","","html-keyboard-response","468","506190","0.0-1.0-639.0","0","0","33732","","null","","","null","70","","","","","","","","","","","","","","","NaN",""
"","S1","","html-keyboard-response","469","506448","0.0-1.0-641.0","0","0","33732","","null","","","null","71","","","","","","","","","","","","","","","",""
"","ISI","","html-keyboard-response","470","506607","0.0-1.0-642.0","0","0","33732","","null","","","null","71","NaN","","","","","","","","","","","","","","",""
"","S2","","html-keyboard-response","471","506868","0.0-1.0-643.0","0","0","33732","","null","","","null","71","","NaN","","","","","","","","","","","","","",""
"","response","","html-keyboard-response","472","507210","0.0-1.0-644.0-0.0","0","0","33732","","341","","","68","71","","","2","71","training","adjacent","FE","6","5","O.jpg","R.jpg","1","0","0","",""
"","feedback","","html-keyboard-response","473","508213","0.0-1.0-645.0-0.0","0","0","33732","","null","","","null","71","","","","","","","","","","","","","","","",""
"","time_out","","html-keyboard-response","474","510221","0.0-1.0-647.0-0.0","0","0","33732","","null","","","null","71","","","","","","","","","","","","","","","",""
"","ITI","","html-keyboard-response","475","511225","0.0-1.0-648.0","0","0","33732","","null","","","null","71","","","","","","","","","","","","","","","NaN",""
"","S1","","html-keyboard-response","476","511484","0.0-1.0-650.0","0","0","33732","","null","","","null","72","","","","","","","","","","","","","","","",""
"","ISI","","html-keyboard-response","477","511651","0.0-1.0-651.0","0","0","33732","","null","","","null","72","NaN","","","","","","","","","","","","","","",""
"","S2","","html-keyboard-response","478","511908","0.0-1.0-652.0","0","0","33732","","null","","","null","72","","NaN","","","","","","","","","","","","","",""
"","response","","html-keyboard-response","479","512002","0.0-1.0-653.0-0.0","0","0","33732","","92","","","68","72","","","2","72","training","adjacent","DC","4","3","N.jpg","L.jpg","1","0","0","",""
"","feedback","","html-keyboard-response","480","513005","0.0-1.0-654.0-0.0","0","0","33732","","null","","","null","72","","","","","","","","","","","","","","","",""
"","time_out","","html-keyboard-response","481","515018","0.0-1.0-656.0-0.0","0","0","33732","","null","","","null","72","","","","","","","","","","","","","","","",""
"","ITI","","html-keyboard-response","482","516021","0.0-1.0-657.0","0","0","33732","","null","","","null","72","","","","","","","","","","","","","","","NaN",""
"","S1","","html-keyboard-response","483","516275","0.0-1.0-659.0","0","0","33732","","null","","","null","73","","","","","","","","","","","","","","","",""
"","ISI","","html-keyboard-response","484","516442","0.0-1.0-660.0","0","0","33732","","null","","","null","73","NaN","","","","","","","","","","","","","","",""
"","S2","","html-keyboard-response","485","516702","0.0-1.0-661.0","0","0","33732","","null","","","null","73","","NaN","","","","","","","","","","","","","",""
"","response","","html-keyboard-response","486","516745","0.0-1.0-662.0-0.0","0","0","33732","","41","","","75","73","","","2","73","training","adjacent","FG","6","7","O.jpg","M.jpg","0","1","0","",""
"","feedback","","html-keyboard-response","487","517748","0.0-1.0-663.0-0.0","0","0","33732","","null","","","null","73","","","","","","","","","","","","","","","",""
"","time_out","","html-keyboard-response","488","519755","0.0-1.0-665.0-0.0","0","0","33732","","null","","","null","73","","","","","","","","","","","","","","","",""
"","ITI","","html-keyboard-response","489","520758","0.0-1.0-666.0","0","0","33732","","null","","","null","73","","","","","","","","","","","","","","","NaN",""
"","S1","","html-keyboard-response","490","521018","0.0-1.0-668.0","0","0","33732","","null","","","null","74","","","","","","","","","","","","","","","",""
"","ISI","","html-keyboard-response","491","521178","0.0-1.0-669.0","0","0","33732","","null","","","null","74","NaN","","","","","","","","","","","","","","",""
"","S2","","html-keyboard-response","492","521445","0.0-1.0-670.0","0","0","33732","","null","","","null","74","","NaN","","","","","","","","","","","","","",""
"","response","","html-keyboard-response","493","521716","0.0-1.0-671.0-0.0","0","0","33732","","270","","","75","74","","","2","74","training","adjacent","AB","1","2","P.jpg","Q.jpg","0","1","0","",""
"","feedback","","html-keyboard-response","494","522719","0.0-1.0-672.0-0.0","0","0","33732","","null","","","null","74","","","","","","","","","","","","","","","",""
"","time_out","","html-keyboard-response","495","524728","0.0-1.0-674.0-0.0","0","0","33732","","null","","","null","74","","","","","","","","","","","","","","","",""
"","ITI","","html-keyboard-response","496","525735","0.0-1.0-675.0","0","0","33732","","null","","","null","74","","","","","","","","","","","","","","","NaN",""
"","S1","","html-keyboard-response","497","525995","0.0-1.0-677.0","0","0","33732","","null","","","null","75","","","","","","","","","","","","","","","",""
"","ISI","","html-keyboard-response","498","526152","0.0-1.0-678.0","0","0","33732","","null","","","null","75","NaN","","","","","","","","","","","","","","",""
"","S2","","html-keyboard-response","499","526415","0.0-1.0-679.0","0","0","33732","","null","","","null","75","","NaN","","","","","","","","","","","","","",""
"","response","","html-keyboard-response","500","526628","0.0-1.0-680.0-0.0","0","0","33732","","212","","","75","75","","","2","75","training","adjacent","BA","2","1","Q.jpg","P.jpg","0","0","1","",""
"","feedback","","html-keyboard-response","501","527630","0.0-1.0-681.0-0.0","0","0","33732","","null","","","null","75","","","","","","","","","","","","","","","",""
"","ITI","","html-keyboard-response","502","528633","0.0-1.0-684.0","0","0","33732","","null","","","null","75","","","","","","","","","","","","","","","NaN",""
"","S1","","html-keyboard-response","503","528893","0.0-1.0-686.0","0","0","33732","","null","","","null","76","","","","","","","","","","","","","","","",""
"","ISI","","html-keyboard-response","504","529050","0.0-1.0-687.0","0","0","33732","","null","","","null","76","NaN","","","","","","","","","","","","","","",""
"","S2","","html-keyboard-response","505","529303","0.0-1.0-688.0","0","0","33732","","null","","","null","76","","NaN","","","","","","","","","","","","","",""
"","response","","html-keyboard-response","506","529978","0.0-1.0-689.0-0.0","0","0","33732","","673","","","75","76","","","2","76","training","adjacent","FE","6","5","O.jpg","R.jpg","0","0","1","",""
"","feedback","","html-keyboard-response","507","530983","0.0-1.0-690.0-0.0","0","0","33732","","null","","","null","76","","","","","","","","","","","","","","","",""
"","ITI","","html-keyboard-response","508","531991","0.0-1.0-693.0","0","0","33732","","null","","","null","76","","","","","","","","","","","","","","","NaN",""
"","S1","","html-keyboard-response","509","532251","0.0-1.0-695.0","0","0","33732","","null","","","null","77","","","","","","","","","","","","","","","",""
"","ISI","","html-keyboard-response","510","532403","0.0-1.0-696.0","0","0","33732","","null","","","null","77","NaN","","","","","","","","","","","","","","",""
"","S2","","html-keyboard-response","511","532664","0.0-1.0-697.0","0","0","33732","","null","","","null","77","","NaN","","","","","","","","","","","","","",""
"","response","","html-keyboard-response","512","532936","0.0-1.0-698.0-0.0","0","0","33732","","271","","","75","77","","","2","77","training","adjacent","FE","6","5","O.jpg","R.jpg","0","0","1","",""
"","feedback","","html-keyboard-response","513","533939","0.0-1.0-699.0-0.0","0","0","33732","","null","","","null","77","","","","","","","","","","","","","","","",""
"","ITI","","html-keyboard-response","514","534949","0.0-1.0-702.0","0","0","33732","","null","","","null","77","","","","","","","","","","","","","","","NaN",""
"","S1","","html-keyboard-response","515","535209","0.0-1.0-704.0","0","0","33732","","null","","","null","78","","","","","","","","","","","","","","","",""
"","ISI","","html-keyboard-response","516","535375","0.0-1.0-705.0","0","0","33732","","null","","","null","78","NaN","","","","","","","","","","","","","","",""
"","S2","","html-keyboard-response","517","535635","0.0-1.0-706.0","0","0","33732","","null","","","null","78","","NaN","","","","","","","","","","","","","",""
"","response","","html-keyboard-response","518","535922","0.0-1.0-707.0-0.0","0","0","33732","","286","","","75","78","","","2","78","training","adjacent","AB","1","2","P.jpg","Q.jpg","0","1","0","",""
"","feedback","","html-keyboard-response","519","536927","0.0-1.0-708.0-0.0","0","0","33732","","null","","","null","78","","","","","","","","","","","","","","","",""
"","time_out","","html-keyboard-response","520","538929","0.0-1.0-710.0-0.0","0","0","33732","","null","","","null","78","","","","","","","","","","","","","","","",""
"","ITI","","html-keyboard-response","521","539938","0.0-1.0-711.0","0","0","33732","","null","","","null","78","","","","","","","","","","","","","","","NaN",""
"","S1","","html-keyboard-response","522","540193","0.0-1.0-713.0","0","0","33732","","null","","","null","79","","","","","","","","","","","","","","","",""
"","ISI","","html-keyboard-response","523","540354","0.0-1.0-714.0","0","0","33732","","null","","","null","79","NaN","","","","","","","","","","","","","","",""
"","S2","","html-keyboard-response","524","540612","0.0-1.0-715.0","0","0","33732","","null","","","null","79","","NaN","","","","","","","","","","","","","",""
"","response","","html-keyboard-response","525","540691","0.0-1.0-716.0-0.0","0","0","33732","","77","","","68","79","","","2","79","training","adjacent","CB","3","2","L.jpg","Q.jpg","1","0","0","",""
"","feedback","","html-keyboard-response","526","541695","0.0-1.0-717.0-0.0","0","0","33732","","null","","","null","79","","","","","","","","","","","","","","","",""
"","time_out","","html-keyboard-response","527","543702","0.0-1.0-719.0-0.0","0","0","33732","","null","","","null","79","","","","","","","","","","","","","","","",""
"","ITI","","html-keyboard-response","528","544709","0.0-1.0-720.0","0","0","33732","","null","","","null","79","","","","","","","","","","","","","","","NaN",""
"","S1","","html-keyboard-response","529","544964","0.0-1.0-722.0","0","0","33732","","null","","","null","80","","","","","","","","","","","","","","","",""
"","ISI","","html-keyboard-response","530","545124","0.0-1.0-723.0","0","0","33732","","null","","","null","80","NaN","","","","","","","","","","","","","","",""
"","S2","","html-keyboard-response","531","545391","0.0-1.0-724.0","0","0","33732","","null","","","null","80","","NaN","","","","","","","","","","","","","",""
"","response","","html-keyboard-response","532","545636","0.0-1.0-725.0-0.0","0","0","33732","","244","","","68","80","","","2","80","training","adjacent","DE","4","5","N.jpg","R.jpg","1","1","1","",""
"","feedback","","html-keyboard-response","533","546642","0.0-1.0-726.0-0.0","0","0","33732","","null","","","null","80","","","","","","","","","","","","","","","",""
"","ITI","","html-keyboard-response","534","547649","0.0-1.0-729.0","0","0","33732","","null","","","null","80","","","","","","","","","","","","","","","NaN",""
"","S1","","html-keyboard-response","535","547917","0.0-1.0-731.0","0","0","33732","","null","","","null","81","","","","","","","","","","","","","","","",""
"","ISI","","html-keyboard-response","536","548074","0.0-1.0-732.0","0","0","33732","","null","","","null","81","NaN","","","","","","","","","","","","","","",""
"","S2","","html-keyboard-response","537","548333","0.0-1.0-733.0","0","0","33732","","null","","","null","81","","NaN","","","","","","","","","","","","","",""
"","response","","html-keyboard-response","538","548613","0.0-1.0-734.0-0.0","0","0","33732","","278","","","68","81","","","2","81","training","adjacent","BA","2","1","Q.jpg","P.jpg","1","0","0","",""
"","feedback","","html-keyboard-response","539","549621","0.0-1.0-735.0-0.0","0","0","33732","","null","","","null","81","","","","","","","","","","","","","","","",""
"","time_out","","html-keyboard-response","540","551631","0.0-1.0-737.0-0.0","0","0","33732","","null","","","null","81","","","","","","","","","","","","","","","",""
"","ITI","","html-keyboard-response","541","552640","0.0-1.0-738.0","0","0","33732","","null","","","null","81","","","","","","","","","","","","","","","NaN",""
"","S1","","html-keyboard-response","542","552898","0.0-1.0-740.0","0","0","33732","","null","","","null","82","","","","","","","","","","","","","","","",""
"","ISI","","html-keyboard-response","543","553059","0.0-1.0-741.0","0","0","33732","","null","","","null","82","NaN","","","","","","","","","","","","","","",""
"","S2","","html-keyboard-response","544","553319","0.0-1.0-742.0","0","0","33732","","null","","","null","82","","NaN","","","","","","","","","","","","","",""
"","response","","html-keyboard-response","545","553414","0.0-1.0-743.0-0.0","0","0","33732","","94","","","75","82","","","2","82","training","adjacent","CB","3","2","L.jpg","Q.jpg","0","0","1","",""
"","feedback","","html-keyboard-response","546","554422","0.0-1.0-744.0-0.0","0","0","33732","","null","","","null","82","","","","","","","","","","","","","","","",""
"","ITI","","html-keyboard-response","547","555426","0.0-1.0-747.0","0","0","33732","","null","","","null","82","","","","","","","","","","","","","","","NaN",""
"","S1","","html-keyboard-response","548","555679","0.0-1.0-749.0","0","0","33732","","null","","","null","83","","","","","","","","","","","","","","","",""
"","ISI","","html-keyboard-response","549","555835","0.0-1.0-750.0","0","0","33732","","null","","","null","83","NaN","","","","","","","","","","","","","","",""
"","S2","","html-keyboard-response","550","556093","0.0-1.0-751.0","0","0","33732","","null","","","null","83","","NaN","","","","","","","","","","","","","",""
"","response","","html-keyboard-response","551","556556","0.0-1.0-752.0-0.0","0","0","33732","","461","","","75","83","","","2","83","training","adjacent","CD","3","4","L.jpg","N.jpg","0","1","0","",""
"","feedback","","html-keyboard-response","552","557562","0.0-1.0-753.0-0.0","0","0","33732","","null","","","null","83","","","","","","","","","","","","","","","",""
"","time_out","","html-keyboard-response","553","559567","0.0-1.0-755.0-0.0","0","0","33732","","null","","","null","83","","","","","","","","","","","","","","","",""
"","ITI","","html-keyboard-response","554","560571","0.0-1.0-756.0","0","0","33732","","null","","","null","83","","","","","","","","","","","","","","","NaN",""
"","S1","","html-keyboard-response","555","560828","0.0-1.0-758.0","0","0","33732","","null","","","null","84","","","","","","","","","","","","","","","",""
"","ISI","","html-keyboard-response","556","560989","0.0-1.0-759.0","0","0","33732","","null","","","null","84","NaN","","","","","","","","","","","","","","",""
"","S2","","html-keyboard-response","557","561242","0.0-1.0-760.0","0","0","33732","","null","","","null","84","","NaN","","","","","","","","","","","","","",""
"","response","","html-keyboard-response","558","561338","0.0-1.0-761.0-0.0","0","0","33732","","95","","","68","84","","","2","84","training","adjacent","DC","4","3","N.jpg","L.jpg","1","0","0","",""
"","feedback","","html-keyboard-response","559","562348","0.0-1.0-762.0-0.0","0","0","33732","","null","","","null","84","","","","","","","","","","","","","","","",""
"","time_out","","html-keyboard-response","560","564353","0.0-1.0-764.0-0.0","0","0","33732","","null","","","null","84","","","","","","","","","","","","","","","",""
"","ITI","","html-keyboard-response","561","565356","0.0-1.0-765.0","0","0","33732","","null","","","null","84","","","","","","","","","","","","","","","NaN",""
"","S1","","html-keyboard-response","562","565616","0.0-1.0-767.0","0","0","33732","","null","","","null","85","","","","","","","","","","","","","","","",""
"","ISI","","html-keyboard-response","563","565782","0.0-1.0-768.0","0","0","33732","","null","","","null","85","NaN","","","","","","","","","","","","","","",""
"","S2","","html-keyboard-response","564","566042","0.0-1.0-769.0","0","0","33732","","null","","","null","85","","NaN","","","","","","","","","","","","","",""
"","response","","html-keyboard-response","565","566228","0.0-1.0-770.0-0.0","0","0","33732","","185","","","68","85","","","2","85","training","adjacent","ED","5","4","R.jpg","N.jpg","1","0","0","",""
"","feedback","","html-keyboard-response","566","567244","0.0-1.0-771.0-0.0","0","0","33732","","null","","","null","85","","","","","","","","","","","","","","","",""
"","time_out","","html-keyboard-response","567","569254","0.0-1.0-773.0-0.0","0","0","33732","","null","","","null","85","","","","","","","","","","","","","","","",""
"","ITI","","html-keyboard-response","568","570257","0.0-1.0-774.0","0","0","33732","","null","","","null","85","","","","","","","","","","","","","","","NaN",""
"","S1","","html-keyboard-response","569","570519","0.0-1.0-776.0","0","0","33732","","null","","","null","86","","","","","","","","","","","","","","","",""
"","ISI","","html-keyboard-response","570","570676","0.0-1.0-777.0","0","0","33732","","null","","","null","86","NaN","","","","","","","","","","","","","","",""
"","S2","","html-keyboard-response","571","570930","0.0-1.0-778.0","0","0","33732","","null","","","null","86","","NaN","","","","","","","","","","","","","",""
"","response","","html-keyboard-response","572","571248","0.0-1.0-779.0-0.0","0","0","33732","","316","","","75","86","","","2","86","training","adjacent","CD","3","4","L.jpg","N.jpg","0","1","0","",""
"","feedback","","html-keyboard-response","573","572259","0.0-1.0-780.0-0.0","0","0","33732","","null","","","null","86","","","","","","","","","","","","","","","",""
"","time_out","","html-keyboard-response","574","574266","0.0-1.0-782.0-0.0","0","0","33732","","null","","","null","86","","","","","","","","","","","","","","","",""
"","ITI","","html-keyboard-response","575","575276","0.0-1.0-783.0","0","0","33732","","null","","","null","86","","","","","","","","","","","","","","","NaN",""
"","S1","","html-keyboard-response","576","575538","0.0-1.0-785.0","0","0","33732","","null","","","null","87","","","","","","","","","","","","","","","",""
"","ISI","","html-keyboard-response","577","575698","0.0-1.0-786.0","0","0","33732","","null","","","null","87","NaN","","","","","","","","","","","","","","",""
"","S2","","html-keyboard-response","578","575961","0.0-1.0-787.0","0","0","33732","","null","","","null","87","","NaN","","","","","","","","","","","","","",""
"","response","","html-keyboard-response","579","577715","0.0-1.0-788.0-0.0","0","0","33732","","null","","","null","87","","","2","87","training","adjacent","BC","2","3","Q.jpg","L.jpg","NaN","1","0","",""
"","too_slow_prompt","","html-keyboard-response","580","578720","0.0-1.0-790.0-0.0","1","0","33732","","null","","","null","","","","","","","","","","","","","","","","",""
