"success","ttype","start_time","trial_type","trial_index","time_elapsed","internal_node_id","warning","missed_checkup","PID","view_history","rt","responses","repeat_instructions","key_press","index","keypress_isi","keypress_S2","block","trial_num","phase","group_type","pair_type","S1_stim","S2_stim","S1_img","S2_img","S1_chosen","S1_higher","accuracy","keypress_iti","total_bonus_tally"
"true","full_screen","d08012022hr1348","fullscreen","0","95008","0.0-0.0","0","0","81300","","","","","","","","","","","","","","","","","","","","","",""
"","instructions","","instructions","1","184020","0.0-1.0-0.0-0.0","0","0","81300","[{""page_index"":0,""viewing_time"":18736},{""page_index"":1,""viewing_time"":42494},{""page_index"":2,""viewing_time"":20547},{""page_index"":3,""viewing_time"":7233}]","89010","","","","","","","","","","","","","","","","","","","",""
"","comprehension_check","","survey-multi-choice","2","260448","0.0-1.0-0.0-1.0","0","0","81300","","76423","{""Q0"":""True"",""Q1"":""D"",""Q2"":""While the images are shown"",""Q3"":""Green mark"",""Q4"":""either D or K""}","1","","","","","","","","","","","","","","","","","",""
"","missed_instruction_checkup","","html-keyboard-response","3","274462","0.0-1.0-0.0-2.0-0.0","0","1","81300","","14011","","","32","","","","","","","","","","","","","","","","",""
"","instructions","","instructions","4","318297","0.0-1.0-0.1-0.1","0","0","81300","[{""page_index"":0,""viewing_time"":18301},{""page_index"":1,""viewing_time"":14001},{""page_index"":2,""viewing_time"":9001},{""page_index"":3,""viewing_time"":2530}]","43834","","","","","","","","","","","","","","","","","","","",""
"","comprehension_check","","survey-multi-choice","5","384939","0.0-1.0-0.1-1.1","0","0","81300","","66634","{""Q0"":""True"",""Q1"":""D"",""Q2"":""When you see the prompt 'MAKE A CHOICE' after the second image was presented"",""Q3"":""Green mark"",""Q4"":""either D or K""}","0","","","","","","","","","","","","","","","","","",""
"","start_exp","","html-keyboard-response","6","389807","0.0-1.0-1.0","0","0","81300","","4866","","","32","","","","","","","","","","","","","","","","",""
"","S1","","html-keyboard-response","7","390060","0.0-1.0-2.0","0","0","81300","","null","","","null","0","","","","","","","","","","","","","","","",""
"","ISI","","html-keyboard-response","8","392063","0.0-1.0-3.0","0","0","81300","","null","","","null","0","NaN","","","","","","","","","","","","","","",""
"","S2","","html-keyboard-response","9","392315","0.0-1.0-4.0","0","0","81300","","null","","","null","0","","NaN","","","","","","","","","","","","","",""
"","response","","html-keyboard-response","10","394318","0.0-1.0-5.0","0","0","81300","","null","","","null","0","","","1","0","training","adjacent","CB","3","2","N.jpg","Q.jpg","NaN","0","0","",""
"","too_slow_prompt","","html-keyboard-response","11","395321","0.0-1.0-7.0-0.0","1","0","81300","","null","","","null","","","","","","","","","","","","","","","","",""
"","time_out","","html-keyboard-response","12","397324","0.0-1.0-8.0-0.0","0","0","81300","","null","","","null","0","","","","","","","","","","","","","","","",""
"","ITI","","html-keyboard-response","13","398326","0.0-1.0-9.0","0","0","81300","","null","","","null","0","","","","","","","","","","","","","","","NaN",""
"","S1","","html-keyboard-response","14","398579","0.0-1.0-11.0","0","0","81300","","null","","","null","1","","","","","","","","","","","","","","","",""
"","ISI","","html-keyboard-response","15","400582","0.0-1.0-12.0","0","0","81300","","null","","","null","1","NaN","","","","","","","","","","","","","","",""
"","S2","","html-keyboard-response","16","400834","0.0-1.0-13.0","0","0","81300","","null","","","null","1","","NaN","","","","","","","","","","","","","",""
"","response","","html-keyboard-response","17","402825","0.0-1.0-14.0","0","0","81300","","1990","","","68","1","","","1","1","training","adjacent","FE","6","5","R.jpg","M.jpg","1","0","0","",""
"","feedback","","html-keyboard-response","18","403829","0.0-1.0-15.0-0.0","0","0","81300","","null","","","null","1","","","","","","","","","","","","","","","",""
"","time_out","","html-keyboard-response","19","405830","0.0-1.0-17.0-0.0","0","0","81300","","null","","","null","1","","","","","","","","","","","","","","","",""
"","ITI","","html-keyboard-response","20","406833","0.0-1.0-18.0","0","0","81300","","null","","","null","1","","","","","","","","","","","","","","","NaN",""
"","S1","","html-keyboard-response","21","407085","0.0-1.0-20.0","0","0","81300","","null","","","null","2","","","","","","","","","","","","","","","",""
"","ISI","","html-keyboard-response","22","409088","0.0-1.0-21.0","0","0","81300","","707","","","75","2","k","","","","","","","","","","","","","","",""
"","S2","","html-keyboard-response","23","409341","0.0-1.0-22.0","0","0","81300","","null","","","null","2","","NaN","","","","","","","","","","","","","",""
"","response","","html-keyboard-response","24","411344","0.0-1.0-23.0","0","0","81300","","null","","","null","2","","","1","2","training","adjacent","BC","2","3","Q.jpg","N.jpg","NaN","1","0","",""
"","too_slow_prompt","","html-keyboard-response","25","412346","0.0-1.0-25.0-0.0","1","0","81300","","null","","","null","","","","","","","","","","","","","","","","",""
"","time_out","","html-keyboard-response","26","414349","0.0-1.0-26.0-0.0","0","0","81300","","null","","","null","2","","","","","","","","","","","","","","","",""
"","ITI","","html-keyboard-response","27","415352","0.0-1.0-27.0","0","0","81300","","null","","","null","2","","","","","","","","","","","","","","","NaN",""
"","S1","","html-keyboard-response","28","415604","0.0-1.0-29.0","0","0","81300","","null","","","null","3","","","","","","","","","","","","","","","",""
"","ISI","","html-keyboard-response","29","417607","0.0-1.0-30.0","0","0","81300","","null","","","null","3","NaN","","","","","","","","","","","","","","",""
"","S2","","html-keyboard-response","30","417859","0.0-1.0-31.0","0","0","81300","","null","","","null","3","","NaN","","","","","","","","","","","","","",""
"","response","","html-keyboard-response","31","419862","0.0-1.0-32.0","0","0","81300","","null","","","null","3","","","1","3","training","adjacent","FG","6","7","R.jpg","P.jpg","NaN","1","0","",""
"","too_slow_prompt","","html-keyboard-response","32","420865","0.0-1.0-34.0-0.0","1","0","81300","","null","","","null","","","","","","","","","","","","","","","","",""
"","time_out","","html-keyboard-response","33","422867","0.0-1.0-35.0-0.0","0","0","81300","","null","","","null","3","","","","","","","","","","","","","","","",""
"","ITI","","html-keyboard-response","34","423870","0.0-1.0-36.0","0","0","81300","","null","","","null","3","","","","","","","","","","","","","","","NaN",""
"","S1","","html-keyboard-response","35","424122","0.0-1.0-38.0","0","0","81300","","null","","","null","4","","","","","","","","","","","","","","","",""
"","ISI","","html-keyboard-response","36","426125","0.0-1.0-39.0","0","0","81300","","null","","","null","4","NaN","","","","","","","","","","","","","","",""
"","S2","","html-keyboard-response","37","426378","0.0-1.0-40.0","0","0","81300","","null","","","null","4","","NaN","","","","","","","","","","","","","",""
"","response","","html-keyboard-response","38","427580","0.0-1.0-41.0","0","0","81300","","1201","","","75","4","","","1","4","training","adjacent","BA","2","1","Q.jpg","L.jpg","0","0","1","",""
"","feedback","","html-keyboard-response","39","428583","0.0-1.0-42.0-0.0","0","0","81300","","null","","","null","4","","","","","","","","","","","","","","","",""
"","ITI","","html-keyboard-response","40","429586","0.0-1.0-45.0","0","0","81300","","null","","","null","4","","","","","","","","","","","","","","","NaN",""
"","S1","","html-keyboard-response","41","429838","0.0-1.0-47.0","0","0","81300","","null","","","null","5","","","","","","","","","","","","","","","",""
"","ISI","","html-keyboard-response","42","431840","0.0-1.0-48.0","0","0","81300","","622","","","68","5","d","","","","","","","","","","","","","","",""
"","S2","","html-keyboard-response","43","432093","0.0-1.0-49.0","0","0","81300","","null","","","null","5","","NaN","","","","","","","","","","","","","",""
"","response","","html-keyboard-response","44","432574","0.0-1.0-50.0","0","0","81300","","480","","","75","5","","","1","5","training","adjacent","BC","2","3","Q.jpg","N.jpg","0","1","0","",""
"","feedback","","html-keyboard-response","45","433576","0.0-1.0-51.0-0.0","0","0","81300","","null","","","null","5","","","","","","","","","","","","","","","",""
"","time_out","","html-keyboard-response","46","435579","0.0-1.0-53.0-0.0","0","0","81300","","null","","","null","5","","","","","","","","","","","","","","","",""
"","ITI","","html-keyboard-response","47","436582","0.0-1.0-54.0","0","0","81300","","null","","","null","5","","","","","","","","","","","","","","","NaN",""
"","S1","","html-keyboard-response","48","436835","0.0-1.0-56.0","0","0","81300","","null","","","null","6","","","","","","","","","","","","","","","",""
"","ISI","","html-keyboard-response","49","438837","0.0-1.0-57.0","0","0","81300","","null","","","null","6","NaN","","","","","","","","","","","","","","",""
"","S2","","html-keyboard-response","50","439090","0.0-1.0-58.0","0","0","81300","","null","","","null","6","","NaN","","","","","","","","","","","","","",""
"","response","","html-keyboard-response","51","440055","0.0-1.0-59.0","0","0","81300","","963","","","75","6","","","1","6","training","adjacent","FG","6","7","R.jpg","P.jpg","0","1","0","",""
"","feedback","","html-keyboard-response","52","441058","0.0-1.0-60.0-0.0","0","0","81300","","null","","","null","6","","","","","","","","","","","","","","","",""
"","time_out","","html-keyboard-response","53","443061","0.0-1.0-62.0-0.0","0","0","81300","","null","","","null","6","","","","","","","","","","","","","","","",""
"","ITI","","html-keyboard-response","54","444063","0.0-1.0-63.0","0","0","81300","","null","","","null","6","","","","","","","","","","","","","","","NaN",""
"","S1","","html-keyboard-response","55","444316","0.0-1.0-65.0","0","0","81300","","null","","","null","7","","","","","","","","","","","","","","","",""
"","ISI","","html-keyboard-response","56","446318","0.0-1.0-66.0","0","0","81300","","null","","","null","7","NaN","","","","","","","","","","","","","","",""
"","S2","","html-keyboard-response","57","446570","0.0-1.0-67.0","0","0","81300","","null","","","null","7","","NaN","","","","","","","","","","","","","",""
"","response","","html-keyboard-response","58","447584","0.0-1.0-68.0","0","0","81300","","1012","","","68","7","","","1","7","training","adjacent","ED","5","4","M.jpg","O.jpg","1","0","0","",""
"","feedback","","html-keyboard-response","59","448587","0.0-1.0-69.0-0.0","0","0","81300","","null","","","null","7","","","","","","","","","","","","","","","",""
"","time_out","","html-keyboard-response","60","450589","0.0-1.0-71.0-0.0","0","0","81300","","null","","","null","7","","","","","","","","","","","","","","","",""
"","ITI","","html-keyboard-response","61","451591","0.0-1.0-72.0","0","0","81300","","null","","","null","7","","","","","","","","","","","","","","","NaN",""
"","S1","","html-keyboard-response","62","451843","0.0-1.0-74.0","0","0","81300","","null","","","null","8","","","","","","","","","","","","","","","",""
"","ISI","","html-keyboard-response","63","453846","0.0-1.0-75.0","0","0","81300","","null","","","null","8","NaN","","","","","","","","","","","","","","",""
"","S2","","html-keyboard-response","64","454099","0.0-1.0-76.0","0","0","81300","","null","","","null","8","","NaN","","","","","","","","","","","","","",""
"","response","","html-keyboard-response","65","455817","0.0-1.0-77.0","0","0","81300","","1717","","","75","8","","","1","8","training","adjacent","ED","5","4","M.jpg","O.jpg","0","0","1","",""
"","feedback","","html-keyboard-response","66","456820","0.0-1.0-78.0-0.0","0","0","81300","","null","","","null","8","","","","","","","","","","","","","","","",""
"","ITI","","html-keyboard-response","67","457823","0.0-1.0-81.0","0","0","81300","","null","","","null","8","","","","","","","","","","","","","","","NaN",""
"","S1","","html-keyboard-response","68","458075","0.0-1.0-83.0","0","0","81300","","null","","","null","9","","","","","","","","","","","","","","","",""
"","ISI","","html-keyboard-response","69","460077","0.0-1.0-84.0","0","0","81300","","null","","","null","9","NaN","","","","","","","","","","","","","","",""
"","S2","","html-keyboard-response","70","460329","0.0-1.0-85.0","0","0","81300","","null","","","null","9","","NaN","","","","","","","","","","","","","",""
"","response","","html-keyboard-response","71","461498","0.0-1.0-86.0","0","0","81300","","1168","","","68","9","","","1","9","training","adjacent","CD","3","4","N.jpg","O.jpg","1","1","1","",""
"","feedback","","html-keyboard-response","72","462500","0.0-1.0-87.0-0.0","0","0","81300","","null","","","null","9","","","","","","","","","","","","","","","",""
"","ITI","","html-keyboard-response","73","463503","0.0-1.0-90.0","0","0","81300","","null","","","null","9","","","","","","","","","","","","","","","NaN",""
"","S1","","html-keyboard-response","74","463756","0.0-1.0-92.0","0","0","81300","","null","","","null","10","","","","","","","","","","","","","","","",""
"","ISI","","html-keyboard-response","75","465759","0.0-1.0-93.0","0","0","81300","","null","","","null","10","NaN","","","","","","","","","","","","","","",""
"","S2","","html-keyboard-response","76","466011","0.0-1.0-94.0","0","0","81300","","null","","","null","10","","NaN","","","","","","","","","","","","","",""
"","response","","html-keyboard-response","77","467059","0.0-1.0-95.0","0","0","81300","","1047","","","75","10","","","1","10","training","adjacent","FE","6","5","R.jpg","M.jpg","0","0","1","",""
"","feedback","","html-keyboard-response","78","468061","0.0-1.0-96.0-0.0","0","0","81300","","null","","","null","10","","","","","","","","","","","","","","","",""
"","ITI","","html-keyboard-response","79","469064","0.0-1.0-99.0","0","0","81300","","null","","","null","10","","","","","","","","","","","","","","","NaN",""
"","S1","","html-keyboard-response","80","469317","0.0-1.0-101.0","0","0","81300","","null","","","null","11","","","","","","","","","","","","","","","",""
"","ISI","","html-keyboard-response","81","471320","0.0-1.0-102.0","0","0","81300","","null","","","null","11","NaN","","","","","","","","","","","","","","",""
"","S2","","html-keyboard-response","82","471573","0.0-1.0-103.0","0","0","81300","","null","","","null","11","","NaN","","","","","","","","","","","","","",""
"","response","","html-keyboard-response","83","472795","0.0-1.0-104.0","0","0","81300","","1221","","","68","11","","","1","11","training","adjacent","BA","2","1","Q.jpg","L.jpg","1","0","0","",""
"","feedback","","html-keyboard-response","84","473798","0.0-1.0-105.0-0.0","0","0","81300","","null","","","null","11","","","","","","","","","","","","","","","",""
"","time_out","","html-keyboard-response","85","475801","0.0-1.0-107.0-0.0","0","0","81300","","null","","","null","11","","","","","","","","","","","","","","","",""
"","ITI","","html-keyboard-response","86","476804","0.0-1.0-108.0","0","0","81300","","null","","","null","11","","","","","","","","","","","","","","","NaN",""
"","S1","","html-keyboard-response","87","477056","0.0-1.0-110.0","0","0","81300","","null","","","null","12","","","","","","","","","","","","","","","",""
"","ISI","","html-keyboard-response","88","479059","0.0-1.0-111.0","0","0","81300","","null","","","null","12","NaN","","","","","","","","","","","","","","",""
"","S2","","html-keyboard-response","89","479312","0.0-1.0-112.0","0","0","81300","","null","","","null","12","","NaN","","","","","","","","","","","","","",""
"","response","","html-keyboard-response","90","480036","0.0-1.0-113.0","0","0","81300","","722","","","68","12","","","1","12","training","adjacent","BC","2","3","Q.jpg","N.jpg","1","1","1","",""
"","feedback","","html-keyboard-response","91","481039","0.0-1.0-114.0-0.0","0","0","81300","","null","","","null","12","","","","","","","","","","","","","","","",""
"","ITI","","html-keyboard-response","92","482041","0.0-1.0-117.0","0","0","81300","","null","","","null","12","","","","","","","","","","","","","","","NaN",""
"","S1","","html-keyboard-response","93","482294","0.0-1.0-119.0","0","0","81300","","null","","","null","13","","","","","","","","","","","","","","","",""
"","ISI","","html-keyboard-response","94","484296","0.0-1.0-120.0","0","0","81300","","null","","","null","13","NaN","","","","","","","","","","","","","","",""
"","S2","","html-keyboard-response","95","484549","0.0-1.0-121.0","0","0","81300","","null","","","null","13","","NaN","","","","","","","","","","","","","",""
"","response","","html-keyboard-response","96","485365","0.0-1.0-122.0","0","0","81300","","814","","","75","13","","","1","13","training","adjacent","DE","4","5","O.jpg","M.jpg","0","1","0","",""
"","feedback","","html-keyboard-response","97","486368","0.0-1.0-123.0-0.0","0","0","81300","","null","","","null","13","","","","","","","","","","","","","","","",""
"","time_out","","html-keyboard-response","98","488371","0.0-1.0-125.0-0.0","0","0","81300","","null","","","null","13","","","","","","","","","","","","","","","",""
"","ITI","","html-keyboard-response","99","489374","0.0-1.0-126.0","0","0","81300","","null","","","null","13","","","","","","","","","","","","","","","NaN",""
"","S1","","html-keyboard-response","100","489627","0.0-1.0-128.0","0","0","81300","","null","","","null","14","","","","","","","","","","","","","","","",""
"","ISI","","html-keyboard-response","101","491630","0.0-1.0-129.0","0","0","81300","","null","","","null","14","NaN","","","","","","","","","","","","","","",""
"","S2","","html-keyboard-response","102","491882","0.0-1.0-130.0","0","0","81300","","null","","","null","14","","NaN","","","","","","","","","","","","","",""
"","response","","html-keyboard-response","103","492782","0.0-1.0-131.0","0","0","81300","","899","","","75","14","","","1","14","training","adjacent","EF","5","6","M.jpg","R.jpg","0","1","0","",""
"","feedback","","html-keyboard-response","104","493786","0.0-1.0-132.0-0.0","0","0","81300","","null","","","null","14","","","","","","","","","","","","","","","",""
"","time_out","","html-keyboard-response","105","495789","0.0-1.0-134.0-0.0","0","0","81300","","null","","","null","14","","","","","","","","","","","","","","","",""
"","ITI","","html-keyboard-response","106","496791","0.0-1.0-135.0","0","0","81300","","null","","","null","14","","","","","","","","","","","","","","","NaN",""
"","S1","","html-keyboard-response","107","497044","0.0-1.0-137.0","0","0","81300","","null","","","null","15","","","","","","","","","","","","","","","",""
"","ISI","","html-keyboard-response","108","499046","0.0-1.0-138.0","0","0","81300","","null","","","null","15","NaN","","","","","","","","","","","","","","",""
"","S2","","html-keyboard-response","109","499298","0.0-1.0-139.0","0","0","81300","","null","","","null","15","","NaN","","","","","","","","","","","","","",""
"","response","","html-keyboard-response","110","500079","0.0-1.0-140.0","0","0","81300","","780","","","68","15","","","1","15","training","adjacent","BA","2","1","Q.jpg","L.jpg","1","0","0","",""
"","feedback","","html-keyboard-response","111","501083","0.0-1.0-141.0-0.0","0","0","81300","","null","","","null","15","","","","","","","","","","","","","","","",""
"","time_out","","html-keyboard-response","112","503086","0.0-1.0-143.0-0.0","0","0","81300","","null","","","null","15","","","","","","","","","","","","","","","",""
"","ITI","","html-keyboard-response","113","504089","0.0-1.0-144.0","0","0","81300","","null","","","null","15","","","","","","","","","","","","","","","NaN",""
"","S1","","html-keyboard-response","114","504341","0.0-1.0-146.0","0","0","81300","","null","","","null","16","","","","","","","","","","","","","","","",""
"","ISI","","html-keyboard-response","115","506343","0.0-1.0-147.0","0","0","81300","","null","","","null","16","NaN","","","","","","","","","","","","","","",""
"","S2","","html-keyboard-response","116","506596","0.0-1.0-148.0","0","0","81300","","null","","","null","16","","NaN","","","","","","","","","","","","","",""
"","response","","html-keyboard-response","117","507497","0.0-1.0-149.0","0","0","81300","","900","","","68","16","","","1","16","training","adjacent","CD","3","4","N.jpg","O.jpg","1","1","1","",""
"","feedback","","html-keyboard-response","118","508500","0.0-1.0-150.0-0.0","0","0","81300","","null","","","null","16","","","","","","","","","","","","","","","",""
"","ITI","","html-keyboard-response","119","509503","0.0-1.0-153.0","0","0","81300","","null","","","null","16","","","","","","","","","","","","","","","NaN",""
"","S1","","html-keyboard-response","120","509756","0.0-1.0-155.0","0","0","81300","","null","","","null","17","","","","","","","","","","","","","","","",""
"","ISI","","html-keyboard-response","121","511759","0.0-1.0-156.0","0","0","81300","","null","","","null","17","NaN","","","","","","","","","","","","","","",""
"","S2","","html-keyboard-response","122","512011","0.0-1.0-157.0","0","0","81300","","null","","","null","17","","NaN","","","","","","","","","","","","","",""
"","response","","html-keyboard-response","123","512897","0.0-1.0-158.0","0","0","81300","","884","","","75","17","","","1","17","training","adjacent","DE","4","5","O.jpg","M.jpg","0","1","0","",""
"","feedback","","html-keyboard-response","124","513901","0.0-1.0-159.0-0.0","0","0","81300","","null","","","null","17","","","","","","","","","","","","","","","",""
"","time_out","","html-keyboard-response","125","515902","0.0-1.0-161.0-0.0","0","0","81300","","null","","","null","17","","","","","","","","","","","","","","","",""
"","ITI","","html-keyboard-response","126","516905","0.0-1.0-162.0","0","0","81300","","null","","","null","17","","","","","","","","","","","","","","","NaN",""
"","S1","","html-keyboard-response","127","517158","0.0-1.0-164.0","0","0","81300","","null","","","null","18","","","","","","","","","","","","","","","",""
"","ISI","","html-keyboard-response","128","519161","0.0-1.0-165.0","0","0","81300","","null","","","null","18","NaN","","","","","","","","","","","","","","",""
"","S2","","html-keyboard-response","129","519413","0.0-1.0-166.0","0","0","81300","","null","","","null","18","","NaN","","","","","","","","","","","","","",""
"","response","","html-keyboard-response","130","520259","0.0-1.0-167.0","0","0","81300","","844","","","68","18","","","1","18","training","adjacent","FG","6","7","R.jpg","P.jpg","1","1","1","",""
"","feedback","","html-keyboard-response","131","521261","0.0-1.0-168.0-0.0","0","0","81300","","null","","","null","18","","","","","","","","","","","","","","","",""
"","ITI","","html-keyboard-response","132","522263","0.0-1.0-171.0","0","0","81300","","null","","","null","18","","","","","","","","","","","","","","","NaN",""
"","S1","","html-keyboard-response","133","522516","0.0-1.0-173.0","0","0","81300","","null","","","null","19","","","","","","","","","","","","","","","",""
"","ISI","","html-keyboard-response","134","524518","0.0-1.0-174.0","0","0","81300","","null","","","null","19","NaN","","","","","","","","","","","","","","",""
"","S2","","html-keyboard-response","135","524771","0.0-1.0-175.0","0","0","81300","","null","","","null","19","","NaN","","","","","","","","","","","","","",""
"","response","","html-keyboard-response","136","525604","0.0-1.0-176.0","0","0","81300","","831","","","75","19","","","1","19","training","adjacent","DC","4","3","O.jpg","N.jpg","0","0","1","",""
"","feedback","","html-keyboard-response","137","526607","0.0-1.0-177.0-0.0","0","0","81300","","null","","","null","19","","","","","","","","","","","","","","","",""
"","ITI","","html-keyboard-response","138","527609","0.0-1.0-180.0","0","0","81300","","null","","","null","19","","","","","","","","","","","","","","","NaN",""
"","S1","","html-keyboard-response","139","527861","0.0-1.0-182.0","0","0","81300","","null","","","null","20","","","","","","","","","","","","","","","",""
"","ISI","","html-keyboard-response","140","529864","0.0-1.0-183.0","0","0","81300","","null","","","null","20","NaN","","","","","","","","","","","","","","",""
"","S2","","html-keyboard-response","141","530117","0.0-1.0-184.0","0","0","81300","","null","","","null","20","","NaN","","","","","","","","","","","","","",""
"","response","","html-keyboard-response","142","531228","0.0-1.0-185.0","0","0","81300","","1110","","","68","20","","","1","20","training","adjacent","BA","2","1","Q.jpg","L.jpg","1","0","0","",""
"","feedback","","html-keyboard-response","143","532230","0.0-1.0-186.0-0.0","0","0","81300","","null","","","null","20","","","","","","","","","","","","","","","",""
"","time_out","","html-keyboard-response","144","534233","0.0-1.0-188.0-0.0","0","0","81300","","null","","","null","20","","","","","","","","","","","","","","","",""
"","ITI","","html-keyboard-response","145","535236","0.0-1.0-189.0","0","0","81300","","null","","","null","20","","","","","","","","","","","","","","","NaN",""
"","S1","","html-keyboard-response","146","535488","0.0-1.0-191.0","0","0","81300","","null","","","null","21","","","","","","","","","","","","","","","",""
"","ISI","","html-keyboard-response","147","537491","0.0-1.0-192.0","0","0","81300","","null","","","null","21","NaN","","","","","","","","","","","","","","",""
"","S2","","html-keyboard-response","148","537744","0.0-1.0-193.0","0","0","81300","","null","","","null","21","","NaN","","","","","","","","","","","","","",""
"","response","","html-keyboard-response","149","538566","0.0-1.0-194.0","0","0","81300","","821","","","68","21","","","1","21","training","adjacent","CD","3","4","N.jpg","O.jpg","1","1","1","",""
"","feedback","","html-keyboard-response","150","539569","0.0-1.0-195.0-0.0","0","0","81300","","null","","","null","21","","","","","","","","","","","","","","","",""
"","ITI","","html-keyboard-response","151","540571","0.0-1.0-198.0","0","0","81300","","null","","","null","21","","","","","","","","","","","","","","","NaN",""
"","S1","","html-keyboard-response","152","540824","0.0-1.0-200.0","0","0","81300","","null","","","null","22","","","","","","","","","","","","","","","",""
"","ISI","","html-keyboard-response","153","542827","0.0-1.0-201.0","0","0","81300","","null","","","null","22","NaN","","","","","","","","","","","","","","",""
"","S2","","html-keyboard-response","154","543079","0.0-1.0-202.0","0","0","81300","","null","","","null","22","","NaN","","","","","","","","","","","","","",""
"","response","","html-keyboard-response","155","543790","0.0-1.0-203.0","0","0","81300","","710","","","68","22","","","1","22","training","adjacent","CB","3","2","N.jpg","Q.jpg","1","0","0","",""
"","feedback","","html-keyboard-response","156","544794","0.0-1.0-204.0-0.0","0","0","81300","","null","","","null","22","","","","","","","","","","","","","","","",""
"","time_out","","html-keyboard-response","157","546797","0.0-1.0-206.0-0.0","0","0","81300","","null","","","null","22","","","","","","","","","","","","","","","",""
"","ITI","","html-keyboard-response","158","547799","0.0-1.0-207.0","0","0","81300","","null","","","null","22","","","","","","","","","","","","","","","NaN",""
"","S1","","html-keyboard-response","159","548051","0.0-1.0-209.0","0","0","81300","","null","","","null","23","","","","","","","","","","","","","","","",""
"","ISI","","html-keyboard-response","160","550054","0.0-1.0-210.0","0","0","81300","","null","","","null","23","NaN","","","","","","","","","","","","","","",""
"","S2","","html-keyboard-response","161","550307","0.0-1.0-211.0","0","0","81300","","null","","","null","23","","NaN","","","","","","","","","","","","","",""
"","response","","html-keyboard-response","162","551262","0.0-1.0-212.0","0","0","81300","","954","","","68","23","","","1","23","training","adjacent","FE","6","5","R.jpg","M.jpg","1","0","0","",""
"","feedback","","html-keyboard-response","163","552263","0.0-1.0-213.0-0.0","0","0","81300","","null","","","null","23","","","","","","","","","","","","","","","",""
"","time_out","","html-keyboard-response","164","554265","0.0-1.0-215.0-0.0","0","0","81300","","null","","","null","23","","","","","","","","","","","","","","","",""
"","ITI","","html-keyboard-response","165","555267","0.0-1.0-216.0","0","0","81300","","null","","","null","23","","","","","","","","","","","","","","","NaN",""
"","S1","","html-keyboard-response","166","555519","0.0-1.0-218.0","0","0","81300","","null","","","null","24","","","","","","","","","","","","","","","",""
"","ISI","","html-keyboard-response","167","557522","0.0-1.0-219.0","0","0","81300","","null","","","null","24","NaN","","","","","","","","","","","","","","",""
"","S2","","html-keyboard-response","168","557774","0.0-1.0-220.0","0","0","81300","","null","","","null","24","","NaN","","","","","","","","","","","","","",""
"","response","","html-keyboard-response","169","558480","0.0-1.0-221.0","0","0","81300","","704","","","75","24","","","1","24","training","adjacent","ED","5","4","M.jpg","O.jpg","0","0","1","",""
"","feedback","","html-keyboard-response","170","559482","0.0-1.0-222.0-0.0","0","0","81300","","null","","","null","24","","","","","","","","","","","","","","","",""
"","ITI","","html-keyboard-response","171","560485","0.0-1.0-225.0","0","0","81300","","null","","","null","24","","","","","","","","","","","","","","","NaN",""
"","S1","","html-keyboard-response","172","560738","0.0-1.0-227.0","0","0","81300","","null","","","null","25","","","","","","","","","","","","","","","",""
"","ISI","","html-keyboard-response","173","562740","0.0-1.0-228.0","0","0","81300","","null","","","null","25","NaN","","","","","","","","","","","","","","",""
"","S2","","html-keyboard-response","174","562992","0.0-1.0-229.0","0","0","81300","","null","","","null","25","","NaN","","","","","","","","","","","","","",""
"","response","","html-keyboard-response","175","563897","0.0-1.0-230.0","0","0","81300","","903","","","68","25","","","1","25","training","adjacent","GF","7","6","P.jpg","R.jpg","1","0","0","",""
"","feedback","","html-keyboard-response","176","564900","0.0-1.0-231.0-0.0","0","0","81300","","null","","","null","25","","","","","","","","","","","","","","","",""
"","time_out","","html-keyboard-response","177","566903","0.0-1.0-233.0-0.0","0","0","81300","","null","","","null","25","","","","","","","","","","","","","","","",""
"","ITI","","html-keyboard-response","178","567906","0.0-1.0-234.0","0","0","81300","","null","","","null","25","","","","","","","","","","","","","","","NaN",""
"","S1","","html-keyboard-response","179","568159","0.0-1.0-236.0","0","0","81300","","null","","","null","26","","","","","","","","","","","","","","","",""
"","ISI","","html-keyboard-response","180","570162","0.0-1.0-237.0","0","0","81300","","null","","","null","26","NaN","","","","","","","","","","","","","","",""
"","S2","","html-keyboard-response","181","570414","0.0-1.0-238.0","0","0","81300","","null","","","null","26","","NaN","","","","","","","","","","","","","",""
"","response","","html-keyboard-response","182","571266","0.0-1.0-239.0","0","0","81300","","850","","","75","26","","","1","26","training","adjacent","EF","5","6","M.jpg","R.jpg","0","1","0","",""
"","feedback","","html-keyboard-response","183","572270","0.0-1.0-240.0-0.0","0","0","81300","","null","","","null","26","","","","","","","","","","","","","","","",""
"","time_out","","html-keyboard-response","184","574271","0.0-1.0-242.0-0.0","0","0","81300","","null","","","null","26","","","","","","","","","","","","","","","",""
"","ITI","","html-keyboard-response","185","575274","0.0-1.0-243.0","0","0","81300","","null","","","null","26","","","","","","","","","","","","","","","NaN",""
"","S1","","html-keyboard-response","186","575527","0.0-1.0-245.0","0","0","81300","","null","","","null","27","","","","","","","","","","","","","","","",""
"","ISI","","html-keyboard-response","187","577529","0.0-1.0-246.0","0","0","81300","","null","","","null","27","NaN","","","","","","","","","","","","","","",""
"","S2","","html-keyboard-response","188","577782","0.0-1.0-247.0","0","0","81300","","null","","","null","27","","NaN","","","","","","","","","","","","","",""
"","response","","html-keyboard-response","189","578459","0.0-1.0-248.0","0","0","81300","","676","","","68","27","","","1","27","training","adjacent","AB","1","2","L.jpg","Q.jpg","1","1","1","",""
"","feedback","","html-keyboard-response","190","579461","0.0-1.0-249.0-0.0","0","0","81300","","null","","","null","27","","","","","","","","","","","","","","","",""
"","ITI","","html-keyboard-response","191","580463","0.0-1.0-252.0","0","0","81300","","null","","","null","27","","","","","","","","","","","","","","","NaN",""
"","S1","","html-keyboard-response","192","580716","0.0-1.0-254.0","0","0","81300","","null","","","null","28","","","","","","","","","","","","","","","",""
"","ISI","","html-keyboard-response","193","582719","0.0-1.0-255.0","0","0","81300","","null","","","null","28","NaN","","","","","","","","","","","","","","",""
"","S2","","html-keyboard-response","194","582971","0.0-1.0-256.0","0","0","81300","","null","","","null","28","","NaN","","","","","","","","","","","","","",""
"","response","","html-keyboard-response","195","583659","0.0-1.0-257.0","0","0","81300","","687","","","68","28","","","1","28","training","adjacent","BC","2","3","Q.jpg","N.jpg","1","1","1","",""
"","feedback","","html-keyboard-response","196","584663","0.0-1.0-258.0-0.0","0","0","81300","","null","","","null","28","","","","","","","","","","","","","","","",""
"","ITI","","html-keyboard-response","197","585666","0.0-1.0-261.0","0","0","81300","","null","","","null","28","","","","","","","","","","","","","","","NaN",""
"","S1","","html-keyboard-response","198","585918","0.0-1.0-263.0","0","0","81300","","null","","","null","29","","","","","","","","","","","","","","","",""
"","ISI","","html-keyboard-response","199","587920","0.0-1.0-264.0","0","0","81300","","null","","","null","29","NaN","","","","","","","","","","","","","","",""
"","S2","","html-keyboard-response","200","588173","0.0-1.0-265.0","0","0","81300","","null","","","null","29","","NaN","","","","","","","","","","","","","",""
"","response","","html-keyboard-response","201","588837","0.0-1.0-266.0","0","0","81300","","663","","","68","29","","","1","29","training","adjacent","FE","6","5","R.jpg","M.jpg","1","0","0","",""
"","feedback","","html-keyboard-response","202","589840","0.0-1.0-267.0-0.0","0","0","81300","","null","","","null","29","","","","","","","","","","","","","","","",""
"","time_out","","html-keyboard-response","203","591843","0.0-1.0-269.0-0.0","0","0","81300","","null","","","null","29","","","","","","","","","","","","","","","",""
"","ITI","","html-keyboard-response","204","592846","0.0-1.0-270.0","0","0","81300","","null","","","null","29","","","","","","","","","","","","","","","NaN",""
"","S1","","html-keyboard-response","205","593099","0.0-1.0-272.0","0","0","81300","","null","","","null","30","","","","","","","","","","","","","","","",""
"","ISI","","html-keyboard-response","206","595102","0.0-1.0-273.0","0","0","81300","","null","","","null","30","NaN","","","","","","","","","","","","","","",""
"","S2","","html-keyboard-response","207","595354","0.0-1.0-274.0","0","0","81300","","null","","","null","30","","NaN","","","","","","","","","","","","","",""
"","response","","html-keyboard-response","208","595982","0.0-1.0-275.0","0","0","81300","","627","","","68","30","","","1","30","training","adjacent","DC","4","3","O.jpg","N.jpg","1","0","0","",""
"","feedback","","html-keyboard-response","209","596985","0.0-1.0-276.0-0.0","0","0","81300","","null","","","null","30","","","","","","","","","","","","","","","",""
"","time_out","","html-keyboard-response","210","598987","0.0-1.0-278.0-0.0","0","0","81300","","null","","","null","30","","","","","","","","","","","","","","","",""
"","ITI","","html-keyboard-response","211","599990","0.0-1.0-279.0","0","0","81300","","null","","","null","30","","","","","","","","","","","","","","","NaN",""
"","S1","","html-keyboard-response","212","600243","0.0-1.0-281.0","0","0","81300","","null","","","null","31","","","","","","","","","","","","","","","",""
"","ISI","","html-keyboard-response","213","602246","0.0-1.0-282.0","0","0","81300","","null","","","null","31","NaN","","","","","","","","","","","","","","",""
"","S2","","html-keyboard-response","214","602499","0.0-1.0-283.0","0","0","81300","","null","","","null","31","","NaN","","","","","","","","","","","","","",""
"","response","","html-keyboard-response","215","603327","0.0-1.0-284.0","0","0","81300","","827","","","75","31","","","1","31","training","adjacent","EF","5","6","M.jpg","R.jpg","0","1","0","",""
"","feedback","","html-keyboard-response","216","604330","0.0-1.0-285.0-0.0","0","0","81300","","null","","","null","31","","","","","","","","","","","","","","","",""
"","time_out","","html-keyboard-response","217","606332","0.0-1.0-287.0-0.0","0","0","81300","","null","","","null","31","","","","","","","","","","","","","","","",""
"","ITI","","html-keyboard-response","218","607335","0.0-1.0-288.0","0","0","81300","","null","","","null","31","","","","","","","","","","","","","","","NaN",""
"","S1","","html-keyboard-response","219","607588","0.0-1.0-290.0","0","0","81300","","null","","","null","32","","","","","","","","","","","","","","","",""
"","ISI","","html-keyboard-response","220","609591","0.0-1.0-291.0","0","0","81300","","null","","","null","32","NaN","","","","","","","","","","","","","","",""
"","S2","","html-keyboard-response","221","609844","0.0-1.0-292.0","0","0","81300","","null","","","null","32","","NaN","","","","","","","","","","","","","",""
"","response","","html-keyboard-response","222","610737","0.0-1.0-293.0","0","0","81300","","891","","","75","32","","","1","32","training","adjacent","GF","7","6","P.jpg","R.jpg","0","0","1","",""
"","feedback","","html-keyboard-response","223","611739","0.0-1.0-294.0-0.0","0","0","81300","","null","","","null","32","","","","","","","","","","","","","","","",""
"","ITI","","html-keyboard-response","224","612742","0.0-1.0-297.0","0","0","81300","","null","","","null","32","","","","","","","","","","","","","","","NaN",""
"","S1","","html-keyboard-response","225","612994","0.0-1.0-299.0","0","0","81300","","null","","","null","33","","","","","","","","","","","","","","","",""
"","ISI","","html-keyboard-response","226","614997","0.0-1.0-300.0","0","0","81300","","null","","","null","33","NaN","","","","","","","","","","","","","","",""
"","S2","","html-keyboard-response","227","615250","0.0-1.0-301.0","0","0","81300","","null","","","null","33","","NaN","","","","","","","","","","","","","",""
"","response","","html-keyboard-response","228","616160","0.0-1.0-302.0","0","0","81300","","908","","","75","33","","","1","33","training","adjacent","CD","3","4","N.jpg","O.jpg","0","1","0","",""
"","feedback","","html-keyboard-response","229","617163","0.0-1.0-303.0-0.0","0","0","81300","","null","","","null","33","","","","","","","","","","","","","","","",""
"","time_out","","html-keyboard-response","230","619166","0.0-1.0-305.0-0.0","0","0","81300","","null","","","null","33","","","","","","","","","","","","","","","",""
"","ITI","","html-keyboard-response","231","620169","0.0-1.0-306.0","0","0","81300","","null","","","null","33","","","","","","","","","","","","","","","NaN",""
"","S1","","html-keyboard-response","232","620421","0.0-1.0-308.0","0","0","81300","","null","","","null","34","","","","","","","","","","","","","","","",""
"","ISI","","html-keyboard-response","233","622424","0.0-1.0-309.0","0","0","81300","","null","","","null","34","NaN","","","","","","","","","","","","","","",""
"","S2","","html-keyboard-response","234","622677","0.0-1.0-310.0","0","0","81300","","null","","","null","34","","NaN","","","","","","","","","","","","","",""
"","response","","html-keyboard-response","235","623482","0.0-1.0-311.0","0","0","81300","","804","","","68","34","","","1","34","training","adjacent","AB","1","2","L.jpg","Q.jpg","1","1","1","",""
"","feedback","","html-keyboard-response","236","624484","0.0-1.0-312.0-0.0","0","0","81300","","null","","","null","34","","","","","","","","","","","","","","","",""
"","ITI","","html-keyboard-response","237","625487","0.0-1.0-315.0","0","0","81300","","null","","","null","34","","","","","","","","","","","","","","","NaN",""
"","S1","","html-keyboard-response","238","625740","0.0-1.0-317.0","0","0","81300","","null","","","null","35","","","","","","","","","","","","","","","",""
"","ISI","","html-keyboard-response","239","627742","0.0-1.0-318.0","0","0","81300","","null","","","null","35","NaN","","","","","","","","","","","","","","",""
"","S2","","html-keyboard-response","240","627995","0.0-1.0-319.0","0","0","81300","","null","","","null","35","","NaN","","","","","","","","","","","","","",""
"","response","","html-keyboard-response","241","628771","0.0-1.0-320.0","0","0","81300","","774","","","75","35","","","1","35","training","adjacent","DC","4","3","O.jpg","N.jpg","0","0","1","",""
"","feedback","","html-keyboard-response","242","629774","0.0-1.0-321.0-0.0","0","0","81300","","null","","","null","35","","","","","","","","","","","","","","","",""
"","ITI","","html-keyboard-response","243","630777","0.0-1.0-324.0","0","0","81300","","null","","","null","35","","","","","","","","","","","","","","","NaN",""
"","S1","","html-keyboard-response","244","631029","0.0-1.0-326.0","0","0","81300","","null","","","null","36","","","","","","","","","","","","","","","",""
"","ISI","","html-keyboard-response","245","633032","0.0-1.0-327.0","0","0","81300","","null","","","null","36","NaN","","","","","","","","","","","","","","",""
"","S2","","html-keyboard-response","246","633284","0.0-1.0-328.0","0","0","81300","","null","","","null","36","","NaN","","","","","","","","","","","","","",""
"","response","","html-keyboard-response","247","634260","0.0-1.0-329.0","0","0","81300","","974","","","68","36","","","1","36","training","adjacent","GF","7","6","P.jpg","R.jpg","1","0","0","",""
"","feedback","","html-keyboard-response","248","635263","0.0-1.0-330.0-0.0","0","0","81300","","null","","","null","36","","","","","","","","","","","","","","","",""
"","time_out","","html-keyboard-response","249","637266","0.0-1.0-332.0-0.0","0","0","81300","","null","","","null","36","","","","","","","","","","","","","","","",""
"","ITI","","html-keyboard-response","250","638268","0.0-1.0-333.0","0","0","81300","","null","","","null","36","","","","","","","","","","","","","","","NaN",""
"","S1","","html-keyboard-response","251","638520","0.0-1.0-335.0","0","0","81300","","null","","","null","37","","","","","","","","","","","","","","","",""
"","ISI","","html-keyboard-response","252","640523","0.0-1.0-336.0","0","0","81300","","null","","","null","37","NaN","","","","","","","","","","","","","","",""
"","S2","","html-keyboard-response","253","640776","0.0-1.0-337.0","0","0","81300","","null","","","null","37","","NaN","","","","","","","","","","","","","",""
"","response","","html-keyboard-response","254","641726","0.0-1.0-338.0","0","0","81300","","949","","","68","37","","","1","37","training","adjacent","DE","4","5","O.jpg","M.jpg","1","1","1","",""
"","feedback","","html-keyboard-response","255","642730","0.0-1.0-339.0-0.0","0","0","81300","","null","","","null","37","","","","","","","","","","","","","","","",""
"","ITI","","html-keyboard-response","256","643733","0.0-1.0-342.0","0","0","81300","","null","","","null","37","","","","","","","","","","","","","","","NaN",""
"","S1","","html-keyboard-response","257","643985","0.0-1.0-344.0","0","0","81300","","null","","","null","38","","","","","","","","","","","","","","","",""
"","ISI","","html-keyboard-response","258","645988","0.0-1.0-345.0","0","0","81300","","null","","","null","38","NaN","","","","","","","","","","","","","","",""
"","S2","","html-keyboard-response","259","646240","0.0-1.0-346.0","0","0","81300","","null","","","null","38","","NaN","","","","","","","","","","","","","",""
"","response","","html-keyboard-response","260","647198","0.0-1.0-347.0","0","0","81300","","957","","","68","38","","","1","38","training","adjacent","CB","3","2","N.jpg","Q.jpg","1","0","0","",""
"","feedback","","html-keyboard-response","261","648200","0.0-1.0-348.0-0.0","0","0","81300","","null","","","null","38","","","","","","","","","","","","","","","",""
"","time_out","","html-keyboard-response","262","650202","0.0-1.0-350.0-0.0","0","0","81300","","null","","","null","38","","","","","","","","","","","","","","","",""
"","ITI","","html-keyboard-response","263","651205","0.0-1.0-351.0","0","0","81300","","null","","","null","38","","","","","","","","","","","","","","","NaN",""
"","S1","","html-keyboard-response","264","651458","0.0-1.0-353.0","0","0","81300","","null","","","null","39","","","","","","","","","","","","","","","",""
"","ISI","","html-keyboard-response","265","653460","0.0-1.0-354.0","0","0","81300","","null","","","null","39","NaN","","","","","","","","","","","","","","",""
"","S2","","html-keyboard-response","266","653713","0.0-1.0-355.0","0","0","81300","","null","","","null","39","","NaN","","","","","","","","","","","","","",""
"","response","","html-keyboard-response","267","654741","0.0-1.0-356.0","0","0","81300","","1026","","","75","39","","","1","39","training","adjacent","CB","3","2","N.jpg","Q.jpg","0","0","1","",""
"","feedback","","html-keyboard-response","268","655743","0.0-1.0-357.0-0.0","0","0","81300","","null","","","null","39","","","","","","","","","","","","","","","",""
"","ITI","","html-keyboard-response","269","656746","0.0-1.0-360.0","0","0","81300","","null","","","null","39","","","","","","","","","","","","","","","NaN",""
"","S1","","html-keyboard-response","270","656999","0.0-1.0-362.0","0","0","81300","","null","","","null","40","","","","","","","","","","","","","","","",""
"","ISI","","html-keyboard-response","271","659002","0.0-1.0-363.0","0","0","81300","","null","","","null","40","NaN","","","","","","","","","","","","","","",""
"","S2","","html-keyboard-response","272","659255","0.0-1.0-364.0","0","0","81300","","null","","","null","40","","NaN","","","","","","","","","","","","","",""
"","response","","html-keyboard-response","273","660088","0.0-1.0-365.0","0","0","81300","","831","","","68","40","","","1","40","training","adjacent","DC","4","3","O.jpg","N.jpg","1","0","0","",""
"","feedback","","html-keyboard-response","274","661091","0.0-1.0-366.0-0.0","0","0","81300","","null","","","null","40","","","","","","","","","","","","","","","",""
"","time_out","","html-keyboard-response","275","663094","0.0-1.0-368.0-0.0","0","0","81300","","null","","","null","40","","","","","","","","","","","","","","","",""
"","ITI","","html-keyboard-response","276","664096","0.0-1.0-369.0","0","0","81300","","null","","","null","40","","","","","","","","","","","","","","","NaN",""
"","S1","","html-keyboard-response","277","664349","0.0-1.0-371.0","0","0","81300","","null","","","null","41","","","","","","","","","","","","","","","",""
"","ISI","","html-keyboard-response","278","666351","0.0-1.0-372.0","0","0","81300","","null","","","null","41","NaN","","","","","","","","","","","","","","",""
"","S2","","html-keyboard-response","279","666603","0.0-1.0-373.0","0","0","81300","","null","","","null","41","","NaN","","","","","","","","","","","","","",""
"","response","","html-keyboard-response","280","667534","0.0-1.0-374.0","0","0","81300","","929","","","68","41","","","1","41","training","adjacent","GF","7","6","P.jpg","R.jpg","1","0","0","",""
"","feedback","","html-keyboard-response","281","668536","0.0-1.0-375.0-0.0","0","0","81300","","null","","","null","41","","","","","","","","","","","","","","","",""
"","time_out","","html-keyboard-response","282","670538","0.0-1.0-377.0-0.0","0","0","81300","","null","","","null","41","","","","","","","","","","","","","","","",""
"","ITI","","html-keyboard-response","283","671541","0.0-1.0-378.0","0","0","81300","","null","","","null","41","","","","","","","","","","","","","","","NaN",""
"","S1","","html-keyboard-response","284","671794","0.0-1.0-380.0","0","0","81300","","null","","","null","42","","","","","","","","","","","","","","","",""
"","ISI","","html-keyboard-response","285","673797","0.0-1.0-381.0","0","0","81300","","null","","","null","42","NaN","","","","","","","","","","","","","","",""
"","S2","","html-keyboard-response","286","674050","0.0-1.0-382.0","0","0","81300","","null","","","null","42","","NaN","","","","","","","","","","","","","",""
"","response","","html-keyboard-response","287","675066","0.0-1.0-383.0","0","0","81300","","1015","","","75","42","","","1","42","training","adjacent","ED","5","4","M.jpg","O.jpg","0","0","1","",""
"","feedback","","html-keyboard-response","288","676070","0.0-1.0-384.0-0.0","0","0","81300","","null","","","null","42","","","","","","","","","","","","","","","",""
"","ITI","","html-keyboard-response","289","677073","0.0-1.0-387.0","0","0","81300","","null","","","null","42","","","","","","","","","","","","","","","NaN",""
"","S1","","html-keyboard-response","290","677325","0.0-1.0-389.0","0","0","81300","","null","","","null","43","","","","","","","","","","","","","","","",""
"","ISI","","html-keyboard-response","291","679327","0.0-1.0-390.0","0","0","81300","","null","","","null","43","NaN","","","","","","","","","","","","","","",""
"","S2","","html-keyboard-response","292","679579","0.0-1.0-391.0","0","0","81300","","null","","","null","43","","NaN","","","","","","","","","","","","","",""
"","response","","html-keyboard-response","293","680155","0.0-1.0-392.0","0","0","81300","","575","","","75","43","","","1","43","training","adjacent","AB","1","2","L.jpg","Q.jpg","0","1","0","",""
"","feedback","","html-keyboard-response","294","681158","0.0-1.0-393.0-0.0","0","0","81300","","null","","","null","43","","","","","","","","","","","","","","","",""
"","time_out","","html-keyboard-response","295","683161","0.0-1.0-395.0-0.0","0","0","81300","","null","","","null","43","","","","","","","","","","","","","","","",""
"","ITI","","html-keyboard-response","296","684164","0.0-1.0-396.0","0","0","81300","","null","","","null","43","","","","","","","","","","","","","","","NaN",""
"","S1","","html-keyboard-response","297","684417","0.0-1.0-398.0","0","0","81300","","null","","","null","44","","","","","","","","","","","","","","","",""
"","ISI","","html-keyboard-response","298","686419","0.0-1.0-399.0","0","0","81300","","null","","","null","44","NaN","","","","","","","","","","","","","","",""
"","S2","","html-keyboard-response","299","686673","0.0-1.0-400.0","0","0","81300","","null","","","null","44","","NaN","","","","","","","","","","","","","",""
"","response","","html-keyboard-response","300","687508","0.0-1.0-401.0","0","0","81300","","834","","","68","44","","","1","44","training","adjacent","FG","6","7","R.jpg","P.jpg","1","1","1","",""
"","feedback","","html-keyboard-response","301","688510","0.0-1.0-402.0-0.0","0","0","81300","","null","","","null","44","","","","","","","","","","","","","","","",""
"","ITI","","html-keyboard-response","302","689513","0.0-1.0-405.0","0","0","81300","","null","","","null","44","","","","","","","","","","","","","","","NaN",""
"","S1","","html-keyboard-response","303","689766","0.0-1.0-407.0","0","0","81300","","null","","","null","45","","","","","","","","","","","","","","","",""
"","ISI","","html-keyboard-response","304","691769","0.0-1.0-408.0","0","0","81300","","null","","","null","45","NaN","","","","","","","","","","","","","","",""
"","S2","","html-keyboard-response","305","692021","0.0-1.0-409.0","0","0","81300","","null","","","null","45","","NaN","","","","","","","","","","","","","",""
"","response","","html-keyboard-response","306","692925","0.0-1.0-410.0","0","0","81300","","902","","","68","45","","","1","45","training","adjacent","DE","4","5","O.jpg","M.jpg","1","1","1","",""
"","feedback","","html-keyboard-response","307","693928","0.0-1.0-411.0-0.0","0","0","81300","","null","","","null","45","","","","","","","","","","","","","","","",""
"","ITI","","html-keyboard-response","308","694931","0.0-1.0-414.0","0","0","81300","","null","","","null","45","","","","","","","","","","","","","","","NaN",""
"","S1","","html-keyboard-response","309","695183","0.0-1.0-416.0","0","0","81300","","null","","","null","46","","","","","","","","","","","","","","","",""
"","ISI","","html-keyboard-response","310","697186","0.0-1.0-417.0","0","0","81300","","null","","","null","46","NaN","","","","","","","","","","","","","","",""
"","S2","","html-keyboard-response","311","697439","0.0-1.0-418.0","0","0","81300","","null","","","null","46","","NaN","","","","","","","","","","","","","",""
"","response","","html-keyboard-response","312","698261","0.0-1.0-419.0","0","0","81300","","820","","","68","46","","","1","46","training","adjacent","AB","1","2","L.jpg","Q.jpg","1","1","1","",""
"","feedback","","html-keyboard-response","313","699263","0.0-1.0-420.0-0.0","0","0","81300","","null","","","null","46","","","","","","","","","","","","","","","",""
"","ITI","","html-keyboard-response","314","700266","0.0-1.0-423.0","0","0","81300","","null","","","null","46","","","","","","","","","","","","","","","NaN",""
"","S1","","html-keyboard-response","315","700519","0.0-1.0-425.0","0","0","81300","","null","","","null","47","","","","","","","","","","","","","","","",""
"","ISI","","html-keyboard-response","316","702522","0.0-1.0-426.0","0","0","81300","","null","","","null","47","NaN","","","","","","","","","","","","","","",""
"","S2","","html-keyboard-response","317","702775","0.0-1.0-427.0","0","0","81300","","null","","","null","47","","NaN","","","","","","","","","","","","","",""
"","response","","html-keyboard-response","318","703582","0.0-1.0-428.0","0","0","81300","","806","","","68","47","","","1","47","training","adjacent","EF","5","6","M.jpg","R.jpg","1","1","1","",""
"","feedback","","html-keyboard-response","319","704584","0.0-1.0-429.0-0.0","0","0","81300","","null","","","null","47","","","","","","","","","","","","","","","",""
"","ITI","","html-keyboard-response","320","705587","0.0-1.0-432.0","0","0","81300","","null","","","null","47","","","","","","","","","","","","","","","NaN",""
"","block_over","","html-keyboard-response","321","721193","0.0-1.0-433.0-0.0","0","0","81300","","15604","","","32","47","","","","","","","","","","","","","","","",""
"","S1","","html-keyboard-response","322","721445","0.0-1.0-434.0","0","0","81300","","null","","","null","48","","","","","","","","","","","","","","","",""
"","ISI","","html-keyboard-response","323","723448","0.0-1.0-435.0","0","0","81300","","null","","","null","48","NaN","","","","","","","","","","","","","","",""
"","S2","","html-keyboard-response","324","723701","0.0-1.0-436.0","0","0","81300","","null","","","null","48","","NaN","","","","","","","","","","","","","",""
"","response","","html-keyboard-response","325","724801","0.0-1.0-437.0","0","0","81300","","1098","","","68","48","","","2","48","training","adjacent","AB","1","2","L.jpg","Q.jpg","1","1","1","",""
"","feedback","","html-keyboard-response","326","725803","0.0-1.0-438.0-0.0","0","0","81300","","null","","","null","48","","","","","","","","","","","","","","","",""
"","ITI","","html-keyboard-response","327","726806","0.0-1.0-441.0","0","0","81300","","null","","","null","48","","","","","","","","","","","","","","","NaN",""
"","S1","","html-keyboard-response","328","727059","0.0-1.0-443.0","0","0","81300","","null","","","null","49","","","","","","","","","","","","","","","",""
"","ISI","","html-keyboard-response","329","729062","0.0-1.0-444.0","0","0","81300","","null","","","null","49","NaN","","","","","","","","","","","","","","",""
"","S2","","html-keyboard-response","330","729314","0.0-1.0-445.0","0","0","81300","","null","","","null","49","","NaN","","","","","","","","","","","","","",""
"","response","","html-keyboard-response","331","730058","0.0-1.0-446.0","0","0","81300","","742","","","68","49","","","2","49","training","adjacent","CB","3","2","N.jpg","Q.jpg","1","0","0","",""
"","feedback","","html-keyboard-response","332","731061","0.0-1.0-447.0-0.0","0","0","81300","","null","","","null","49","","","","","","","","","","","","","","","",""
"","time_out","","html-keyboard-response","333","733064","0.0-1.0-449.0-0.0","0","0","81300","","null","","","null","49","","","","","","","","","","","","","","","",""
"","ITI","","html-keyboard-response","334","734067","0.0-1.0-450.0","0","0","81300","","null","","","null","49","","","","","","","","","","","","","","","NaN",""
"","S1","","html-keyboard-response","335","734320","0.0-1.0-452.0","0","0","81300","","null","","","null","50","","","","","","","","","","","","","","","",""
"","ISI","","html-keyboard-response","336","736323","0.0-1.0-453.0","0","0","81300","","null","","","null","50","NaN","","","","","","","","","","","","","","",""
"","S2","","html-keyboard-response","337","736576","0.0-1.0-454.0","0","0","81300","","null","","","null","50","","NaN","","","","","","","","","","","","","",""
"","response","","html-keyboard-response","338","737235","0.0-1.0-455.0","0","0","81300","","657","","","75","50","","","2","50","training","adjacent","BC","2","3","Q.jpg","N.jpg","0","1","0","",""
"","feedback","","html-keyboard-response","339","738238","0.0-1.0-456.0-0.0","0","0","81300","","null","","","null","50","","","","","","","","","","","","","","","",""
"","time_out","","html-keyboard-response","340","740241","0.0-1.0-458.0-0.0","0","0","81300","","null","","","null","50","","","","","","","","","","","","","","","",""
"","ITI","","html-keyboard-response","341","741243","0.0-1.0-459.0","0","0","81300","","null","","","null","50","","","","","","","","","","","","","","","NaN",""
"","S1","","html-keyboard-response","342","741495","0.0-1.0-461.0","0","0","81300","","null","","","null","51","","","","","","","","","","","","","","","",""
"","ISI","","html-keyboard-response","343","743498","0.0-1.0-462.0","0","0","81300","","null","","","null","51","NaN","","","","","","","","","","","","","","",""
"","S2","","html-keyboard-response","344","743751","0.0-1.0-463.0","0","0","81300","","null","","","null","51","","NaN","","","","","","","","","","","","","",""
"","response","","html-keyboard-response","345","744580","0.0-1.0-464.0","0","0","81300","","828","","","68","51","","","2","51","training","adjacent","CD","3","4","N.jpg","O.jpg","1","1","1","",""
"","feedback","","html-keyboard-response","346","745582","0.0-1.0-465.0-0.0","0","0","81300","","null","","","null","51","","","","","","","","","","","","","","","",""
"","ITI","","html-keyboard-response","347","746584","0.0-1.0-468.0","0","0","81300","","null","","","null","51","","","","","","","","","","","","","","","NaN",""
"","S1","","html-keyboard-response","348","746836","0.0-1.0-470.0","0","0","81300","","null","","","null","52","","","","","","","","","","","","","","","",""
"","ISI","","html-keyboard-response","349","748839","0.0-1.0-471.0","0","0","81300","","null","","","null","52","NaN","","","","","","","","","","","","","","",""
"","S2","","html-keyboard-response","350","749092","0.0-1.0-472.0","0","0","81300","","null","","","null","52","","NaN","","","","","","","","","","","","","",""
"","response","","html-keyboard-response","351","749517","0.0-1.0-473.0","0","0","81300","","424","","","75","52","","","2","52","training","adjacent","ED","5","4","M.jpg","O.jpg","0","0","1","",""
"","feedback","","html-keyboard-response","352","750521","0.0-1.0-474.0-0.0","0","0","81300","","null","","","null","52","","","","","","","","","","","","","","","",""
"","ITI","","html-keyboard-response","353","751524","0.0-1.0-477.0","0","0","81300","","null","","","null","52","","","","","","","","","","","","","","","NaN",""
"","S1","","html-keyboard-response","354","751777","0.0-1.0-479.0","0","0","81300","","null","","","null","53","","","","","","","","","","","","","","","",""
"","ISI","","html-keyboard-response","355","753779","0.0-1.0-480.0","0","0","81300","","null","","","null","53","NaN","","","","","","","","","","","","","","",""
"","S2","","html-keyboard-response","356","754032","0.0-1.0-481.0","0","0","81300","","null","","","null","53","","NaN","","","","","","","","","","","","","",""
"","response","","html-keyboard-response","357","754718","0.0-1.0-482.0","0","0","81300","","684","","","68","53","","","2","53","training","adjacent","FE","6","5","R.jpg","M.jpg","1","0","0","",""
"","feedback","","html-keyboard-response","358","755721","0.0-1.0-483.0-0.0","0","0","81300","","null","","","null","53","","","","","","","","","","","","","","","",""
"","time_out","","html-keyboard-response","359","757724","0.0-1.0-485.0-0.0","0","0","81300","","null","","","null","53","","","","","","","","","","","","","","","",""
"","ITI","","html-keyboard-response","360","758727","0.0-1.0-486.0","0","0","81300","","null","","","null","53","","","","","","","","","","","","","","","NaN",""
"","S1","","html-keyboard-response","361","758980","0.0-1.0-488.0","0","0","81300","","null","","","null","54","","","","","","","","","","","","","","","",""
"","ISI","","html-keyboard-response","362","760983","0.0-1.0-489.0","0","0","81300","","null","","","null","54","NaN","","","","","","","","","","","","","","",""
"","S2","","html-keyboard-response","363","761235","0.0-1.0-490.0","0","0","81300","","null","","","null","54","","NaN","","","","","","","","","","","","","",""
"","response","","html-keyboard-response","364","761927","0.0-1.0-491.0","0","0","81300","","690","","","75","54","","","2","54","training","adjacent","BC","2","3","Q.jpg","N.jpg","0","1","0","",""
"","feedback","","html-keyboard-response","365","762930","0.0-1.0-492.0-0.0","0","0","81300","","null","","","null","54","","","","","","","","","","","","","","","",""
"","time_out","","html-keyboard-response","366","764933","0.0-1.0-494.0-0.0","0","0","81300","","null","","","null","54","","","","","","","","","","","","","","","",""
"","ITI","","html-keyboard-response","367","765936","0.0-1.0-495.0","0","0","81300","","null","","","null","54","","","","","","","","","","","","","","","NaN",""
"","S1","","html-keyboard-response","368","766189","0.0-1.0-497.0","0","0","81300","","null","","","null","55","","","","","","","","","","","","","","","",""
"","ISI","","html-keyboard-response","369","768192","0.0-1.0-498.0","0","0","81300","","null","","","null","55","NaN","","","","","","","","","","","","","","",""
"","S2","","html-keyboard-response","370","768444","0.0-1.0-499.0","0","0","81300","","null","","","null","55","","NaN","","","","","","","","","","","","","",""
"","response","","html-keyboard-response","371","769136","0.0-1.0-500.0","0","0","81300","","690","","","68","55","","","2","55","training","adjacent","FG","6","7","R.jpg","P.jpg","1","1","1","",""
"","feedback","","html-keyboard-response","372","770139","0.0-1.0-501.0-0.0","0","0","81300","","null","","","null","55","","","","","","","","","","","","","","","",""
"","ITI","","html-keyboard-response","373","771142","0.0-1.0-504.0","0","0","81300","","null","","","null","55","","","","","","","","","","","","","","","NaN",""
"","S1","","html-keyboard-response","374","771395","0.0-1.0-506.0","0","0","81300","","null","","","null","56","","","","","","","","","","","","","","","",""
"","ISI","","html-keyboard-response","375","773398","0.0-1.0-507.0","0","0","81300","","null","","","null","56","NaN","","","","","","","","","","","","","","",""
"","S2","","html-keyboard-response","376","773651","0.0-1.0-508.0","0","0","81300","","null","","","null","56","","NaN","","","","","","","","","","","","","",""
"","response","","html-keyboard-response","377","774625","0.0-1.0-509.0","0","0","81300","","973","","","75","56","","","2","56","training","adjacent","ED","5","4","M.jpg","O.jpg","0","0","1","",""
"","feedback","","html-keyboard-response","378","775628","0.0-1.0-510.0-0.0","0","0","81300","","null","","","null","56","","","","","","","","","","","","","","","",""
"","ITI","","html-keyboard-response","379","776631","0.0-1.0-513.0","0","0","81300","","null","","","null","56","","","","","","","","","","","","","","","NaN",""
"","S1","","html-keyboard-response","380","776884","0.0-1.0-515.0","0","0","81300","","null","","","null","57","","","","","","","","","","","","","","","",""
"","ISI","","html-keyboard-response","381","778887","0.0-1.0-516.0","0","0","81300","","null","","","null","57","NaN","","","","","","","","","","","","","","",""
"","S2","","html-keyboard-response","382","779140","0.0-1.0-517.0","0","0","81300","","null","","","null","57","","NaN","","","","","","","","","","","","","",""
"","response","","html-keyboard-response","383","779905","0.0-1.0-518.0","0","0","81300","","764","","","68","57","","","2","57","training","adjacent","FE","6","5","R.jpg","M.jpg","1","0","0","",""
"","feedback","","html-keyboard-response","384","780909","0.0-1.0-519.0-0.0","0","0","81300","","null","","","null","57","","","","","","","","","","","","","","","",""
"","time_out","","html-keyboard-response","385","782912","0.0-1.0-521.0-0.0","0","0","81300","","null","","","null","57","","","","","","","","","","","","","","","",""
"","ITI","","html-keyboard-response","386","783915","0.0-1.0-522.0","0","0","81300","","null","","","null","57","","","","","","","","","","","","","","","NaN",""
"","S1","","html-keyboard-response","387","784167","0.0-1.0-524.0","0","0","81300","","null","","","null","58","","","","","","","","","","","","","","","",""
"","ISI","","html-keyboard-response","388","786169","0.0-1.0-525.0","0","0","81300","","null","","","null","58","NaN","","","","","","","","","","","","","","",""
"","S2","","html-keyboard-response","389","786422","0.0-1.0-526.0","0","0","81300","","null","","","null","58","","NaN","","","","","","","","","","","","","",""
"","response","","html-keyboard-response","390","787195","0.0-1.0-527.0","0","0","81300","","772","","","68","58","","","2","58","training","adjacent","DC","4","3","O.jpg","N.jpg","1","0","0","",""
"","feedback","","html-keyboard-response","391","788197","0.0-1.0-528.0-0.0","0","0","81300","","null","","","null","58","","","","","","","","","","","","","","","",""
"","time_out","","html-keyboard-response","392","790199","0.0-1.0-530.0-0.0","0","0","81300","","null","","","null","58","","","","","","","","","","","","","","","",""
"","ITI","","html-keyboard-response","393","791202","0.0-1.0-531.0","0","0","81300","","null","","","null","58","","","","","","","","","","","","","","","NaN",""
"","S1","","html-keyboard-response","394","791455","0.0-1.0-533.0","0","0","81300","","null","","","null","59","","","","","","","","","","","","","","","",""
"","ISI","","html-keyboard-response","395","793457","0.0-1.0-534.0","0","0","81300","","null","","","null","59","NaN","","","","","","","","","","","","","","",""
"","S2","","html-keyboard-response","396","793710","0.0-1.0-535.0","0","0","81300","","null","","","null","59","","NaN","","","","","","","","","","","","","",""
"","response","","html-keyboard-response","397","794292","0.0-1.0-536.0","0","0","81300","","580","","","75","59","","","2","59","training","adjacent","DE","4","5","O.jpg","M.jpg","0","1","0","",""
"","feedback","","html-keyboard-response","398","795294","0.0-1.0-537.0-0.0","0","0","81300","","null","","","null","59","","","","","","","","","","","","","","","",""
"","time_out","","html-keyboard-response","399","797296","0.0-1.0-539.0-0.0","0","0","81300","","null","","","null","59","","","","","","","","","","","","","","","",""
"","ITI","","html-keyboard-response","400","798299","0.0-1.0-540.0","0","0","81300","","null","","","null","59","","","","","","","","","","","","","","","NaN",""
"","S1","","html-keyboard-response","401","798552","0.0-1.0-542.0","0","0","81300","","null","","","null","60","","","","","","","","","","","","","","","",""
"","ISI","","html-keyboard-response","402","800555","0.0-1.0-543.0","0","0","81300","","null","","","null","60","NaN","","","","","","","","","","","","","","",""
"","S2","","html-keyboard-response","403","800808","0.0-1.0-544.0","0","0","81300","","null","","","null","60","","NaN","","","","","","","","","","","","","",""
"","response","","html-keyboard-response","404","801565","0.0-1.0-545.0","0","0","81300","","755","","","68","60","","","2","60","training","adjacent","FG","6","7","R.jpg","P.jpg","1","1","1","",""
"","feedback","","html-keyboard-response","405","802568","0.0-1.0-546.0-0.0","0","0","81300","","null","","","null","60","","","","","","","","","","","","","","","",""
"","ITI","","html-keyboard-response","406","803570","0.0-1.0-549.0","0","0","81300","","null","","","null","60","","","","","","","","","","","","","","","NaN",""
"","S1","","html-keyboard-response","407","803822","0.0-1.0-551.0","0","0","81300","","null","","","null","61","","","","","","","","","","","","","","","",""
"","ISI","","html-keyboard-response","408","805825","0.0-1.0-552.0","0","0","81300","","null","","","null","61","NaN","","","","","","","","","","","","","","",""
"","S2","","html-keyboard-response","409","806077","0.0-1.0-553.0","0","0","81300","","null","","","null","61","","NaN","","","","","","","","","","","","","",""
"","response","","html-keyboard-response","410","806941","0.0-1.0-554.0","0","0","81300","","863","","","68","61","","","2","61","training","adjacent","ED","5","4","M.jpg","O.jpg","1","0","0","",""
"","feedback","","html-keyboard-response","411","807944","0.0-1.0-555.0-0.0","0","0","81300","","null","","","null","61","","","","","","","","","","","","","","","",""
"","time_out","","html-keyboard-response","412","809947","0.0-1.0-557.0-0.0","0","0","81300","","null","","","null","61","","","","","","","","","","","","","","","",""
"","ITI","","html-keyboard-response","413","810950","0.0-1.0-558.0","0","0","81300","","null","","","null","61","","","","","","","","","","","","","","","NaN",""
"","S1","","html-keyboard-response","414","811203","0.0-1.0-560.0","0","0","81300","","null","","","null","62","","","","","","","","","","","","","","","",""
"","ISI","","html-keyboard-response","415","813206","0.0-1.0-561.0","0","0","81300","","null","","","null","62","NaN","","","","","","","","","","","","","","",""
"","S2","","html-keyboard-response","416","813459","0.0-1.0-562.0","0","0","81300","","null","","","null","62","","NaN","","","","","","","","","","","","","",""
"","response","","html-keyboard-response","417","814486","0.0-1.0-563.0","0","0","81300","","1025","","","68","62","","","2","62","training","adjacent","BC","2","3","Q.jpg","N.jpg","1","1","1","",""
"","feedback","","html-keyboard-response","418","815488","0.0-1.0-564.0-0.0","0","0","81300","","null","","","null","62","","","","","","","","","","","","","","","",""
"","ITI","","html-keyboard-response","419","816491","0.0-1.0-567.0","0","0","81300","","null","","","null","62","","","","","","","","","","","","","","","NaN",""
"","S1","","html-keyboard-response","420","816744","0.0-1.0-569.0","0","0","81300","","null","","","null","63","","","","","","","","","","","","","","","",""
"","ISI","","html-keyboard-response","421","818747","0.0-1.0-570.0","0","0","81300","","null","","","null","63","NaN","","","","","","","","","","","","","","",""
"","S2","","html-keyboard-response","422","818999","0.0-1.0-571.0","0","0","81300","","null","","","null","63","","NaN","","","","","","","","","","","","","",""
"","response","","html-keyboard-response","423","819839","0.0-1.0-572.0","0","0","81300","","838","","","75","63","","","2","63","training","adjacent","DC","4","3","O.jpg","N.jpg","0","0","1","",""
"","feedback","","html-keyboard-response","424","820842","0.0-1.0-573.0-0.0","0","0","81300","","null","","","null","63","","","","","","","","","","","","","","","",""
"","ITI","","html-keyboard-response","425","821845","0.0-1.0-576.0","0","0","81300","","null","","","null","63","","","","","","","","","","","","","","","NaN",""
"","S1","","html-keyboard-response","426","822098","0.0-1.0-578.0","0","0","81300","","null","","","null","64","","","","","","","","","","","","","","","",""
"","ISI","","html-keyboard-response","427","824101","0.0-1.0-579.0","0","0","81300","","null","","","null","64","NaN","","","","","","","","","","","","","","",""
"","S2","","html-keyboard-response","428","824354","0.0-1.0-580.0","0","0","81300","","null","","","null","64","","NaN","","","","","","","","","","","","","",""
"","response","","html-keyboard-response","429","824928","0.0-1.0-581.0","0","0","81300","","573","","","68","64","","","2","64","training","adjacent","CD","3","4","N.jpg","O.jpg","1","1","1","",""
"","feedback","","html-keyboard-response","430","825931","0.0-1.0-582.0-0.0","0","0","81300","","null","","","null","64","","","","","","","","","","","","","","","",""
"","ITI","","html-keyboard-response","431","826934","0.0-1.0-585.0","0","0","81300","","null","","","null","64","","","","","","","","","","","","","","","NaN",""
"","S1","","html-keyboard-response","432","827187","0.0-1.0-587.0","0","0","81300","","null","","","null","65","","","","","","","","","","","","","","","",""
"","ISI","","html-keyboard-response","433","829190","0.0-1.0-588.0","0","0","81300","","null","","","null","65","NaN","","","","","","","","","","","","","","",""
"","S2","","html-keyboard-response","434","829442","0.0-1.0-589.0","0","0","81300","","null","","","null","65","","NaN","","","","","","","","","","","","","",""
"","response","","html-keyboard-response","435","830721","0.0-1.0-590.0","0","0","81300","","1278","","","68","65","","","2","65","training","adjacent","FG","6","7","R.jpg","P.jpg","1","1","1","",""
"","feedback","","html-keyboard-response","436","831725","0.0-1.0-591.0-0.0","0","0","81300","","null","","","null","65","","","","","","","","","","","","","","","",""
"","ITI","","html-keyboard-response","437","832729","0.0-1.0-594.0","0","0","81300","","null","","","null","65","","","","","","","","","","","","","","","NaN",""
"","S1","","html-keyboard-response","438","832982","0.0-1.0-596.0","0","0","81300","","null","","","null","66","","","","","","","","","","","","","","","",""
"","ISI","","html-keyboard-response","439","834985","0.0-1.0-597.0","0","0","81300","","null","","","null","66","NaN","","","","","","","","","","","","","","",""
"","S2","","html-keyboard-response","440","835238","0.0-1.0-598.0","0","0","81300","","null","","","null","66","","NaN","","","","","","","","","","","","","",""
"","response","","html-keyboard-response","441","836136","0.0-1.0-599.0","0","0","81300","","898","","","75","66","","","2","66","training","adjacent","AB","1","2","L.jpg","Q.jpg","0","1","0","",""
"","feedback","","html-keyboard-response","442","837139","0.0-1.0-600.0-0.0","0","0","81300","","null","","","null","66","","","","","","","","","","","","","","","",""
"","time_out","","html-keyboard-response","443","839142","0.0-1.0-602.0-0.0","0","0","81300","","null","","","null","66","","","","","","","","","","","","","","","",""
"","ITI","","html-keyboard-response","444","840145","0.0-1.0-603.0","0","0","81300","","null","","","null","66","","","","","","","","","","","","","","","NaN",""
"","S1","","html-keyboard-response","445","840397","0.0-1.0-605.0","0","0","81300","","null","","","null","67","","","","","","","","","","","","","","","",""
"","ISI","","html-keyboard-response","446","842400","0.0-1.0-606.0","0","0","81300","","null","","","null","67","NaN","","","","","","","","","","","","","","",""
"","S2","","html-keyboard-response","447","842653","0.0-1.0-607.0","0","0","81300","","null","","","null","67","","NaN","","","","","","","","","","","","","",""
"","response","","html-keyboard-response","448","843625","0.0-1.0-608.0","0","0","81300","","970","","","75","67","","","2","67","training","adjacent","BC","2","3","Q.jpg","N.jpg","0","1","0","",""
"","feedback","","html-keyboard-response","449","844626","0.0-1.0-609.0-0.0","0","0","81300","","null","","","null","67","","","","","","","","","","","","","","","",""
"","time_out","","html-keyboard-response","450","846629","0.0-1.0-611.0-0.0","0","0","81300","","null","","","null","67","","","","","","","","","","","","","","","",""
"","ITI","","html-keyboard-response","451","847632","0.0-1.0-612.0","0","0","81300","","null","","","null","67","","","","","","","","","","","","","","","NaN",""
"","S1","","html-keyboard-response","452","847884","0.0-1.0-614.0","0","0","81300","","null","","","null","68","","","","","","","","","","","","","","","",""
"","ISI","","html-keyboard-response","453","849887","0.0-1.0-615.0","0","0","81300","","null","","","null","68","NaN","","","","","","","","","","","","","","",""
"","S2","","html-keyboard-response","454","850139","0.0-1.0-616.0","0","0","81300","","null","","","null","68","","NaN","","","","","","","","","","","","","",""
"","response","","html-keyboard-response","455","850905","0.0-1.0-617.0","0","0","81300","","764","","","68","68","","","2","68","training","adjacent","FE","6","5","R.jpg","M.jpg","1","0","0","",""
"","feedback","","html-keyboard-response","456","851908","0.0-1.0-618.0-0.0","0","0","81300","","null","","","null","68","","","","","","","","","","","","","","","",""
"","time_out","","html-keyboard-response","457","853911","0.0-1.0-620.0-0.0","0","0","81300","","null","","","null","68","","","","","","","","","","","","","","","",""
"","ITI","","html-keyboard-response","458","854914","0.0-1.0-621.0","0","0","81300","","null","","","null","68","","","","","","","","","","","","","","","NaN",""
"","S1","","html-keyboard-response","459","855166","0.0-1.0-623.0","0","0","81300","","null","","","null","69","","","","","","","","","","","","","","","",""
"","ISI","","html-keyboard-response","460","857169","0.0-1.0-624.0","0","0","81300","","null","","","null","69","NaN","","","","","","","","","","","","","","",""
"","S2","","html-keyboard-response","461","857421","0.0-1.0-625.0","0","0","81300","","null","","","null","69","","NaN","","","","","","","","","","","","","",""
"","response","","html-keyboard-response","462","858325","0.0-1.0-626.0","0","0","81300","","902","","","68","69","","","2","69","training","adjacent","EF","5","6","M.jpg","R.jpg","1","1","1","",""
"","feedback","","html-keyboard-response","463","859327","0.0-1.0-627.0-0.0","0","0","81300","","null","","","null","69","","","","","","","","","","","","","","","",""
"","ITI","","html-keyboard-response","464","860330","0.0-1.0-630.0","0","0","81300","","null","","","null","69","","","","","","","","","","","","","","","NaN",""
"","S1","","html-keyboard-response","465","860582","0.0-1.0-632.0","0","0","81300","","null","","","null","70","","","","","","","","","","","","","","","",""
"","ISI","","html-keyboard-response","466","862585","0.0-1.0-633.0","0","0","81300","","null","","","null","70","NaN","","","","","","","","","","","","","","",""
"","S2","","html-keyboard-response","467","862838","0.0-1.0-634.0","0","0","81300","","null","","","null","70","","NaN","","","","","","","","","","","","","",""
"","response","","html-keyboard-response","468","863429","0.0-1.0-635.0","0","0","81300","","590","","","75","70","","","2","70","training","adjacent","BA","2","1","Q.jpg","L.jpg","0","0","1","",""
"","feedback","","html-keyboard-response","469","864433","0.0-1.0-636.0-0.0","0","0","81300","","null","","","null","70","","","","","","","","","","","","","","","",""
"","ITI","","html-keyboard-response","470","865435","0.0-1.0-639.0","0","0","81300","","null","","","null","70","","","","","","","","","","","","","","","NaN",""
"","S1","","html-keyboard-response","471","865688","0.0-1.0-641.0","0","0","81300","","null","","","null","71","","","","","","","","","","","","","","","",""
"","ISI","","html-keyboard-response","472","867691","0.0-1.0-642.0","0","0","81300","","null","","","null","71","NaN","","","","","","","","","","","","","","",""
"","S2","","html-keyboard-response","473","867943","0.0-1.0-643.0","0","0","81300","","null","","","null","71","","NaN","","","","","","","","","","","","","",""
"","response","","html-keyboard-response","474","868838","0.0-1.0-644.0","0","0","81300","","894","","","75","71","","","2","71","training","adjacent","ED","5","4","M.jpg","O.jpg","0","0","1","",""
"","feedback","","html-keyboard-response","475","869841","0.0-1.0-645.0-0.0","0","0","81300","","null","","","null","71","","","","","","","","","","","","","","","",""
"","ITI","","html-keyboard-response","476","870844","0.0-1.0-648.0","0","0","81300","","null","","","null","71","","","","","","","","","","","","","","","NaN",""
"","S1","","html-keyboard-response","477","871097","0.0-1.0-650.0","0","0","81300","","null","","","null","72","","","","","","","","","","","","","","","",""
"","ISI","","html-keyboard-response","478","873099","0.0-1.0-651.0","0","0","81300","","null","","","null","72","NaN","","","","","","","","","","","","","","",""
"","S2","","html-keyboard-response","479","873352","0.0-1.0-652.0","0","0","81300","","null","","","null","72","","NaN","","","","","","","","","","","","","",""
"","response","","html-keyboard-response","480","874216","0.0-1.0-653.0","0","0","81300","","863","","","75","72","","","2","72","training","adjacent","CD","3","4","N.jpg","O.jpg","0","1","0","",""
"","feedback","","html-keyboard-response","481","875219","0.0-1.0-654.0-0.0","0","0","81300","","null","","","null","72","","","","","","","","","","","","","","","",""
"","time_out","","html-keyboard-response","482","877222","0.0-1.0-656.0-0.0","0","0","81300","","null","","","null","72","","","","","","","","","","","","","","","",""
"","ITI","","html-keyboard-response","483","878225","0.0-1.0-657.0","0","0","81300","","null","","","null","72","","","","","","","","","","","","","","","NaN",""
"","S1","","html-keyboard-response","484","878477","0.0-1.0-659.0","0","0","81300","","null","","","null","73","","","","","","","","","","","","","","","",""
"","ISI","","html-keyboard-response","485","880480","0.0-1.0-660.0","0","0","81300","","null","","","null","73","NaN","","","","","","","","","","","","","","",""
"","S2","","html-keyboard-response","486","880733","0.0-1.0-661.0","0","0","81300","","null","","","null","73","","NaN","","","","","","","","","","","","","",""
"","response","","html-keyboard-response","487","881385","0.0-1.0-662.0","0","0","81300","","651","","","68","73","","","2","73","training","adjacent","GF","7","6","P.jpg","R.jpg","1","0","0","",""
"","feedback","","html-keyboard-response","488","882387","0.0-1.0-663.0-0.0","0","0","81300","","null","","","null","73","","","","","","","","","","","","","","","",""
"","time_out","","html-keyboard-response","489","884390","0.0-1.0-665.0-0.0","0","0","81300","","null","","","null","73","","","","","","","","","","","","","","","",""
"","ITI","","html-keyboard-response","490","885393","0.0-1.0-666.0","0","0","81300","","null","","","null","73","","","","","","","","","","","","","","","NaN",""
"","S1","","html-keyboard-response","491","885646","0.0-1.0-668.0","0","0","81300","","null","","","null","74","","","","","","","","","","","","","","","",""
"","ISI","","html-keyboard-response","492","887649","0.0-1.0-669.0","0","0","81300","","null","","","null","74","NaN","","","","","","","","","","","","","","",""
"","S2","","html-keyboard-response","493","887901","0.0-1.0-670.0","0","0","81300","","null","","","null","74","","NaN","","","","","","","","","","","","","",""
"","response","","html-keyboard-response","494","888506","0.0-1.0-671.0","0","0","81300","","604","","","75","74","","","2","74","training","adjacent","AB","1","2","L.jpg","Q.jpg","0","1","0","",""
"","feedback","","html-keyboard-response","495","889509","0.0-1.0-672.0-0.0","0","0","81300","","null","","","null","74","","","","","","","","","","","","","","","",""
"","time_out","","html-keyboard-response","496","891511","0.0-1.0-674.0-0.0","0","0","81300","","null","","","null","74","","","","","","","","","","","","","","","",""
"","ITI","","html-keyboard-response","497","892514","0.0-1.0-675.0","0","0","81300","","null","","","null","74","","","","","","","","","","","","","","","NaN",""
"","S1","","html-keyboard-response","498","892767","0.0-1.0-677.0","0","0","81300","","null","","","null","75","","","","","","","","","","","","","","","",""
"","ISI","","html-keyboard-response","499","894770","0.0-1.0-678.0","0","0","81300","","null","","","null","75","NaN","","","","","","","","","","","","","","",""
"","S2","","html-keyboard-response","500","895022","0.0-1.0-679.0","0","0","81300","","null","","","null","75","","NaN","","","","","","","","","","","","","",""
"","response","","html-keyboard-response","501","895635","0.0-1.0-680.0","0","0","81300","","611","","","75","75","","","2","75","training","adjacent","DE","4","5","O.jpg","M.jpg","0","1","0","",""
"","feedback","","html-keyboard-response","502","896638","0.0-1.0-681.0-0.0","0","0","81300","","null","","","null","75","","","","","","","","","","","","","","","",""
"","time_out","","html-keyboard-response","503","898641","0.0-1.0-683.0-0.0","0","0","81300","","null","","","null","75","","","","","","","","","","","","","","","",""
"","ITI","","html-keyboard-response","504","899643","0.0-1.0-684.0","0","0","81300","","null","","","null","75","","","","","","","","","","","","","","","NaN",""
"","S1","","html-keyboard-response","505","899896","0.0-1.0-686.0","0","0","81300","","null","","","null","76","","","","","","","","","","","","","","","",""
"","ISI","","html-keyboard-response","506","901899","0.0-1.0-687.0","0","0","81300","","null","","","null","76","NaN","","","","","","","","","","","","","","",""
"","S2","","html-keyboard-response","507","902151","0.0-1.0-688.0","0","0","81300","","null","","","null","76","","NaN","","","","","","","","","","","","","",""
"","response","","html-keyboard-response","508","902604","0.0-1.0-689.0","0","0","81300","","451","","","68","76","","","2","76","training","adjacent","BA","2","1","Q.jpg","L.jpg","1","0","0","",""
"","feedback","","html-keyboard-response","509","903606","0.0-1.0-690.0-0.0","0","0","81300","","null","","","null","76","","","","","","","","","","","","","","","",""
"","time_out","","html-keyboard-response","510","905609","0.0-1.0-692.0-0.0","0","0","81300","","null","","","null","76","","","","","","","","","","","","","","","",""
"","ITI","","html-keyboard-response","511","906611","0.0-1.0-693.0","0","0","81300","","null","","","null","76","","","","","","","","","","","","","","","NaN",""
"","S1","","html-keyboard-response","512","906864","0.0-1.0-695.0","0","0","81300","","null","","","null","77","","","","","","","","","","","","","","","",""
"","ISI","","html-keyboard-response","513","908867","0.0-1.0-696.0","0","0","81300","","null","","","null","77","NaN","","","","","","","","","","","","","","",""
"","S2","","html-keyboard-response","514","909120","0.0-1.0-697.0","0","0","81300","","null","","","null","77","","NaN","","","","","","","","","","","","","",""
"","response","","html-keyboard-response","515","910005","0.0-1.0-698.0","0","0","81300","","883","","","68","77","","","2","77","training","adjacent","CB","3","2","N.jpg","Q.jpg","1","0","0","",""
"","feedback","","html-keyboard-response","516","911008","0.0-1.0-699.0-0.0","0","0","81300","","null","","","null","77","","","","","","","","","","","","","","","",""
"","time_out","","html-keyboard-response","517","913011","0.0-1.0-701.0-0.0","0","0","81300","","null","","","null","77","","","","","","","","","","","","","","","",""
"","ITI","","html-keyboard-response","518","914014","0.0-1.0-702.0","0","0","81300","","null","","","null","77","","","","","","","","","","","","","","","NaN",""
"","S1","","html-keyboard-response","519","914267","0.0-1.0-704.0","0","0","81300","","null","","","null","78","","","","","","","","","","","","","","","",""
"","ISI","","html-keyboard-response","520","916269","0.0-1.0-705.0","0","0","81300","","null","","","null","78","NaN","","","","","","","","","","","","","","",""
"","S2","","html-keyboard-response","521","916521","0.0-1.0-706.0","0","0","81300","","null","","","null","78","","NaN","","","","","","","","","","","","","",""
"","response","","html-keyboard-response","522","917534","0.0-1.0-707.0","0","0","81300","","1012","","","68","78","","","2","78","training","adjacent","DE","4","5","O.jpg","M.jpg","1","1","1","",""
"","feedback","","html-keyboard-response","523","918537","0.0-1.0-708.0-0.0","0","0","81300","","null","","","null","78","","","","","","","","","","","","","","","",""
"","ITI","","html-keyboard-response","524","919540","0.0-1.0-711.0","0","0","81300","","null","","","null","78","","","","","","","","","","","","","","","NaN",""
"","S1","","html-keyboard-response","525","919793","0.0-1.0-713.0","0","0","81300","","null","","","null","79","","","","","","","","","","","","","","","",""
"","ISI","","html-keyboard-response","526","921797","0.0-1.0-714.0","0","0","81300","","null","","","null","79","NaN","","","","","","","","","","","","","","",""
"","S2","","html-keyboard-response","527","922050","0.0-1.0-715.0","0","0","81300","","null","","","null","79","","NaN","","","","","","","","","","","","","",""
"","response","","html-keyboard-response","528","923207","0.0-1.0-716.0","0","0","81300","","1156","","","75","79","","","2","79","training","adjacent","EF","5","6","M.jpg","R.jpg","0","1","0","",""
"","feedback","","html-keyboard-response","529","924211","0.0-1.0-717.0-0.0","0","0","81300","","null","","","null","79","","","","","","","","","","","","","","","",""
"","time_out","","html-keyboard-response","530","926213","0.0-1.0-719.0-0.0","0","0","81300","","null","","","null","79","","","","","","","","","","","","","","","",""
"","ITI","","html-keyboard-response","531","927217","0.0-1.0-720.0","0","0","81300","","null","","","null","79","","","","","","","","","","","","","","","NaN",""
"","S1","","html-keyboard-response","532","927469","0.0-1.0-722.0","0","0","81300","","null","","","null","80","","","","","","","","","","","","","","","",""
"","ISI","","html-keyboard-response","533","929471","0.0-1.0-723.0","0","0","81300","","null","","","null","80","NaN","","","","","","","","","","","","","","",""
"","S2","","html-keyboard-response","534","929724","0.0-1.0-724.0","0","0","81300","","null","","","null","80","","NaN","","","","","","","","","","","","","",""
"","response","","html-keyboard-response","535","930360","0.0-1.0-725.0","0","0","81300","","634","","","75","80","","","2","80","training","adjacent","BA","2","1","Q.jpg","L.jpg","0","0","1","",""
"","feedback","","html-keyboard-response","536","931363","0.0-1.0-726.0-0.0","0","0","81300","","null","","","null","80","","","","","","","","","","","","","","","",""
"","ITI","","html-keyboard-response","537","932365","0.0-1.0-729.0","0","0","81300","","null","","","null","80","","","","","","","","","","","","","","","NaN",""
"","S1","","html-keyboard-response","538","932617","0.0-1.0-731.0","0","0","81300","","null","","","null","81","","","","","","","","","","","","","","","",""
"","ISI","","html-keyboard-response","539","934620","0.0-1.0-732.0","0","0","81300","","null","","","null","81","NaN","","","","","","","","","","","","","","",""
"","S2","","html-keyboard-response","540","934873","0.0-1.0-733.0","0","0","81300","","null","","","null","81","","NaN","","","","","","","","","","","","","",""
"","response","","html-keyboard-response","541","935720","0.0-1.0-734.0","0","0","81300","","845","","","68","81","","","2","81","training","adjacent","GF","7","6","P.jpg","R.jpg","1","0","0","",""
"","feedback","","html-keyboard-response","542","936723","0.0-1.0-735.0-0.0","0","0","81300","","null","","","null","81","","","","","","","","","","","","","","","",""
"","time_out","","html-keyboard-response","543","938726","0.0-1.0-737.0-0.0","0","0","81300","","null","","","null","81","","","","","","","","","","","","","","","",""
"","ITI","","html-keyboard-response","544","939729","0.0-1.0-738.0","0","0","81300","","null","","","null","81","","","","","","","","","","","","","","","NaN",""
"","S1","","html-keyboard-response","545","939981","0.0-1.0-740.0","0","0","81300","","null","","","null","82","","","","","","","","","","","","","","","",""
"","ISI","","html-keyboard-response","546","941984","0.0-1.0-741.0","0","0","81300","","null","","","null","82","NaN","","","","","","","","","","","","","","",""
"","S2","","html-keyboard-response","547","942237","0.0-1.0-742.0","0","0","81300","","null","","","null","82","","NaN","","","","","","","","","","","","","",""
"","response","","html-keyboard-response","548","943193","0.0-1.0-743.0","0","0","81300","","954","","","75","82","","","2","82","training","adjacent","CD","3","4","N.jpg","O.jpg","0","1","0","",""
"","feedback","","html-keyboard-response","549","944196","0.0-1.0-744.0-0.0","0","0","81300","","null","","","null","82","","","","","","","","","","","","","","","",""
"","time_out","","html-keyboard-response","550","946199","0.0-1.0-746.0-0.0","0","0","81300","","null","","","null","82","","","","","","","","","","","","","","","",""
"","ITI","","html-keyboard-response","551","947202","0.0-1.0-747.0","0","0","81300","","null","","","null","82","","","","","","","","","","","","","","","NaN",""
"","S1","","html-keyboard-response","552","947455","0.0-1.0-749.0","0","0","81300","","null","","","null","83","","","","","","","","","","","","","","","",""
"","ISI","","html-keyboard-response","553","949457","0.0-1.0-750.0","0","0","81300","","null","","","null","83","NaN","","","","","","","","","","","","","","",""
"","S2","","html-keyboard-response","554","949710","0.0-1.0-751.0","0","0","81300","","null","","","null","83","","NaN","","","","","","","","","","","","","",""
"","response","","html-keyboard-response","555","950402","0.0-1.0-752.0","0","0","81300","","691","","","68","83","","","2","83","training","adjacent","AB","1","2","L.jpg","Q.jpg","1","1","1","",""
"","feedback","","html-keyboard-response","556","951404","0.0-1.0-753.0-0.0","0","0","81300","","null","","","null","83","","","","","","","","","","","","","","","",""
"","ITI","","html-keyboard-response","557","952406","0.0-1.0-756.0","0","0","81300","","null","","","null","83","","","","","","","","","","","","","","","NaN",""
"","S1","","html-keyboard-response","558","952659","0.0-1.0-758.0","0","0","81300","","null","","","null","84","","","","","","","","","","","","","","","",""
"","ISI","","html-keyboard-response","559","954662","0.0-1.0-759.0","0","0","81300","","null","","","null","84","NaN","","","","","","","","","","","","","","",""
"","S2","","html-keyboard-response","560","954914","0.0-1.0-760.0","0","0","81300","","null","","","null","84","","NaN","","","","","","","","","","","","","",""
"","response","","html-keyboard-response","561","955736","0.0-1.0-761.0","0","0","81300","","821","","","68","84","","","2","84","training","adjacent","CB","3","2","N.jpg","Q.jpg","1","0","0","",""
"","feedback","","html-keyboard-response","562","956739","0.0-1.0-762.0-0.0","0","0","81300","","null","","","null","84","","","","","","","","","","","","","","","",""
"","time_out","","html-keyboard-response","563","958742","0.0-1.0-764.0-0.0","0","0","81300","","null","","","null","84","","","","","","","","","","","","","","","",""
"","ITI","","html-keyboard-response","564","959744","0.0-1.0-765.0","0","0","81300","","null","","","null","84","","","","","","","","","","","","","","","NaN",""
"","S1","","html-keyboard-response","565","959997","0.0-1.0-767.0","0","0","81300","","null","","","null","85","","","","","","","","","","","","","","","",""
"","ISI","","html-keyboard-response","566","961999","0.0-1.0-768.0","0","0","81300","","null","","","null","85","NaN","","","","","","","","","","","","","","",""
"","S2","","html-keyboard-response","567","962252","0.0-1.0-769.0","0","0","81300","","null","","","null","85","","NaN","","","","","","","","","","","","","",""
"","response","","html-keyboard-response","568","963180","0.0-1.0-770.0","0","0","81300","","926","","","68","85","","","2","85","training","adjacent","DC","4","3","O.jpg","N.jpg","1","0","0","",""
"","feedback","","html-keyboard-response","569","964182","0.0-1.0-771.0-0.0","0","0","81300","","null","","","null","85","","","","","","","","","","","","","","","",""
"","time_out","","html-keyboard-response","570","966185","0.0-1.0-773.0-0.0","0","0","81300","","null","","","null","85","","","","","","","","","","","","","","","",""
"","ITI","","html-keyboard-response","571","967188","0.0-1.0-774.0","0","0","81300","","null","","","null","85","","","","","","","","","","","","","","","NaN",""
"","S1","","html-keyboard-response","572","967440","0.0-1.0-776.0","0","0","81300","","null","","","null","86","","","","","","","","","","","","","","","",""
"","ISI","","html-keyboard-response","573","969442","0.0-1.0-777.0","0","0","81300","","null","","","null","86","NaN","","","","","","","","","","","","","","",""
"","S2","","html-keyboard-response","574","969695","0.0-1.0-778.0","0","0","81300","","null","","","null","86","","NaN","","","","","","","","","","","","","",""
"","response","","html-keyboard-response","575","970533","0.0-1.0-779.0","0","0","81300","","836","","","75","86","","","2","86","training","adjacent","FG","6","7","R.jpg","P.jpg","0","1","0","",""
"","feedback","","html-keyboard-response","576","971536","0.0-1.0-780.0-0.0","0","0","81300","","null","","","null","86","","","","","","","","","","","","","","","",""
"","time_out","","html-keyboard-response","577","973539","0.0-1.0-782.0-0.0","0","0","81300","","null","","","null","86","","","","","","","","","","","","","","","",""
"","ITI","","html-keyboard-response","578","974542","0.0-1.0-783.0","0","0","81300","","null","","","null","86","","","","","","","","","","","","","","","NaN",""
"","S1","","html-keyboard-response","579","974795","0.0-1.0-785.0","0","0","81300","","null","","","null","87","","","","","","","","","","","","","","","",""
"","ISI","","html-keyboard-response","580","976798","0.0-1.0-786.0","0","0","81300","","null","","","null","87","NaN","","","","","","","","","","","","","","",""
"","S2","","html-keyboard-response","581","977051","0.0-1.0-787.0","0","0","81300","","null","","","null","87","","NaN","","","","","","","","","","","","","",""
"","response","","html-keyboard-response","582","977902","0.0-1.0-788.0","0","0","81300","","850","","","75","87","","","2","87","training","adjacent","DE","4","5","O.jpg","M.jpg","0","1","0","",""
