"success","ttype","start_time","trial_type","trial_index","time_elapsed","internal_node_id","warning","missed_checkup","PID","view_history","rt","responses","repeat_instructions","key_press","index","keypress_isi","keypress_S2","block","trial_num","phase","group_type","pair_type","S1_stim","S2_stim","S1_img","S2_img","S1_chosen","S1_higher","accuracy","keypress_iti","total_bonus_tally"
"true","full_screen","d04062023hr1749","fullscreen","0","14391","0.0-0.0","0","0","70496","","","","","","","","","","","","","","","","","","","","","",""
"","instructions","","instructions","1","59001","0.0-1.0-0.0-0.0","0","0","70496","[{""page_index"":0,""viewing_time"":6764},{""page_index"":1,""viewing_time"":23820},{""page_index"":2,""viewing_time"":9506},{""page_index"":3,""viewing_time"":4516}]","44607","","","","","","","","","","","","","","","","","","","",""
"","comprehension_check","","survey-multi-choice","2","84803","0.0-1.0-0.0-1.0","0","0","70496","","25798","{""Q0"":""True"",""Q1"":""D"",""Q2"":""Only when the screen 'MAKE A CHOICE' is shown"",""Q3"":""Green mark"",""Q4"":""either D or K""}","1","","","","","","","","","","","","","","","","","",""
"","missed_instruction_checkup","","html-keyboard-response","3","86783","0.0-1.0-0.0-2.0-0.0","0","1","70496","","1977","","","32","","","","","","","","","","","","","","","","",""
"","instructions","","instructions","4","94966","0.0-1.0-0.1-0.1","0","0","70496","[{""page_index"":0,""viewing_time"":1763},{""page_index"":1,""viewing_time"":4474},{""page_index"":2,""viewing_time"":1241},{""page_index"":3,""viewing_time"":703}]","8182","","","","","","","","","","","","","","","","","","","",""
"","comprehension_check","","survey-multi-choice","5","104567","0.0-1.0-0.1-1.1","0","0","70496","","9597","{""Q0"":""True"",""Q1"":""D"",""Q2"":""Once the second image appears and while the screen 'MAKE A CHOICE' is shown"",""Q3"":""Green mark"",""Q4"":""either D or K""}","0","","","","","","","","","","","","","","","","","",""
"","start_exp","","html-keyboard-response","6","106231","0.0-1.0-1.0","0","0","70496","","1663","","","32","","","","","","","","","","","","","","","","",""
"","S1","","html-keyboard-response","7","106404","0.0-1.0-2.0","0","0","70496","","null","","","null","0","","","","","","","","","","","","","","","",""
"","ISI","","html-keyboard-response","8","108415","0.0-1.0-3.0","0","0","70496","","null","","","null","0","NaN","","","","","","","","","","","","","","",""
"","S2","","html-keyboard-response","9","108577","0.0-1.0-4.0","0","0","70496","","null","","","null","0","","NaN","","","","","","","","","","","","","",""
"","response","","html-keyboard-response","10","109732","0.0-1.0-5.0-0.0","0","0","70496","","1154","","","75","0","","","1","0","training","adjacent","FG","6","7","M.jpg","Q.jpg","0","1","0","",""
"","feedback","","html-keyboard-response","11","110740","0.0-1.0-6.0-0.0","0","0","70496","","null","","","null","0","","","","","","","","","","","","","","","",""
"","time_out","","html-keyboard-response","12","112750","0.0-1.0-8.0-0.0","0","0","70496","","null","","","null","0","","","","","","","","","","","","","","","",""
"","ITI","","html-keyboard-response","13","113755","0.0-1.0-9.0","0","0","70496","","null","","","null","0","","","","","","","","","","","","","","","NaN",""
"","S1","","html-keyboard-response","14","113919","0.0-1.0-11.0","0","0","70496","","null","","","null","1","","","","","","","","","","","","","","","",""
"","ISI","","html-keyboard-response","15","115928","0.0-1.0-12.0","0","0","70496","","null","","","null","1","NaN","","","","","","","","","","","","","","",""
"","S2","","html-keyboard-response","16","116082","0.0-1.0-13.0","0","0","70496","","null","","","null","1","","NaN","","","","","","","","","","","","","",""
"","response","","html-keyboard-response","17","116945","0.0-1.0-14.0-0.0","0","0","70496","","861","","","75","1","","","1","1","training","adjacent","CB","3","2","P.jpg","N.jpg","0","0","1","",""
"","feedback","","html-keyboard-response","18","117960","0.0-1.0-15.0-0.0","0","0","70496","","null","","","null","1","","","","","","","","","","","","","","","",""
"","ITI","","html-keyboard-response","19","118965","0.0-1.0-18.0","0","0","70496","","null","","","null","1","","","","","","","","","","","","","","","NaN",""
"","S1","","html-keyboard-response","20","119128","0.0-1.0-20.0","0","0","70496","","null","","","null","2","","","","","","","","","","","","","","","",""
"","ISI","","html-keyboard-response","21","121137","0.0-1.0-21.0","0","0","70496","","null","","","null","2","NaN","","","","","","","","","","","","","","",""
"","S2","","html-keyboard-response","22","121291","0.0-1.0-22.0","0","0","70496","","null","","","null","2","","NaN","","","","","","","","","","","","","",""
"","response","","html-keyboard-response","23","122406","0.0-1.0-23.0-0.0","0","0","70496","","1113","","","68","2","","","1","2","training","adjacent","EF","5","6","R.jpg","M.jpg","1","1","1","",""
"","feedback","","html-keyboard-response","24","123418","0.0-1.0-24.0-0.0","0","0","70496","","null","","","null","2","","","","","","","","","","","","","","","",""
"","ITI","","html-keyboard-response","25","124423","0.0-1.0-27.0","0","0","70496","","null","","","null","2","","","","","","","","","","","","","","","NaN",""
"","S1","","html-keyboard-response","26","124592","0.0-1.0-29.0","0","0","70496","","null","","","null","3","","","","","","","","","","","","","","","",""
"","ISI","","html-keyboard-response","27","126602","0.0-1.0-30.0","0","0","70496","","null","","","null","3","NaN","","","","","","","","","","","","","","",""
"","S2","","html-keyboard-response","28","126764","0.0-1.0-31.0","0","0","70496","","null","","","null","3","","NaN","","","","","","","","","","","","","",""
"","response","","html-keyboard-response","29","128168","0.0-1.0-32.0-0.0","0","0","70496","","1400","","","75","3","","","1","3","training","adjacent","DC","4","3","L.jpg","P.jpg","0","0","1","",""
"","feedback","","html-keyboard-response","30","129176","0.0-1.0-33.0-0.0","0","0","70496","","null","","","null","3","","","","","","","","","","","","","","","",""
"","ITI","","html-keyboard-response","31","130180","0.0-1.0-36.0","0","0","70496","","null","","","null","3","","","","","","","","","","","","","","","NaN",""
"","S1","","html-keyboard-response","32","130334","0.0-1.0-38.0","0","0","70496","","null","","","null","4","","","","","","","","","","","","","","","",""
"","ISI","","html-keyboard-response","33","132345","0.0-1.0-39.0","0","0","70496","","null","","","null","4","NaN","","","","","","","","","","","","","","",""
"","S2","","html-keyboard-response","34","132506","0.0-1.0-40.0","0","0","70496","","null","","","null","4","","NaN","","","","","","","","","","","","","",""
"","response","","html-keyboard-response","35","133519","0.0-1.0-41.0-0.0","0","0","70496","","1011","","","68","4","","","1","4","training","adjacent","EF","5","6","R.jpg","M.jpg","1","1","1","",""
"","feedback","","html-keyboard-response","36","134539","0.0-1.0-42.0-0.0","0","0","70496","","null","","","null","4","","","","","","","","","","","","","","","",""
"","ITI","","html-keyboard-response","37","135544","0.0-1.0-45.0","0","0","70496","","null","","","null","4","","","","","","","","","","","","","","","NaN",""
"","S1","","html-keyboard-response","38","135706","0.0-1.0-47.0","0","0","70496","","null","","","null","5","","","","","","","","","","","","","","","",""
"","ISI","","html-keyboard-response","39","137716","0.0-1.0-48.0","0","0","70496","","null","","","null","5","NaN","","","","","","","","","","","","","","",""
"","S2","","html-keyboard-response","40","137881","0.0-1.0-49.0","0","0","70496","","null","","","null","5","","NaN","","","","","","","","","","","","","",""
"","response","","html-keyboard-response","41","138589","0.0-1.0-50.0-0.0","0","0","70496","","705","","","75","5","","","1","5","training","adjacent","DE","4","5","L.jpg","R.jpg","0","1","0","",""
"","feedback","","html-keyboard-response","42","139594","0.0-1.0-51.0-0.0","0","0","70496","","null","","","null","5","","","","","","","","","","","","","","","",""
"","time_out","","html-keyboard-response","43","141604","0.0-1.0-53.0-0.0","0","0","70496","","null","","","null","5","","","","","","","","","","","","","","","",""
"","ITI","","html-keyboard-response","44","142609","0.0-1.0-54.0","0","0","70496","","null","","","null","5","","","","","","","","","","","","","","","NaN",""
"","S1","","html-keyboard-response","45","142778","0.0-1.0-56.0","0","0","70496","","null","","","null","6","","","","","","","","","","","","","","","",""
"","ISI","","html-keyboard-response","46","144789","0.0-1.0-57.0","0","0","70496","","null","","","null","6","NaN","","","","","","","","","","","","","","",""
"","S2","","html-keyboard-response","47","144952","0.0-1.0-58.0","0","0","70496","","null","","","null","6","","NaN","","","","","","","","","","","","","",""
"","response","","html-keyboard-response","48","146086","0.0-1.0-59.0-0.0","0","0","70496","","1132","","","68","6","","","1","6","training","adjacent","CB","3","2","P.jpg","N.jpg","1","0","0","",""
"","feedback","","html-keyboard-response","49","147101","0.0-1.0-60.0-0.0","0","0","70496","","null","","","null","6","","","","","","","","","","","","","","","",""
"","time_out","","html-keyboard-response","50","149111","0.0-1.0-62.0-0.0","0","0","70496","","null","","","null","6","","","","","","","","","","","","","","","",""
"","ITI","","html-keyboard-response","51","150116","0.0-1.0-63.0","0","0","70496","","null","","","null","6","","","","","","","","","","","","","","","NaN",""
"","S1","","html-keyboard-response","52","150278","0.0-1.0-65.0","0","0","70496","","null","","","null","7","","","","","","","","","","","","","","","",""
"","ISI","","html-keyboard-response","53","152286","0.0-1.0-66.0","0","0","70496","","null","","","null","7","NaN","","","","","","","","","","","","","","",""
"","S2","","html-keyboard-response","54","152440","0.0-1.0-67.0","0","0","70496","","null","","","null","7","","NaN","","","","","","","","","","","","","",""
"","response","","html-keyboard-response","55","153559","0.0-1.0-68.0-0.0","0","0","70496","","1117","","","75","7","","","1","7","training","adjacent","CB","3","2","P.jpg","N.jpg","0","0","1","",""
"","feedback","","html-keyboard-response","56","154566","0.0-1.0-69.0-0.0","0","0","70496","","null","","","null","7","","","","","","","","","","","","","","","",""
"","ITI","","html-keyboard-response","57","155571","0.0-1.0-72.0","0","0","70496","","null","","","null","7","","","","","","","","","","","","","","","NaN",""
"","S1","","html-keyboard-response","58","155741","0.0-1.0-74.0","0","0","70496","","null","","","null","8","","","","","","","","","","","","","","","",""
"","ISI","","html-keyboard-response","59","157751","0.0-1.0-75.0","0","0","70496","","null","","","null","8","NaN","","","","","","","","","","","","","","",""
"","S2","","html-keyboard-response","60","157915","0.0-1.0-76.0","0","0","70496","","null","","","null","8","","NaN","","","","","","","","","","","","","",""
"","response","","html-keyboard-response","61","158922","0.0-1.0-77.0-0.0","0","0","70496","","1005","","","68","8","","","1","8","training","adjacent","FG","6","7","M.jpg","Q.jpg","1","1","1","",""
"","feedback","","html-keyboard-response","62","159926","0.0-1.0-78.0-0.0","0","0","70496","","null","","","null","8","","","","","","","","","","","","","","","",""
"","ITI","","html-keyboard-response","63","160930","0.0-1.0-81.0","0","0","70496","","null","","","null","8","","","","","","","","","","","","","","","NaN",""
"","S1","","html-keyboard-response","64","161084","0.0-1.0-83.0","0","0","70496","","null","","","null","9","","","","","","","","","","","","","","","",""
"","ISI","","html-keyboard-response","65","163094","0.0-1.0-84.0","0","0","70496","","null","","","null","9","NaN","","","","","","","","","","","","","","",""
"","S2","","html-keyboard-response","66","163257","0.0-1.0-85.0","0","0","70496","","null","","","null","9","","NaN","","","","","","","","","","","","","",""
"","response","","html-keyboard-response","67","163935","0.0-1.0-86.0-0.0","0","0","70496","","677","","","75","9","","","1","9","training","adjacent","FE","6","5","M.jpg","R.jpg","0","0","1","",""
"","feedback","","html-keyboard-response","68","164950","0.0-1.0-87.0-0.0","0","0","70496","","null","","","null","9","","","","","","","","","","","","","","","",""
"","ITI","","html-keyboard-response","69","165954","0.0-1.0-90.0","0","0","70496","","null","","","null","9","","","","","","","","","","","","","","","NaN",""
"","S1","","html-keyboard-response","70","166108","0.0-1.0-92.0","0","0","70496","","null","","","null","10","","","","","","","","","","","","","","","",""
"","ISI","","html-keyboard-response","71","168118","0.0-1.0-93.0","0","0","70496","","null","","","null","10","NaN","","","","","","","","","","","","","","",""
"","S2","","html-keyboard-response","72","168281","0.0-1.0-94.0","0","0","70496","","null","","","null","10","","NaN","","","","","","","","","","","","","",""
"","response","","html-keyboard-response","73","168931","0.0-1.0-95.0-0.0","0","0","70496","","649","","","75","10","","","1","10","training","adjacent","FE","6","5","M.jpg","R.jpg","0","0","1","",""
"","feedback","","html-keyboard-response","74","169942","0.0-1.0-96.0-0.0","0","0","70496","","null","","","null","10","","","","","","","","","","","","","","","",""
"","ITI","","html-keyboard-response","75","170948","0.0-1.0-99.0","0","0","70496","","null","","","null","10","","","","","","","","","","","","","","","NaN",""
"","S1","","html-keyboard-response","76","171117","0.0-1.0-101.0","0","0","70496","","null","","","null","11","","","","","","","","","","","","","","","",""
"","ISI","","html-keyboard-response","77","173126","0.0-1.0-102.0","0","0","70496","","null","","","null","11","NaN","","","","","","","","","","","","","","",""
"","S2","","html-keyboard-response","78","173289","0.0-1.0-103.0","0","0","70496","","null","","","null","11","","NaN","","","","","","","","","","","","","",""
"","response","","html-keyboard-response","79","173856","0.0-1.0-104.0-0.0","0","0","70496","","565","","","68","11","","","1","11","training","adjacent","BA","2","1","N.jpg","O.jpg","1","0","0","",""
"","feedback","","html-keyboard-response","80","174866","0.0-1.0-105.0-0.0","0","0","70496","","null","","","null","11","","","","","","","","","","","","","","","",""
"","time_out","","html-keyboard-response","81","176876","0.0-1.0-107.0-0.0","0","0","70496","","null","","","null","11","","","","","","","","","","","","","","","",""
"","ITI","","html-keyboard-response","82","177880","0.0-1.0-108.0","0","0","70496","","null","","","null","11","","","","","","","","","","","","","","","NaN",""
"","S1","","html-keyboard-response","83","178049","0.0-1.0-110.0","0","0","70496","","null","","","null","12","","","","","","","","","","","","","","","",""
"","ISI","","html-keyboard-response","84","180057","0.0-1.0-111.0","0","0","70496","","null","","","null","12","NaN","","","","","","","","","","","","","","",""
"","S2","","html-keyboard-response","85","180220","0.0-1.0-112.0","0","0","70496","","null","","","null","12","","NaN","","","","","","","","","","","","","",""
"","response","","html-keyboard-response","86","180801","0.0-1.0-113.0-0.0","0","0","70496","","579","","","75","12","","","1","12","training","adjacent","AB","1","2","O.jpg","N.jpg","0","1","0","",""
"","feedback","","html-keyboard-response","87","181813","0.0-1.0-114.0-0.0","0","0","70496","","null","","","null","12","","","","","","","","","","","","","","","",""
"","time_out","","html-keyboard-response","88","183824","0.0-1.0-116.0-0.0","0","0","70496","","null","","","null","12","","","","","","","","","","","","","","","",""
"","ITI","","html-keyboard-response","89","184830","0.0-1.0-117.0","0","0","70496","","null","","","null","12","","","","","","","","","","","","","","","NaN",""
"","S1","","html-keyboard-response","90","184982","0.0-1.0-119.0","0","0","70496","","null","","","null","13","","","","","","","","","","","","","","","",""
"","ISI","","html-keyboard-response","91","186993","0.0-1.0-120.0","0","0","70496","","null","","","null","13","NaN","","","","","","","","","","","","","","",""
"","S2","","html-keyboard-response","92","187156","0.0-1.0-121.0","0","0","70496","","null","","","null","13","","NaN","","","","","","","","","","","","","",""
"","response","","html-keyboard-response","93","188488","0.0-1.0-122.0-0.0","0","0","70496","","1330","","","75","13","","","1","13","training","adjacent","ED","5","4","R.jpg","L.jpg","0","0","1","",""
"","feedback","","html-keyboard-response","94","189504","0.0-1.0-123.0-0.0","0","0","70496","","null","","","null","13","","","","","","","","","","","","","","","",""
"","ITI","","html-keyboard-response","95","190509","0.0-1.0-126.0","0","0","70496","","null","","","null","13","","","","","","","","","","","","","","","NaN",""
"","S1","","html-keyboard-response","96","190671","0.0-1.0-128.0","0","0","70496","","null","","","null","14","","","","","","","","","","","","","","","",""
"","ISI","","html-keyboard-response","97","192682","0.0-1.0-129.0","0","0","70496","","null","","","null","14","NaN","","","","","","","","","","","","","","",""
"","S2","","html-keyboard-response","98","192836","0.0-1.0-130.0","0","0","70496","","null","","","null","14","","NaN","","","","","","","","","","","","","",""
"","response","","html-keyboard-response","99","194264","0.0-1.0-131.0-0.0","0","0","70496","","1427","","","68","14","","","1","14","training","adjacent","AB","1","2","O.jpg","N.jpg","1","1","1","",""
"","feedback","","html-keyboard-response","100","195280","0.0-1.0-132.0-0.0","0","0","70496","","null","","","null","14","","","","","","","","","","","","","","","",""
"","ITI","","html-keyboard-response","101","196284","0.0-1.0-135.0","0","0","70496","","null","","","null","14","","","","","","","","","","","","","","","NaN",""
"","S1","","html-keyboard-response","102","196439","0.0-1.0-137.0","0","0","70496","","null","","","null","15","","","","","","","","","","","","","","","",""
"","ISI","","html-keyboard-response","103","198450","0.0-1.0-138.0","0","0","70496","","null","","","null","15","NaN","","","","","","","","","","","","","","",""
"","S2","","html-keyboard-response","104","198613","0.0-1.0-139.0","0","0","70496","","null","","","null","15","","NaN","","","","","","","","","","","","","",""
"","response","","html-keyboard-response","105","199088","0.0-1.0-140.0-0.0","0","0","70496","","474","","","75","15","","","1","15","training","adjacent","ED","5","4","R.jpg","L.jpg","0","0","1","",""
"","feedback","","html-keyboard-response","106","200103","0.0-1.0-141.0-0.0","0","0","70496","","null","","","null","15","","","","","","","","","","","","","","","",""
"","ITI","","html-keyboard-response","107","201109","0.0-1.0-144.0","0","0","70496","","null","","","null","15","","","","","","","","","","","","","","","NaN",""
"","S1","","html-keyboard-response","108","201262","0.0-1.0-146.0","0","0","70496","","null","","","null","16","","","","","","","","","","","","","","","",""
"","ISI","","html-keyboard-response","109","203273","0.0-1.0-147.0","0","0","70496","","null","","","null","16","NaN","","","","","","","","","","","","","","",""
"","S2","","html-keyboard-response","110","203436","0.0-1.0-148.0","0","0","70496","","null","","","null","16","","NaN","","","","","","","","","","","","","",""
"","response","","html-keyboard-response","111","204176","0.0-1.0-149.0-0.0","0","0","70496","","738","","","68","16","","","1","16","training","adjacent","CD","3","4","P.jpg","L.jpg","1","1","1","",""
"","feedback","","html-keyboard-response","112","205183","0.0-1.0-150.0-0.0","0","0","70496","","null","","","null","16","","","","","","","","","","","","","","","",""
"","ITI","","html-keyboard-response","113","206188","0.0-1.0-153.0","0","0","70496","","null","","","null","16","","","","","","","","","","","","","","","NaN",""
"","S1","","html-keyboard-response","114","206351","0.0-1.0-155.0","0","0","70496","","null","","","null","17","","","","","","","","","","","","","","","",""
"","ISI","","html-keyboard-response","115","208362","0.0-1.0-156.0","0","0","70496","","null","","","null","17","NaN","","","","","","","","","","","","","","",""
"","S2","","html-keyboard-response","116","208516","0.0-1.0-157.0","0","0","70496","","null","","","null","17","","NaN","","","","","","","","","","","","","",""
"","response","","html-keyboard-response","117","209475","0.0-1.0-158.0-0.0","0","0","70496","","958","","","68","17","","","1","17","training","adjacent","GF","7","6","Q.jpg","M.jpg","1","0","0","",""
"","feedback","","html-keyboard-response","118","210486","0.0-1.0-159.0-0.0","0","0","70496","","null","","","null","17","","","","","","","","","","","","","","","",""
"","time_out","","html-keyboard-response","119","212496","0.0-1.0-161.0-0.0","0","0","70496","","null","","","null","17","","","","","","","","","","","","","","","",""
"","ITI","","html-keyboard-response","120","213500","0.0-1.0-162.0","0","0","70496","","null","","","null","17","","","","","","","","","","","","","","","NaN",""
"","S1","","html-keyboard-response","121","213655","0.0-1.0-164.0","0","0","70496","","null","","","null","18","","","","","","","","","","","","","","","",""
"","ISI","","html-keyboard-response","122","215663","0.0-1.0-165.0","0","0","70496","","null","","","null","18","NaN","","","","","","","","","","","","","","",""
"","S2","","html-keyboard-response","123","215817","0.0-1.0-166.0","0","0","70496","","null","","","null","18","","NaN","","","","","","","","","","","","","",""
"","response","","html-keyboard-response","124","216587","0.0-1.0-167.0-0.0","0","0","70496","","769","","","75","18","","","1","18","training","adjacent","FE","6","5","M.jpg","R.jpg","0","0","1","",""
"","feedback","","html-keyboard-response","125","217589","0.0-1.0-168.0-0.0","0","0","70496","","null","","","null","18","","","","","","","","","","","","","","","",""
"","ITI","","html-keyboard-response","126","218593","0.0-1.0-171.0","0","0","70496","","null","","","null","18","","","","","","","","","","","","","","","NaN",""
"","S1","","html-keyboard-response","127","218747","0.0-1.0-173.0","0","0","70496","","null","","","null","19","","","","","","","","","","","","","","","",""
"","ISI","","html-keyboard-response","128","220757","0.0-1.0-174.0","0","0","70496","","null","","","null","19","NaN","","","","","","","","","","","","","","",""
"","S2","","html-keyboard-response","129","220913","0.0-1.0-175.0","0","0","70496","","null","","","null","19","","NaN","","","","","","","","","","","","","",""
"","response","","html-keyboard-response","130","221889","0.0-1.0-176.0-0.0","0","0","70496","","974","","","68","19","","","1","19","training","adjacent","CD","3","4","P.jpg","L.jpg","1","1","1","",""
"","feedback","","html-keyboard-response","131","222897","0.0-1.0-177.0-0.0","0","0","70496","","null","","","null","19","","","","","","","","","","","","","","","",""
"","ITI","","html-keyboard-response","132","223902","0.0-1.0-180.0","0","0","70496","","null","","","null","19","","","","","","","","","","","","","","","NaN",""
"","S1","","html-keyboard-response","133","224072","0.0-1.0-182.0","0","0","70496","","null","","","null","20","","","","","","","","","","","","","","","",""
"","ISI","","html-keyboard-response","134","226081","0.0-1.0-183.0","0","0","70496","","null","","","null","20","NaN","","","","","","","","","","","","","","",""
"","S2","","html-keyboard-response","135","226244","0.0-1.0-184.0","0","0","70496","","null","","","null","20","","NaN","","","","","","","","","","","","","",""
"","response","","html-keyboard-response","136","226819","0.0-1.0-185.0-0.0","0","0","70496","","573","","","68","20","","","1","20","training","adjacent","DC","4","3","L.jpg","P.jpg","1","0","0","",""
"","feedback","","html-keyboard-response","137","227832","0.0-1.0-186.0-0.0","0","0","70496","","null","","","null","20","","","","","","","","","","","","","","","",""
"","time_out","","html-keyboard-response","138","229835","0.0-1.0-188.0-0.0","0","0","70496","","null","","","null","20","","","","","","","","","","","","","","","",""
"","ITI","","html-keyboard-response","139","230840","0.0-1.0-189.0","0","0","70496","","null","","","null","20","","","","","","","","","","","","","","","NaN",""
"","S1","","html-keyboard-response","140","230998","0.0-1.0-191.0","0","0","70496","","null","","","null","21","","","","","","","","","","","","","","","",""
"","ISI","","html-keyboard-response","141","233008","0.0-1.0-192.0","0","0","70496","","null","","","null","21","NaN","","","","","","","","","","","","","","",""
"","S2","","html-keyboard-response","142","233162","0.0-1.0-193.0","0","0","70496","","null","","","null","21","","NaN","","","","","","","","","","","","","",""
"","response","","html-keyboard-response","143","234086","0.0-1.0-194.0-0.0","0","0","70496","","923","","","75","21","","","1","21","training","adjacent","DC","4","3","L.jpg","P.jpg","0","0","1","",""
"","feedback","","html-keyboard-response","144","235102","0.0-1.0-195.0-0.0","0","0","70496","","null","","","null","21","","","","","","","","","","","","","","","",""
"","ITI","","html-keyboard-response","145","236107","0.0-1.0-198.0","0","0","70496","","null","","","null","21","","","","","","","","","","","","","","","NaN",""
"","S1","","html-keyboard-response","146","236261","0.0-1.0-200.0","0","0","70496","","null","","","null","22","","","","","","","","","","","","","","","",""
"","ISI","","html-keyboard-response","147","238270","0.0-1.0-201.0","0","0","70496","","null","","","null","22","NaN","","","","","","","","","","","","","","",""
"","S2","","html-keyboard-response","148","238432","0.0-1.0-202.0","0","0","70496","","null","","","null","22","","NaN","","","","","","","","","","","","","",""
"","response","","html-keyboard-response","149","238894","0.0-1.0-203.0-0.0","0","0","70496","","461","","","68","22","","","1","22","training","adjacent","ED","5","4","R.jpg","L.jpg","1","0","0","",""
"","feedback","","html-keyboard-response","150","239905","0.0-1.0-204.0-0.0","0","0","70496","","null","","","null","22","","","","","","","","","","","","","","","",""
"","time_out","","html-keyboard-response","151","241913","0.0-1.0-206.0-0.0","0","0","70496","","null","","","null","22","","","","","","","","","","","","","","","",""
"","ITI","","html-keyboard-response","152","242917","0.0-1.0-207.0","0","0","70496","","null","","","null","22","","","","","","","","","","","","","","","NaN",""
"","S1","","html-keyboard-response","153","243071","0.0-1.0-209.0","0","0","70496","","null","","","null","23","","","","","","","","","","","","","","","",""
"","ISI","","html-keyboard-response","154","245080","0.0-1.0-210.0","0","0","70496","","null","","","null","23","NaN","","","","","","","","","","","","","","",""
"","S2","","html-keyboard-response","155","245243","0.0-1.0-211.0","0","0","70496","","null","","","null","23","","NaN","","","","","","","","","","","","","",""
"","response","","html-keyboard-response","156","246012","0.0-1.0-212.0-0.0","0","0","70496","","766","","","75","23","","","1","23","training","adjacent","DC","4","3","L.jpg","P.jpg","0","0","1","",""
"","feedback","","html-keyboard-response","157","247019","0.0-1.0-213.0-0.0","0","0","70496","","null","","","null","23","","","","","","","","","","","","","","","",""
"","ITI","","html-keyboard-response","158","248024","0.0-1.0-216.0","0","0","70496","","null","","","null","23","","","","","","","","","","","","","","","NaN",""
"","S1","","html-keyboard-response","159","248193","0.0-1.0-218.0","0","0","70496","","null","","","null","24","","","","","","","","","","","","","","","",""
"","ISI","","html-keyboard-response","160","250202","0.0-1.0-219.0","0","0","70496","","null","","","null","24","NaN","","","","","","","","","","","","","","",""
"","S2","","html-keyboard-response","161","250364","0.0-1.0-220.0","0","0","70496","","null","","","null","24","","NaN","","","","","","","","","","","","","",""
"","response","","html-keyboard-response","162","251572","0.0-1.0-221.0-0.0","0","0","70496","","1205","","","68","24","","","1","24","training","adjacent","BA","2","1","N.jpg","O.jpg","1","0","0","",""
"","feedback","","html-keyboard-response","163","252575","0.0-1.0-222.0-0.0","0","0","70496","","null","","","null","24","","","","","","","","","","","","","","","",""
"","time_out","","html-keyboard-response","164","254584","0.0-1.0-224.0-0.0","0","0","70496","","null","","","null","24","","","","","","","","","","","","","","","",""
"","ITI","","html-keyboard-response","165","255589","0.0-1.0-225.0","0","0","70496","","null","","","null","24","","","","","","","","","","","","","","","NaN",""
"","S1","","html-keyboard-response","166","255742","0.0-1.0-227.0","0","0","70496","","null","","","null","25","","","","","","","","","","","","","","","",""
"","ISI","","html-keyboard-response","167","257752","0.0-1.0-228.0","0","0","70496","","null","","","null","25","NaN","","","","","","","","","","","","","","",""
"","S2","","html-keyboard-response","168","257915","0.0-1.0-229.0","0","0","70496","","null","","","null","25","","NaN","","","","","","","","","","","","","",""
"","response","","html-keyboard-response","169","258505","0.0-1.0-230.0-0.0","0","0","70496","","589","","","68","25","","","1","25","training","adjacent","CB","3","2","P.jpg","N.jpg","1","0","0","",""
"","feedback","","html-keyboard-response","170","259522","0.0-1.0-231.0-0.0","0","0","70496","","null","","","null","25","","","","","","","","","","","","","","","",""
"","time_out","","html-keyboard-response","171","261532","0.0-1.0-233.0-0.0","0","0","70496","","null","","","null","25","","","","","","","","","","","","","","","",""
"","ITI","","html-keyboard-response","172","262537","0.0-1.0-234.0","0","0","70496","","null","","","null","25","","","","","","","","","","","","","","","NaN",""
"","S1","","html-keyboard-response","173","262690","0.0-1.0-236.0","0","0","70496","","null","","","null","26","","","","","","","","","","","","","","","",""
"","ISI","","html-keyboard-response","174","264700","0.0-1.0-237.0","0","0","70496","","null","","","null","26","NaN","","","","","","","","","","","","","","",""
"","S2","","html-keyboard-response","175","264870","0.0-1.0-238.0","0","0","70496","","null","","","null","26","","NaN","","","","","","","","","","","","","",""
"","response","","html-keyboard-response","176","265291","0.0-1.0-239.0-0.0","0","0","70496","","419","","","68","26","","","1","26","training","adjacent","AB","1","2","O.jpg","N.jpg","1","1","1","",""
"","feedback","","html-keyboard-response","177","266308","0.0-1.0-240.0-0.0","0","0","70496","","null","","","null","26","","","","","","","","","","","","","","","",""
"","ITI","","html-keyboard-response","178","267312","0.0-1.0-243.0","0","0","70496","","null","","","null","26","","","","","","","","","","","","","","","NaN",""
"","S1","","html-keyboard-response","179","267482","0.0-1.0-245.0","0","0","70496","","null","","","null","27","","","","","","","","","","","","","","","",""
"","ISI","","html-keyboard-response","180","269492","0.0-1.0-246.0","0","0","70496","","null","","","null","27","NaN","","","","","","","","","","","","","","",""
"","S2","","html-keyboard-response","181","269654","0.0-1.0-247.0","0","0","70496","","null","","","null","27","","NaN","","","","","","","","","","","","","",""
"","response","","html-keyboard-response","182","270659","0.0-1.0-248.0-0.0","0","0","70496","","1003","","","68","27","","","1","27","training","adjacent","BA","2","1","N.jpg","O.jpg","1","0","0","",""
"","feedback","","html-keyboard-response","183","271664","0.0-1.0-249.0-0.0","0","0","70496","","null","","","null","27","","","","","","","","","","","","","","","",""
"","time_out","","html-keyboard-response","184","273674","0.0-1.0-251.0-0.0","0","0","70496","","null","","","null","27","","","","","","","","","","","","","","","",""
"","ITI","","html-keyboard-response","185","274678","0.0-1.0-252.0","0","0","70496","","null","","","null","27","","","","","","","","","","","","","","","NaN",""
"","S1","","html-keyboard-response","186","274832","0.0-1.0-254.0","0","0","70496","","null","","","null","28","","","","","","","","","","","","","","","",""
"","ISI","","html-keyboard-response","187","276841","0.0-1.0-255.0","0","0","70496","","null","","","null","28","NaN","","","","","","","","","","","","","","",""
"","S2","","html-keyboard-response","188","277004","0.0-1.0-256.0","0","0","70496","","null","","","null","28","","NaN","","","","","","","","","","","","","",""
"","response","","html-keyboard-response","189","277678","0.0-1.0-257.0-0.0","0","0","70496","","673","","","75","28","","","1","28","training","adjacent","DE","4","5","L.jpg","R.jpg","0","1","0","",""
"","feedback","","html-keyboard-response","190","278681","0.0-1.0-258.0-0.0","0","0","70496","","null","","","null","28","","","","","","","","","","","","","","","",""
"","time_out","","html-keyboard-response","191","280691","0.0-1.0-260.0-0.0","0","0","70496","","null","","","null","28","","","","","","","","","","","","","","","",""
"","ITI","","html-keyboard-response","192","281695","0.0-1.0-261.0","0","0","70496","","null","","","null","28","","","","","","","","","","","","","","","NaN",""
"","S1","","html-keyboard-response","193","281849","0.0-1.0-263.0","0","0","70496","","null","","","null","29","","","","","","","","","","","","","","","",""
"","ISI","","html-keyboard-response","194","283859","0.0-1.0-264.0","0","0","70496","","null","","","null","29","NaN","","","","","","","","","","","","","","",""
"","S2","","html-keyboard-response","195","284022","0.0-1.0-265.0","0","0","70496","","null","","","null","29","","NaN","","","","","","","","","","","","","",""
"","response","","html-keyboard-response","196","285467","0.0-1.0-266.0-0.0","0","0","70496","","1444","","","68","29","","","1","29","training","adjacent","BC","2","3","N.jpg","P.jpg","1","1","1","",""
"","feedback","","html-keyboard-response","197","286470","0.0-1.0-267.0-0.0","0","0","70496","","null","","","null","29","","","","","","","","","","","","","","","",""
"","ITI","","html-keyboard-response","198","287476","0.0-1.0-270.0","0","0","70496","","null","","","null","29","","","","","","","","","","","","","","","NaN",""
"","S1","","html-keyboard-response","199","287638","0.0-1.0-272.0","0","0","70496","","null","","","null","30","","","","","","","","","","","","","","","",""
"","ISI","","html-keyboard-response","200","289647","0.0-1.0-273.0","0","0","70496","","null","","","null","30","NaN","","","","","","","","","","","","","","",""
"","S2","","html-keyboard-response","201","289801","0.0-1.0-274.0","0","0","70496","","null","","","null","30","","NaN","","","","","","","","","","","","","",""
"","response","","html-keyboard-response","202","290315","0.0-1.0-275.0-0.0","0","0","70496","","513","","","75","30","","","1","30","training","adjacent","BC","2","3","N.jpg","P.jpg","0","1","0","",""
"","feedback","","html-keyboard-response","203","291323","0.0-1.0-276.0-0.0","0","0","70496","","null","","","null","30","","","","","","","","","","","","","","","",""
"","time_out","","html-keyboard-response","204","293333","0.0-1.0-278.0-0.0","0","0","70496","","null","","","null","30","","","","","","","","","","","","","","","",""
"","ITI","","html-keyboard-response","205","294336","0.0-1.0-279.0","0","0","70496","","null","","","null","30","","","","","","","","","","","","","","","NaN",""
"","S1","","html-keyboard-response","206","294506","0.0-1.0-281.0","0","0","70496","","null","","","null","31","","","","","","","","","","","","","","","",""
"","ISI","","html-keyboard-response","207","296516","0.0-1.0-282.0","0","0","70496","","null","","","null","31","NaN","","","","","","","","","","","","","","",""
"","S2","","html-keyboard-response","208","296679","0.0-1.0-283.0","0","0","70496","","null","","","null","31","","NaN","","","","","","","","","","","","","",""
"","response","","html-keyboard-response","209","297990","0.0-1.0-284.0-0.0","0","0","70496","","1309","","","68","31","","","1","31","training","adjacent","AB","1","2","O.jpg","N.jpg","1","1","1","",""
"","feedback","","html-keyboard-response","210","299003","0.0-1.0-285.0-0.0","0","0","70496","","null","","","null","31","","","","","","","","","","","","","","","",""
"","ITI","","html-keyboard-response","211","300007","0.0-1.0-288.0","0","0","70496","","null","","","null","31","","","","","","","","","","","","","","","NaN",""
"","S1","","html-keyboard-response","212","300160","0.0-1.0-290.0","0","0","70496","","null","","","null","32","","","","","","","","","","","","","","","",""
"","ISI","","html-keyboard-response","213","302169","0.0-1.0-291.0","0","0","70496","","null","","","null","32","NaN","","","","","","","","","","","","","","",""
"","S2","","html-keyboard-response","214","302339","0.0-1.0-292.0","0","0","70496","","null","","","null","32","","NaN","","","","","","","","","","","","","",""
"","response","","html-keyboard-response","215","303058","0.0-1.0-293.0-0.0","0","0","70496","","718","","","75","32","","","1","32","training","adjacent","GF","7","6","Q.jpg","M.jpg","0","0","1","",""
"","feedback","","html-keyboard-response","216","304063","0.0-1.0-294.0-0.0","0","0","70496","","null","","","null","32","","","","","","","","","","","","","","","",""
"","ITI","","html-keyboard-response","217","305068","0.0-1.0-297.0","0","0","70496","","null","","","null","32","","","","","","","","","","","","","","","NaN",""
"","S1","","html-keyboard-response","218","305230","0.0-1.0-299.0","0","0","70496","","null","","","null","33","","","","","","","","","","","","","","","",""
"","ISI","","html-keyboard-response","219","307240","0.0-1.0-300.0","0","0","70496","","null","","","null","33","NaN","","","","","","","","","","","","","","",""
"","S2","","html-keyboard-response","220","307393","0.0-1.0-301.0","0","0","70496","","null","","","null","33","","NaN","","","","","","","","","","","","","",""
"","response","","html-keyboard-response","221","308552","0.0-1.0-302.0-0.0","0","0","70496","","1157","","","68","33","","","1","33","training","adjacent","FG","6","7","M.jpg","Q.jpg","1","1","1","",""
"","feedback","","html-keyboard-response","222","309573","0.0-1.0-303.0-0.0","0","0","70496","","null","","","null","33","","","","","","","","","","","","","","","",""
"","ITI","","html-keyboard-response","223","310578","0.0-1.0-306.0","0","0","70496","","null","","","null","33","","","","","","","","","","","","","","","NaN",""
"","S1","","html-keyboard-response","224","310740","0.0-1.0-308.0","0","0","70496","","null","","","null","34","","","","","","","","","","","","","","","",""
"","ISI","","html-keyboard-response","225","312750","0.0-1.0-309.0","0","0","70496","","null","","","null","34","NaN","","","","","","","","","","","","","","",""
"","S2","","html-keyboard-response","226","312904","0.0-1.0-310.0","0","0","70496","","null","","","null","34","","NaN","","","","","","","","","","","","","",""
"","response","","html-keyboard-response","227","314651","0.0-1.0-311.0-0.0","0","0","70496","","1746","","","68","34","","","1","34","training","adjacent","FG","6","7","M.jpg","Q.jpg","1","1","1","",""
"","feedback","","html-keyboard-response","228","315664","0.0-1.0-312.0-0.0","0","0","70496","","null","","","null","34","","","","","","","","","","","","","","","",""
"","ITI","","html-keyboard-response","229","316668","0.0-1.0-315.0","0","0","70496","","null","","","null","34","","","","","","","","","","","","","","","NaN",""
"","S1","","html-keyboard-response","230","316823","0.0-1.0-317.0","0","0","70496","","null","","","null","35","","","","","","","","","","","","","","","",""
"","ISI","","html-keyboard-response","231","318831","0.0-1.0-318.0","0","0","70496","","null","","","null","35","NaN","","","","","","","","","","","","","","",""
"","S2","","html-keyboard-response","232","318994","0.0-1.0-319.0","0","0","70496","","null","","","null","35","","NaN","","","","","","","","","","","","","",""
"","response","","html-keyboard-response","233","320183","0.0-1.0-320.0-0.0","0","0","70496","","1187","","","68","35","","","1","35","training","adjacent","EF","5","6","R.jpg","M.jpg","1","1","1","",""
"","feedback","","html-keyboard-response","234","321189","0.0-1.0-321.0-0.0","0","0","70496","","null","","","null","35","","","","","","","","","","","","","","","",""
"","ITI","","html-keyboard-response","235","322193","0.0-1.0-324.0","0","0","70496","","null","","","null","35","","","","","","","","","","","","","","","NaN",""
"","S1","","html-keyboard-response","236","322347","0.0-1.0-326.0","0","0","70496","","null","","","null","36","","","","","","","","","","","","","","","",""
"","ISI","","html-keyboard-response","237","324357","0.0-1.0-327.0","0","0","70496","","null","","","null","36","NaN","","","","","","","","","","","","","","",""
"","S2","","html-keyboard-response","238","324519","0.0-1.0-328.0","0","0","70496","","null","","","null","36","","NaN","","","","","","","","","","","","","",""
"","response","","html-keyboard-response","239","326023","0.0-1.0-329.0-0.0","0","0","70496","","1502","","","68","36","","","1","36","training","adjacent","BC","2","3","N.jpg","P.jpg","1","1","1","",""
"","feedback","","html-keyboard-response","240","327032","0.0-1.0-330.0-0.0","0","0","70496","","null","","","null","36","","","","","","","","","","","","","","","",""
"","ITI","","html-keyboard-response","241","328036","0.0-1.0-333.0","0","0","70496","","null","","","null","36","","","","","","","","","","","","","","","NaN",""
"","S1","","html-keyboard-response","242","328190","0.0-1.0-335.0","0","0","70496","","null","","","null","37","","","","","","","","","","","","","","","",""
"","ISI","","html-keyboard-response","243","330199","0.0-1.0-336.0","0","0","70496","","null","","","null","37","NaN","","","","","","","","","","","","","","",""
"","S2","","html-keyboard-response","244","330368","0.0-1.0-337.0","0","0","70496","","null","","","null","37","","NaN","","","","","","","","","","","","","",""
"","response","","html-keyboard-response","245","331260","0.0-1.0-338.0-0.0","0","0","70496","","890","","","68","37","","","1","37","training","adjacent","EF","5","6","R.jpg","M.jpg","1","1","1","",""
"","feedback","","html-keyboard-response","246","332278","0.0-1.0-339.0-0.0","0","0","70496","","null","","","null","37","","","","","","","","","","","","","","","",""
"","ITI","","html-keyboard-response","247","333282","0.0-1.0-342.0","0","0","70496","","null","","","null","37","","","","","","","","","","","","","","","NaN",""
"","S1","","html-keyboard-response","248","333445","0.0-1.0-344.0","0","0","70496","","null","","","null","38","","","","","","","","","","","","","","","",""
"","ISI","","html-keyboard-response","249","335455","0.0-1.0-345.0","0","0","70496","","null","","","null","38","NaN","","","","","","","","","","","","","","",""
"","S2","","html-keyboard-response","250","335610","0.0-1.0-346.0","0","0","70496","","null","","","null","38","","NaN","","","","","","","","","","","","","",""
"","response","","html-keyboard-response","251","336220","0.0-1.0-347.0-0.0","0","0","70496","","609","","","75","38","","","1","38","training","adjacent","FE","6","5","M.jpg","R.jpg","0","0","1","",""
"","feedback","","html-keyboard-response","252","337233","0.0-1.0-348.0-0.0","0","0","70496","","null","","","null","38","","","","","","","","","","","","","","","",""
"","ITI","","html-keyboard-response","253","338237","0.0-1.0-351.0","0","0","70496","","null","","","null","38","","","","","","","","","","","","","","","NaN",""
"","S1","","html-keyboard-response","254","338407","0.0-1.0-353.0","0","0","70496","","null","","","null","39","","","","","","","","","","","","","","","",""
"","ISI","","html-keyboard-response","255","340417","0.0-1.0-354.0","0","0","70496","","null","","","null","39","NaN","","","","","","","","","","","","","","",""
"","S2","","html-keyboard-response","256","340580","0.0-1.0-355.0","0","0","70496","","null","","","null","39","","NaN","","","","","","","","","","","","","",""
"","response","","html-keyboard-response","257","341326","0.0-1.0-356.0-0.0","0","0","70496","","745","","","68","39","","","1","39","training","adjacent","ED","5","4","R.jpg","L.jpg","1","0","0","",""
"","feedback","","html-keyboard-response","258","342341","0.0-1.0-357.0-0.0","0","0","70496","","null","","","null","39","","","","","","","","","","","","","","","",""
"","time_out","","html-keyboard-response","259","344352","0.0-1.0-359.0-0.0","0","0","70496","","null","","","null","39","","","","","","","","","","","","","","","",""
"","ITI","","html-keyboard-response","260","345357","0.0-1.0-360.0","0","0","70496","","null","","","null","39","","","","","","","","","","","","","","","NaN",""
"","S1","","html-keyboard-response","261","345519","0.0-1.0-362.0","0","0","70496","","null","","","null","40","","","","","","","","","","","","","","","",""
"","ISI","","html-keyboard-response","262","347530","0.0-1.0-363.0","0","0","70496","","null","","","null","40","NaN","","","","","","","","","","","","","","",""
"","S2","","html-keyboard-response","263","347684","0.0-1.0-364.0","0","0","70496","","null","","","null","40","","NaN","","","","","","","","","","","","","",""
"","response","","html-keyboard-response","264","348935","0.0-1.0-365.0-0.0","0","0","70496","","1250","","","75","40","","","1","40","training","adjacent","DE","4","5","L.jpg","R.jpg","0","1","0","",""
"","feedback","","html-keyboard-response","265","349941","0.0-1.0-366.0-0.0","0","0","70496","","null","","","null","40","","","","","","","","","","","","","","","",""
"","time_out","","html-keyboard-response","266","351950","0.0-1.0-368.0-0.0","0","0","70496","","null","","","null","40","","","","","","","","","","","","","","","",""
"","ITI","","html-keyboard-response","267","352954","0.0-1.0-369.0","0","0","70496","","null","","","null","40","","","","","","","","","","","","","","","NaN",""
"","S1","","html-keyboard-response","268","353108","0.0-1.0-371.0","0","0","70496","","null","","","null","41","","","","","","","","","","","","","","","",""
"","ISI","","html-keyboard-response","269","355118","0.0-1.0-372.0","0","0","70496","","null","","","null","41","NaN","","","","","","","","","","","","","","",""
"","S2","","html-keyboard-response","270","355288","0.0-1.0-373.0","0","0","70496","","null","","","null","41","","NaN","","","","","","","","","","","","","",""
"","response","","html-keyboard-response","271","355635","0.0-1.0-374.0-0.0","0","0","70496","","345","","","75","41","","","1","41","training","adjacent","GF","7","6","Q.jpg","M.jpg","0","0","1","",""
"","feedback","","html-keyboard-response","272","356639","0.0-1.0-375.0-0.0","0","0","70496","","null","","","null","41","","","","","","","","","","","","","","","",""
"","ITI","","html-keyboard-response","273","357644","0.0-1.0-378.0","0","0","70496","","null","","","null","41","","","","","","","","","","","","","","","NaN",""
"","S1","","html-keyboard-response","274","357798","0.0-1.0-380.0","0","0","70496","","null","","","null","42","","","","","","","","","","","","","","","",""
"","ISI","","html-keyboard-response","275","359808","0.0-1.0-381.0","0","0","70496","","null","","","null","42","NaN","","","","","","","","","","","","","","",""
"","S2","","html-keyboard-response","276","359971","0.0-1.0-382.0","0","0","70496","","null","","","null","42","","NaN","","","","","","","","","","","","","",""
"","response","","html-keyboard-response","277","360234","0.0-1.0-383.0-0.0","0","0","70496","","261","","","75","42","","","1","42","training","adjacent","DE","4","5","L.jpg","R.jpg","0","1","0","",""
"","feedback","","html-keyboard-response","278","361246","0.0-1.0-384.0-0.0","0","0","70496","","null","","","null","42","","","","","","","","","","","","","","","",""
"","time_out","","html-keyboard-response","279","363256","0.0-1.0-386.0-0.0","0","0","70496","","null","","","null","42","","","","","","","","","","","","","","","",""
"","ITI","","html-keyboard-response","280","364261","0.0-1.0-387.0","0","0","70496","","null","","","null","42","","","","","","","","","","","","","","","NaN",""
"","S1","","html-keyboard-response","281","364430","0.0-1.0-389.0","0","0","70496","","null","","","null","43","","","","","","","","","","","","","","","",""
"","ISI","","html-keyboard-response","282","366441","0.0-1.0-390.0","0","0","70496","","null","","","null","43","NaN","","","","","","","","","","","","","","",""
"","S2","","html-keyboard-response","283","366604","0.0-1.0-391.0","0","0","70496","","null","","","null","43","","NaN","","","","","","","","","","","","","",""
"","response","","html-keyboard-response","284","367954","0.0-1.0-392.0-0.0","0","0","70496","","1348","","","68","43","","","1","43","training","adjacent","BC","2","3","N.jpg","P.jpg","1","1","1","",""
"","feedback","","html-keyboard-response","285","368970","0.0-1.0-393.0-0.0","0","0","70496","","null","","","null","43","","","","","","","","","","","","","","","",""
"","ITI","","html-keyboard-response","286","369973","0.0-1.0-396.0","0","0","70496","","null","","","null","43","","","","","","","","","","","","","","","NaN",""
"","S1","","html-keyboard-response","287","370136","0.0-1.0-398.0","0","0","70496","","null","","","null","44","","","","","","","","","","","","","","","",""
"","ISI","","html-keyboard-response","288","372145","0.0-1.0-399.0","0","0","70496","","null","","","null","44","NaN","","","","","","","","","","","","","","",""
"","S2","","html-keyboard-response","289","372299","0.0-1.0-400.0","0","0","70496","","null","","","null","44","","NaN","","","","","","","","","","","","","",""
"","response","","html-keyboard-response","290","373175","0.0-1.0-401.0-0.0","0","0","70496","","875","","","68","44","","","1","44","training","adjacent","CD","3","4","P.jpg","L.jpg","1","1","1","",""
"","feedback","","html-keyboard-response","291","374179","0.0-1.0-402.0-0.0","0","0","70496","","null","","","null","44","","","","","","","","","","","","","","","",""
"","ITI","","html-keyboard-response","292","375183","0.0-1.0-405.0","0","0","70496","","null","","","null","44","","","","","","","","","","","","","","","NaN",""
"","S1","","html-keyboard-response","293","375345","0.0-1.0-407.0","0","0","70496","","null","","","null","45","","","","","","","","","","","","","","","",""
"","ISI","","html-keyboard-response","294","377355","0.0-1.0-408.0","0","0","70496","","null","","","null","45","NaN","","","","","","","","","","","","","","",""
"","S2","","html-keyboard-response","295","377509","0.0-1.0-409.0","0","0","70496","","null","","","null","45","","NaN","","","","","","","","","","","","","",""
"","response","","html-keyboard-response","296","378218","0.0-1.0-410.0-0.0","0","0","70496","","708","","","68","45","","","1","45","training","adjacent","BA","2","1","N.jpg","O.jpg","1","0","0","",""
"","feedback","","html-keyboard-response","297","379232","0.0-1.0-411.0-0.0","0","0","70496","","null","","","null","45","","","","","","","","","","","","","","","",""
"","time_out","","html-keyboard-response","298","381242","0.0-1.0-413.0-0.0","0","0","70496","","null","","","null","45","","","","","","","","","","","","","","","",""
"","ITI","","html-keyboard-response","299","382247","0.0-1.0-414.0","0","0","70496","","null","","","null","45","","","","","","","","","","","","","","","NaN",""
"","S1","","html-keyboard-response","300","382416","0.0-1.0-416.0","0","0","70496","","null","","","null","46","","","","","","","","","","","","","","","",""
"","ISI","","html-keyboard-response","301","384425","0.0-1.0-417.0","0","0","70496","","null","","","null","46","NaN","","","","","","","","","","","","","","",""
"","S2","","html-keyboard-response","302","384588","0.0-1.0-418.0","0","0","70496","","null","","","null","46","","NaN","","","","","","","","","","","","","",""
"","response","","html-keyboard-response","303","385003","0.0-1.0-419.0-0.0","0","0","70496","","413","","","68","46","","","1","46","training","adjacent","CD","3","4","P.jpg","L.jpg","1","1","1","",""
"","feedback","","html-keyboard-response","304","386012","0.0-1.0-420.0-0.0","0","0","70496","","null","","","null","46","","","","","","","","","","","","","","","",""
"","ITI","","html-keyboard-response","305","387017","0.0-1.0-423.0","0","0","70496","","null","","","null","46","","","","","","","","","","","","","","","NaN",""
"","S1","","html-keyboard-response","306","387169","0.0-1.0-425.0","0","0","70496","","null","","","null","47","","","","","","","","","","","","","","","",""
"","ISI","","html-keyboard-response","307","389179","0.0-1.0-426.0","0","0","70496","","null","","","null","47","NaN","","","","","","","","","","","","","","",""
"","S2","","html-keyboard-response","308","389349","0.0-1.0-427.0","0","0","70496","","null","","","null","47","","NaN","","","","","","","","","","","","","",""
"","response","","html-keyboard-response","309","389924","0.0-1.0-428.0-0.0","0","0","70496","","573","","","68","47","","","1","47","training","adjacent","GF","7","6","Q.jpg","M.jpg","1","0","0","",""
"","feedback","","html-keyboard-response","310","390929","0.0-1.0-429.0-0.0","0","0","70496","","null","","","null","47","","","","","","","","","","","","","","","",""
"","time_out","","html-keyboard-response","311","392943","0.0-1.0-431.0-0.0","0","0","70496","","null","","","null","47","","","","","","","","","","","","","","","",""
"","ITI","","html-keyboard-response","312","393948","0.0-1.0-432.0","0","0","70496","","null","","","null","47","","","","","","","","","","","","","","","NaN",""
"","block_over","","html-keyboard-response","313","405983","0.0-1.0-433.0-0.0","0","0","70496","","12032","","","32","47","","","","","","","","","","","","","","","",""
"","S1","","html-keyboard-response","314","406145","0.0-1.0-434.0","0","0","70496","","null","","","null","48","","","","","","","","","","","","","","","",""
"","ISI","","html-keyboard-response","315","408156","0.0-1.0-435.0","0","0","70496","","null","","","null","48","NaN","","","","","","","","","","","","","","",""
"","S2","","html-keyboard-response","316","408319","0.0-1.0-436.0","0","0","70496","","null","","","null","48","","NaN","","","","","","","","","","","","","",""
"","response","","html-keyboard-response","317","408876","0.0-1.0-437.0-0.0","0","0","70496","","555","","","68","48","","","2","48","training","adjacent","BC","2","3","N.jpg","P.jpg","1","1","1","",""
"","feedback","","html-keyboard-response","318","409881","0.0-1.0-438.0-0.0","0","0","70496","","null","","","null","48","","","","","","","","","","","","","","","",""
"","ITI","","html-keyboard-response","319","410885","0.0-1.0-441.0","0","0","70496","","null","","","null","48","","","","","","","","","","","","","","","NaN",""
"","S1","","html-keyboard-response","320","411055","0.0-1.0-443.0","0","0","70496","","null","","","null","49","","","","","","","","","","","","","","","",""
"","ISI","","html-keyboard-response","321","413064","0.0-1.0-444.0","0","0","70496","","null","","","null","49","NaN","","","","","","","","","","","","","","",""
"","S2","","html-keyboard-response","322","413227","0.0-1.0-445.0","0","0","70496","","null","","","null","49","","NaN","","","","","","","","","","","","","",""
"","response","","html-keyboard-response","323","413545","0.0-1.0-446.0-0.0","0","0","70496","","316","","","68","49","","","2","49","training","adjacent","CD","3","4","P.jpg","L.jpg","1","1","1","",""
"","feedback","","html-keyboard-response","324","414569","0.0-1.0-447.0-0.0","0","0","70496","","null","","","null","49","","","","","","","","","","","","","","","",""
"","ITI","","html-keyboard-response","325","415573","0.0-1.0-450.0","0","0","70496","","null","","","null","49","","","","","","","","","","","","","","","NaN",""
"","S1","","html-keyboard-response","326","415736","0.0-1.0-452.0","0","0","70496","","null","","","null","50","","","","","","","","","","","","","","","",""
"","ISI","","html-keyboard-response","327","417746","0.0-1.0-453.0","0","0","70496","","null","","","null","50","NaN","","","","","","","","","","","","","","",""
"","S2","","html-keyboard-response","328","417899","0.0-1.0-454.0","0","0","70496","","null","","","null","50","","NaN","","","","","","","","","","","","","",""
"","response","","html-keyboard-response","329","418325","0.0-1.0-455.0-0.0","0","0","70496","","424","","","75","50","","","2","50","training","adjacent","AB","1","2","O.jpg","N.jpg","0","1","0","",""
"","feedback","","html-keyboard-response","330","419337","0.0-1.0-456.0-0.0","0","0","70496","","null","","","null","50","","","","","","","","","","","","","","","",""
"","time_out","","html-keyboard-response","331","421346","0.0-1.0-458.0-0.0","0","0","70496","","null","","","null","50","","","","","","","","","","","","","","","",""
"","ITI","","html-keyboard-response","332","422352","0.0-1.0-459.0","0","0","70496","","null","","","null","50","","","","","","","","","","","","","","","NaN",""
"","S1","","html-keyboard-response","333","422504","0.0-1.0-461.0","0","0","70496","","null","","","null","51","","","","","","","","","","","","","","","",""
"","ISI","","html-keyboard-response","334","424515","0.0-1.0-462.0","0","0","70496","","null","","","null","51","NaN","","","","","","","","","","","","","","",""
"","S2","","html-keyboard-response","335","424677","0.0-1.0-463.0","0","0","70496","","null","","","null","51","","NaN","","","","","","","","","","","","","",""
"","response","","html-keyboard-response","336","425162","0.0-1.0-464.0-0.0","0","0","70496","","484","","","75","51","","","2","51","training","adjacent","DC","4","3","L.jpg","P.jpg","0","0","1","",""
"","feedback","","html-keyboard-response","337","426170","0.0-1.0-465.0-0.0","0","0","70496","","null","","","null","51","","","","","","","","","","","","","","","",""
"","ITI","","html-keyboard-response","338","427175","0.0-1.0-468.0","0","0","70496","","null","","","null","51","","","","","","","","","","","","","","","NaN",""
"","S1","","html-keyboard-response","339","427328","0.0-1.0-470.0","0","0","70496","","null","","","null","52","","","","","","","","","","","","","","","",""
"","ISI","","html-keyboard-response","340","429337","0.0-1.0-471.0","0","0","70496","","null","","","null","52","NaN","","","","","","","","","","","","","","",""
"","S2","","html-keyboard-response","341","429501","0.0-1.0-472.0","0","0","70496","","null","","","null","52","","NaN","","","","","","","","","","","","","",""
"","response","","html-keyboard-response","342","429870","0.0-1.0-473.0-0.0","0","0","70496","","367","","","75","52","","","2","52","training","adjacent","FE","6","5","M.jpg","R.jpg","0","0","1","",""
"","feedback","","html-keyboard-response","343","430878","0.0-1.0-474.0-0.0","0","0","70496","","null","","","null","52","","","","","","","","","","","","","","","",""
"","ITI","","html-keyboard-response","344","431882","0.0-1.0-477.0","0","0","70496","","null","","","null","52","","","","","","","","","","","","","","","NaN",""
"","S1","","html-keyboard-response","345","432050","0.0-1.0-479.0","0","0","70496","","null","","","null","53","","","","","","","","","","","","","","","",""
"","ISI","","html-keyboard-response","346","434061","0.0-1.0-480.0","0","0","70496","","null","","","null","53","NaN","","","","","","","","","","","","","","",""
"","S2","","html-keyboard-response","347","434223","0.0-1.0-481.0","0","0","70496","","null","","","null","53","","NaN","","","","","","","","","","","","","",""
"","response","","html-keyboard-response","348","434566","0.0-1.0-482.0-0.0","0","0","70496","","340","","","75","53","","","2","53","training","adjacent","GF","7","6","Q.jpg","M.jpg","0","0","1","",""
"","feedback","","html-keyboard-response","349","435583","0.0-1.0-483.0-0.0","0","0","70496","","null","","","null","53","","","","","","","","","","","","","","","",""
"","ITI","","html-keyboard-response","350","436587","0.0-1.0-486.0","0","0","70496","","null","","","null","53","","","","","","","","","","","","","","","NaN",""
"","S1","","html-keyboard-response","351","436750","0.0-1.0-488.0","0","0","70496","","null","","","null","54","","","","","","","","","","","","","","","",""
"","ISI","","html-keyboard-response","352","438759","0.0-1.0-489.0","0","0","70496","","null","","","null","54","NaN","","","","","","","","","","","","","","",""
"","S2","","html-keyboard-response","353","438912","0.0-1.0-490.0","0","0","70496","","null","","","null","54","","NaN","","","","","","","","","","","","","",""
"","response","","html-keyboard-response","354","439544","0.0-1.0-491.0-0.0","0","0","70496","","631","","","68","54","","","2","54","training","adjacent","EF","5","6","R.jpg","M.jpg","1","1","1","",""
"","feedback","","html-keyboard-response","355","440551","0.0-1.0-492.0-0.0","0","0","70496","","null","","","null","54","","","","","","","","","","","","","","","",""
"","ITI","","html-keyboard-response","356","441557","0.0-1.0-495.0","0","0","70496","","null","","","null","54","","","","","","","","","","","","","","","NaN",""
"","S1","","html-keyboard-response","357","441710","0.0-1.0-497.0","0","0","70496","","null","","","null","55","","","","","","","","","","","","","","","",""
"","ISI","","html-keyboard-response","358","443720","0.0-1.0-498.0","0","0","70496","","null","","","null","55","NaN","","","","","","","","","","","","","","",""
"","S2","","html-keyboard-response","359","443885","0.0-1.0-499.0","0","0","70496","","null","","","null","55","","NaN","","","","","","","","","","","","","",""
"","response","","html-keyboard-response","360","444417","0.0-1.0-500.0-0.0","0","0","70496","","530","","","68","55","","","2","55","training","adjacent","ED","5","4","R.jpg","L.jpg","1","0","0","",""
"","feedback","","html-keyboard-response","361","445428","0.0-1.0-501.0-0.0","0","0","70496","","null","","","null","55","","","","","","","","","","","","","","","",""
"","time_out","","html-keyboard-response","362","447439","0.0-1.0-503.0-0.0","0","0","70496","","null","","","null","55","","","","","","","","","","","","","","","",""
"","ITI","","html-keyboard-response","363","448443","0.0-1.0-504.0","0","0","70496","","null","","","null","55","","","","","","","","","","","","","","","NaN",""
"","S1","","html-keyboard-response","364","448606","0.0-1.0-506.0","0","0","70496","","null","","","null","56","","","","","","","","","","","","","","","",""
"","ISI","","html-keyboard-response","365","450615","0.0-1.0-507.0","0","0","70496","","null","","","null","56","NaN","","","","","","","","","","","","","","",""
"","S2","","html-keyboard-response","366","450769","0.0-1.0-508.0","0","0","70496","","null","","","null","56","","NaN","","","","","","","","","","","","","",""
"","response","","html-keyboard-response","367","451220","0.0-1.0-509.0-0.0","0","0","70496","","449","","","75","56","","","2","56","training","adjacent","DC","4","3","L.jpg","P.jpg","0","0","1","",""
"","feedback","","html-keyboard-response","368","452223","0.0-1.0-510.0-0.0","0","0","70496","","null","","","null","56","","","","","","","","","","","","","","","",""
"","ITI","","html-keyboard-response","369","453228","0.0-1.0-513.0","0","0","70496","","null","","","null","56","","","","","","","","","","","","","","","NaN",""
"","S1","","html-keyboard-response","370","453382","0.0-1.0-515.0","0","0","70496","","null","","","null","57","","","","","","","","","","","","","","","",""
"","ISI","","html-keyboard-response","371","455393","0.0-1.0-516.0","0","0","70496","","null","","","null","57","NaN","","","","","","","","","","","","","","",""
"","S2","","html-keyboard-response","372","455563","0.0-1.0-517.0","0","0","70496","","null","","","null","57","","NaN","","","","","","","","","","","","","",""
"","response","","html-keyboard-response","373","455831","0.0-1.0-518.0-0.0","0","0","70496","","267","","","68","57","","","2","57","training","adjacent","CB","3","2","P.jpg","N.jpg","1","0","0","",""
"","feedback","","html-keyboard-response","374","456848","0.0-1.0-519.0-0.0","0","0","70496","","null","","","null","57","","","","","","","","","","","","","","","",""
"","time_out","","html-keyboard-response","375","458862","0.0-1.0-521.0-0.0","0","0","70496","","null","","","null","57","","","","","","","","","","","","","","","",""
"","ITI","","html-keyboard-response","376","459883","0.0-1.0-522.0","0","0","70496","","null","","","null","57","","","","","","","","","","","","","","","NaN",""
"","S1","","html-keyboard-response","377","460045","0.0-1.0-524.0","0","0","70496","","null","","","null","58","","","","","","","","","","","","","","","",""
"","ISI","","html-keyboard-response","378","462055","0.0-1.0-525.0","0","0","70496","","null","","","null","58","NaN","","","","","","","","","","","","","","",""
"","S2","","html-keyboard-response","379","462209","0.0-1.0-526.0","0","0","70496","","null","","","null","58","","NaN","","","","","","","","","","","","","",""
"","response","","html-keyboard-response","380","462598","0.0-1.0-527.0-0.0","0","0","70496","","388","","","68","58","","","2","58","training","adjacent","ED","5","4","R.jpg","L.jpg","1","0","0","",""
"","feedback","","html-keyboard-response","381","463615","0.0-1.0-528.0-0.0","0","0","70496","","null","","","null","58","","","","","","","","","","","","","","","",""
"","time_out","","html-keyboard-response","382","465626","0.0-1.0-530.0-0.0","0","0","70496","","null","","","null","58","","","","","","","","","","","","","","","",""
"","ITI","","html-keyboard-response","383","466630","0.0-1.0-531.0","0","0","70496","","null","","","null","58","","","","","","","","","","","","","","","NaN",""
"","S1","","html-keyboard-response","384","466793","0.0-1.0-533.0","0","0","70496","","null","","","null","59","","","","","","","","","","","","","","","",""
"","ISI","","html-keyboard-response","385","468807","0.0-1.0-534.0","0","0","70496","","null","","","null","59","NaN","","","","","","","","","","","","","","",""
"","S2","","html-keyboard-response","386","468973","0.0-1.0-535.0","0","0","70496","","null","","","null","59","","NaN","","","","","","","","","","","","","",""
"","response","","html-keyboard-response","387","469752","0.0-1.0-536.0-0.0","0","0","70496","","777","","","75","59","","","2","59","training","adjacent","GF","7","6","Q.jpg","M.jpg","0","0","1","",""
"","feedback","","html-keyboard-response","388","470766","0.0-1.0-537.0-0.0","0","0","70496","","null","","","null","59","","","","","","","","","","","","","","","",""
"","ITI","","html-keyboard-response","389","471770","0.0-1.0-540.0","0","0","70496","","null","","","null","59","","","","","","","","","","","","","","","NaN",""
"","S1","","html-keyboard-response","390","471940","0.0-1.0-542.0","0","0","70496","","null","","","null","60","","","","","","","","","","","","","","","",""
"","ISI","","html-keyboard-response","391","473950","0.0-1.0-543.0","0","0","70496","","null","","","null","60","NaN","","","","","","","","","","","","","","",""
"","S2","","html-keyboard-response","392","474112","0.0-1.0-544.0","0","0","70496","","null","","","null","60","","NaN","","","","","","","","","","","","","",""
"","response","","html-keyboard-response","393","474621","0.0-1.0-545.0-0.0","0","0","70496","","507","","","68","60","","","2","60","training","adjacent","ED","5","4","R.jpg","L.jpg","1","0","0","",""
"","feedback","","html-keyboard-response","394","475635","0.0-1.0-546.0-0.0","0","0","70496","","null","","","null","60","","","","","","","","","","","","","","","",""
"","time_out","","html-keyboard-response","395","477645","0.0-1.0-548.0-0.0","0","0","70496","","null","","","null","60","","","","","","","","","","","","","","","",""
"","ITI","","html-keyboard-response","396","478650","0.0-1.0-549.0","0","0","70496","","null","","","null","60","","","","","","","","","","","","","","","NaN",""
"","S1","","html-keyboard-response","397","478803","0.0-1.0-551.0","0","0","70496","","null","","","null","61","","","","","","","","","","","","","","","",""
"","ISI","","html-keyboard-response","398","480822","0.0-1.0-552.0","0","0","70496","","null","","","null","61","NaN","","","","","","","","","","","","","","",""
"","S2","","html-keyboard-response","399","480981","0.0-1.0-553.0","0","0","70496","","null","","","null","61","","NaN","","","","","","","","","","","","","",""
"","response","","html-keyboard-response","400","482387","0.0-1.0-554.0-0.0","0","0","70496","","1404","","","68","61","","","2","61","training","adjacent","BC","2","3","N.jpg","P.jpg","1","1","1","",""
"","feedback","","html-keyboard-response","401","483393","0.0-1.0-555.0-0.0","0","0","70496","","null","","","null","61","","","","","","","","","","","","","","","",""
"","ITI","","html-keyboard-response","402","484398","0.0-1.0-558.0","0","0","70496","","null","","","null","61","","","","","","","","","","","","","","","NaN",""
"","S1","","html-keyboard-response","403","484560","0.0-1.0-560.0","0","0","70496","","null","","","null","62","","","","","","","","","","","","","","","",""
"","ISI","","html-keyboard-response","404","486571","0.0-1.0-561.0","0","0","70496","","null","","","null","62","NaN","","","","","","","","","","","","","","",""
"","S2","","html-keyboard-response","405","486725","0.0-1.0-562.0","0","0","70496","","null","","","null","62","","NaN","","","","","","","","","","","","","",""
"","response","","html-keyboard-response","406","487449","0.0-1.0-563.0-0.0","0","0","70496","","723","","","68","62","","","2","62","training","adjacent","DE","4","5","L.jpg","R.jpg","1","1","1","",""
"","feedback","","html-keyboard-response","407","488463","0.0-1.0-564.0-0.0","0","0","70496","","null","","","null","62","","","","","","","","","","","","","","","",""
"","ITI","","html-keyboard-response","408","489468","0.0-1.0-567.0","0","0","70496","","null","","","null","62","","","","","","","","","","","","","","","NaN",""
"","S1","","html-keyboard-response","409","489623","0.0-1.0-569.0","0","0","70496","","null","","","null","63","","","","","","","","","","","","","","","",""
"","ISI","","html-keyboard-response","410","491631","0.0-1.0-570.0","0","0","70496","","null","","","null","63","NaN","","","","","","","","","","","","","","",""
"","S2","","html-keyboard-response","411","491793","0.0-1.0-571.0","0","0","70496","","null","","","null","63","","NaN","","","","","","","","","","","","","",""
"","response","","html-keyboard-response","412","492593","0.0-1.0-572.0-0.0","0","0","70496","","799","","","75","63","","","2","63","training","adjacent","CB","3","2","P.jpg","N.jpg","0","0","1","",""
"","feedback","","html-keyboard-response","413","493601","0.0-1.0-573.0-0.0","0","0","70496","","null","","","null","63","","","","","","","","","","","","","","","",""
"","ITI","","html-keyboard-response","414","494606","0.0-1.0-576.0","0","0","70496","","null","","","null","63","","","","","","","","","","","","","","","NaN",""
"","S1","","html-keyboard-response","415","494760","0.0-1.0-578.0","0","0","70496","","null","","","null","64","","","","","","","","","","","","","","","",""
"","ISI","","html-keyboard-response","416","496769","0.0-1.0-579.0","0","0","70496","","null","","","null","64","NaN","","","","","","","","","","","","","","",""
"","S2","","html-keyboard-response","417","496932","0.0-1.0-580.0","0","0","70496","","null","","","null","64","","NaN","","","","","","","","","","","","","",""
"","response","","html-keyboard-response","418","498056","0.0-1.0-581.0-0.0","0","0","70496","","1122","","","68","64","","","2","64","training","adjacent","BA","2","1","N.jpg","O.jpg","1","0","0","",""
"","feedback","","html-keyboard-response","419","499063","0.0-1.0-582.0-0.0","0","0","70496","","null","","","null","64","","","","","","","","","","","","","","","",""
"","time_out","","html-keyboard-response","420","501072","0.0-1.0-584.0-0.0","0","0","70496","","null","","","null","64","","","","","","","","","","","","","","","",""
"","ITI","","html-keyboard-response","421","502077","0.0-1.0-585.0","0","0","70496","","null","","","null","64","","","","","","","","","","","","","","","NaN",""
"","S1","","html-keyboard-response","422","502240","0.0-1.0-587.0","0","0","70496","","null","","","null","65","","","","","","","","","","","","","","","",""
"","ISI","","html-keyboard-response","423","504249","0.0-1.0-588.0","0","0","70496","","null","","","null","65","NaN","","","","","","","","","","","","","","",""
"","S2","","html-keyboard-response","424","504403","0.0-1.0-589.0","0","0","70496","","null","","","null","65","","NaN","","","","","","","","","","","","","",""
"","response","","html-keyboard-response","425","504906","0.0-1.0-590.0-0.0","0","0","70496","","501","","","75","65","","","2","65","training","adjacent","FE","6","5","M.jpg","R.jpg","0","0","1","",""
"","feedback","","html-keyboard-response","426","505910","0.0-1.0-591.0-0.0","0","0","70496","","null","","","null","65","","","","","","","","","","","","","","","",""
"","ITI","","html-keyboard-response","427","506915","0.0-1.0-594.0","0","0","70496","","null","","","null","65","","","","","","","","","","","","","","","NaN",""
"","S1","","html-keyboard-response","428","507078","0.0-1.0-596.0","0","0","70496","","null","","","null","66","","","","","","","","","","","","","","","",""
"","ISI","","html-keyboard-response","429","509088","0.0-1.0-597.0","0","0","70496","","null","","","null","66","NaN","","","","","","","","","","","","","","",""
"","S2","","html-keyboard-response","430","509242","0.0-1.0-598.0","0","0","70496","","null","","","null","66","","NaN","","","","","","","","","","","","","",""
"","response","","html-keyboard-response","431","509638","0.0-1.0-599.0-0.0","0","0","70496","","395","","","75","66","","","2","66","training","adjacent","DE","4","5","L.jpg","R.jpg","0","1","0","",""
"","feedback","","html-keyboard-response","432","510649","0.0-1.0-600.0-0.0","0","0","70496","","null","","","null","66","","","","","","","","","","","","","","","",""
"","time_out","","html-keyboard-response","433","512659","0.0-1.0-602.0-0.0","0","0","70496","","null","","","null","66","","","","","","","","","","","","","","","",""
"","ITI","","html-keyboard-response","434","513663","0.0-1.0-603.0","0","0","70496","","null","","","null","66","","","","","","","","","","","","","","","NaN",""
"","S1","","html-keyboard-response","435","513833","0.0-1.0-605.0","0","0","70496","","null","","","null","67","","","","","","","","","","","","","","","",""
"","ISI","","html-keyboard-response","436","515843","0.0-1.0-606.0","0","0","70496","","null","","","null","67","NaN","","","","","","","","","","","","","","",""
"","S2","","html-keyboard-response","437","516009","0.0-1.0-607.0","0","0","70496","","null","","","null","67","","NaN","","","","","","","","","","","","","",""
"","response","","html-keyboard-response","438","516724","0.0-1.0-608.0-0.0","0","0","70496","","713","","","68","67","","","2","67","training","adjacent","CD","3","4","P.jpg","L.jpg","1","1","1","",""
"","feedback","","html-keyboard-response","439","517730","0.0-1.0-609.0-0.0","0","0","70496","","null","","","null","67","","","","","","","","","","","","","","","",""
"","ITI","","html-keyboard-response","440","518735","0.0-1.0-612.0","0","0","70496","","null","","","null","67","","","","","","","","","","","","","","","NaN",""
"","S1","","html-keyboard-response","441","518888","0.0-1.0-614.0","0","0","70496","","null","","","null","68","","","","","","","","","","","","","","","",""
"","ISI","","html-keyboard-response","442","520898","0.0-1.0-615.0","0","0","70496","","null","","","null","68","NaN","","","","","","","","","","","","","","",""
"","S2","","html-keyboard-response","443","521068","0.0-1.0-616.0","0","0","70496","","null","","","null","68","","NaN","","","","","","","","","","","","","",""
"","response","","html-keyboard-response","444","521333","0.0-1.0-617.0-0.0","0","0","70496","","264","","","75","68","","","2","68","training","adjacent","GF","7","6","Q.jpg","M.jpg","0","0","1","",""
"","feedback","","html-keyboard-response","445","522336","0.0-1.0-618.0-0.0","0","0","70496","","null","","","null","68","","","","","","","","","","","","","","","",""
"","ITI","","html-keyboard-response","446","523340","0.0-1.0-621.0","0","0","70496","","null","","","null","68","","","","","","","","","","","","","","","NaN",""
"","S1","","html-keyboard-response","447","523494","0.0-1.0-623.0","0","0","70496","","null","","","null","69","","","","","","","","","","","","","","","",""
"","ISI","","html-keyboard-response","448","525503","0.0-1.0-624.0","0","0","70496","","null","","","null","69","NaN","","","","","","","","","","","","","","",""
"","S2","","html-keyboard-response","449","525666","0.0-1.0-625.0","0","0","70496","","null","","","null","69","","NaN","","","","","","","","","","","","","",""
"","response","","html-keyboard-response","450","526245","0.0-1.0-626.0-0.0","0","0","70496","","577","","","75","69","","","2","69","training","adjacent","ED","5","4","R.jpg","L.jpg","0","0","1","",""
"","feedback","","html-keyboard-response","451","527259","0.0-1.0-627.0-0.0","0","0","70496","","null","","","null","69","","","","","","","","","","","","","","","",""
"","ITI","","html-keyboard-response","452","528264","0.0-1.0-630.0","0","0","70496","","null","","","null","69","","","","","","","","","","","","","","","NaN",""
"","S1","","html-keyboard-response","453","528418","0.0-1.0-632.0","0","0","70496","","null","","","null","70","","","","","","","","","","","","","","","",""
"","ISI","","html-keyboard-response","454","530429","0.0-1.0-633.0","0","0","70496","","null","","","null","70","NaN","","","","","","","","","","","","","","",""
"","S2","","html-keyboard-response","455","530591","0.0-1.0-634.0","0","0","70496","","null","","","null","70","","NaN","","","","","","","","","","","","","",""
"","response","","html-keyboard-response","456","531639","0.0-1.0-635.0-0.0","0","0","70496","","1047","","","75","70","","","2","70","training","adjacent","CB","3","2","P.jpg","N.jpg","0","0","1","",""
"","feedback","","html-keyboard-response","457","532655","0.0-1.0-636.0-0.0","0","0","70496","","null","","","null","70","","","","","","","","","","","","","","","",""
"","ITI","","html-keyboard-response","458","533660","0.0-1.0-639.0","0","0","70496","","null","","","null","70","","","","","","","","","","","","","","","NaN",""
"","S1","","html-keyboard-response","459","533829","0.0-1.0-641.0","0","0","70496","","null","","","null","71","","","","","","","","","","","","","","","",""
"","ISI","","html-keyboard-response","460","535840","0.0-1.0-642.0","0","0","70496","","null","","","null","71","NaN","","","","","","","","","","","","","","",""
"","S2","","html-keyboard-response","461","536003","0.0-1.0-643.0","0","0","70496","","null","","","null","71","","NaN","","","","","","","","","","","","","",""
"","response","","html-keyboard-response","462","537107","0.0-1.0-644.0-0.0","0","0","70496","","1103","","","75","71","","","2","71","training","adjacent","EF","5","6","R.jpg","M.jpg","0","1","0","",""
"","feedback","","html-keyboard-response","463","538113","0.0-1.0-645.0-0.0","0","0","70496","","null","","","null","71","","","","","","","","","","","","","","","",""
"","time_out","","html-keyboard-response","464","540123","0.0-1.0-647.0-0.0","0","0","70496","","null","","","null","71","","","","","","","","","","","","","","","",""
"","ITI","","html-keyboard-response","465","541126","0.0-1.0-648.0","0","0","70496","","null","","","null","71","","","","","","","","","","","","","","","NaN",""
"","S1","","html-keyboard-response","466","541280","0.0-1.0-650.0","0","0","70496","","null","","","null","72","","","","","","","","","","","","","","","",""
"","ISI","","html-keyboard-response","467","543291","0.0-1.0-651.0","0","0","70496","","null","","","null","72","NaN","","","","","","","","","","","","","","",""
"","S2","","html-keyboard-response","468","543453","0.0-1.0-652.0","0","0","70496","","null","","","null","72","","NaN","","","","","","","","","","","","","",""
"","response","","html-keyboard-response","469","543877","0.0-1.0-653.0-0.0","0","0","70496","","423","","","75","72","","","2","72","training","adjacent","GF","7","6","Q.jpg","M.jpg","0","0","1","",""
"","feedback","","html-keyboard-response","470","544882","0.0-1.0-654.0-0.0","0","0","70496","","null","","","null","72","","","","","","","","","","","","","","","",""
"","ITI","","html-keyboard-response","471","545888","0.0-1.0-657.0","0","0","70496","","null","","","null","72","","","","","","","","","","","","","","","NaN",""
"","S1","","html-keyboard-response","472","546049","0.0-1.0-659.0","0","0","70496","","null","","","null","73","","","","","","","","","","","","","","","",""
"","ISI","","html-keyboard-response","473","548059","0.0-1.0-660.0","0","0","70496","","null","","","null","73","NaN","","","","","","","","","","","","","","",""
"","S2","","html-keyboard-response","474","548213","0.0-1.0-661.0","0","0","70496","","null","","","null","73","","NaN","","","","","","","","","","","","","",""
"","response","","html-keyboard-response","475","548825","0.0-1.0-662.0-0.0","0","0","70496","","611","","","68","73","","","2","73","training","adjacent","FG","6","7","M.jpg","Q.jpg","1","1","1","",""
"","feedback","","html-keyboard-response","476","549838","0.0-1.0-663.0-0.0","0","0","70496","","null","","","null","73","","","","","","","","","","","","","","","",""
"","ITI","","html-keyboard-response","477","550842","0.0-1.0-666.0","0","0","70496","","null","","","null","73","","","","","","","","","","","","","","","NaN",""
"","S1","","html-keyboard-response","478","551010","0.0-1.0-668.0","0","0","70496","","null","","","null","74","","","","","","","","","","","","","","","",""
"","ISI","","html-keyboard-response","479","553020","0.0-1.0-669.0","0","0","70496","","null","","","null","74","NaN","","","","","","","","","","","","","","",""
"","S2","","html-keyboard-response","480","553183","0.0-1.0-670.0","0","0","70496","","null","","","null","74","","NaN","","","","","","","","","","","","","",""
"","response","","html-keyboard-response","481","553520","0.0-1.0-671.0-0.0","0","0","70496","","335","","","68","74","","","2","74","training","adjacent","AB","1","2","O.jpg","N.jpg","1","1","1","",""
"","feedback","","html-keyboard-response","482","554527","0.0-1.0-672.0-0.0","0","0","70496","","null","","","null","74","","","","","","","","","","","","","","","",""
"","ITI","","html-keyboard-response","483","555532","0.0-1.0-675.0","0","0","70496","","null","","","null","74","","","","","","","","","","","","","","","NaN",""
"","S1","","html-keyboard-response","484","555694","0.0-1.0-677.0","0","0","70496","","null","","","null","75","","","","","","","","","","","","","","","",""
"","ISI","","html-keyboard-response","485","557704","0.0-1.0-678.0","0","0","70496","","null","","","null","75","NaN","","","","","","","","","","","","","","",""
"","S2","","html-keyboard-response","486","557869","0.0-1.0-679.0","0","0","70496","","null","","","null","75","","NaN","","","","","","","","","","","","","",""
"","response","","html-keyboard-response","487","559095","0.0-1.0-680.0-0.0","0","0","70496","","1224","","","68","75","","","2","75","training","adjacent","BA","2","1","N.jpg","O.jpg","1","0","0","",""
"","feedback","","html-keyboard-response","488","560100","0.0-1.0-681.0-0.0","0","0","70496","","null","","","null","75","","","","","","","","","","","","","","","",""
"","time_out","","html-keyboard-response","489","562116","0.0-1.0-683.0-0.0","0","0","70496","","null","","","null","75","","","","","","","","","","","","","","","",""
"","ITI","","html-keyboard-response","490","563122","0.0-1.0-684.0","0","0","70496","","null","","","null","75","","","","","","","","","","","","","","","NaN",""
"","S1","","html-keyboard-response","491","563285","0.0-1.0-686.0","0","0","70496","","null","","","null","76","","","","","","","","","","","","","","","",""
"","ISI","","html-keyboard-response","492","565295","0.0-1.0-687.0","0","0","70496","","null","","","null","76","NaN","","","","","","","","","","","","","","",""
"","S2","","html-keyboard-response","493","565458","0.0-1.0-688.0","0","0","70496","","null","","","null","76","","NaN","","","","","","","","","","","","","",""
"","response","","html-keyboard-response","494","565894","0.0-1.0-689.0-0.0","0","0","70496","","435","","","68","76","","","2","76","training","adjacent","FE","6","5","M.jpg","R.jpg","1","0","0","",""
"","feedback","","html-keyboard-response","495","566903","0.0-1.0-690.0-0.0","0","0","70496","","null","","","null","76","","","","","","","","","","","","","","","",""
"","time_out","","html-keyboard-response","496","568913","0.0-1.0-692.0-0.0","0","0","70496","","null","","","null","76","","","","","","","","","","","","","","","",""
"","ITI","","html-keyboard-response","497","569919","0.0-1.0-693.0","0","0","70496","","null","","","null","76","","","","","","","","","","","","","","","NaN",""
"","S1","","html-keyboard-response","498","570082","0.0-1.0-695.0","0","0","70496","","null","","","null","77","","","","","","","","","","","","","","","",""
"","ISI","","html-keyboard-response","499","572093","0.0-1.0-696.0","0","0","70496","","null","","","null","77","NaN","","","","","","","","","","","","","","",""
"","S2","","html-keyboard-response","500","572246","0.0-1.0-697.0","0","0","70496","","null","","","null","77","","NaN","","","","","","","","","","","","","",""
"","response","","html-keyboard-response","501","572788","0.0-1.0-698.0-0.0","0","0","70496","","541","","","68","77","","","2","77","training","adjacent","DE","4","5","L.jpg","R.jpg","1","1","1","",""
"","feedback","","html-keyboard-response","502","573800","0.0-1.0-699.0-0.0","0","0","70496","","null","","","null","77","","","","","","","","","","","","","","","",""
"","ITI","","html-keyboard-response","503","574807","0.0-1.0-702.0","0","0","70496","","null","","","null","77","","","","","","","","","","","","","","","NaN",""
"","S1","","html-keyboard-response","504","574959","0.0-1.0-704.0","0","0","70496","","null","","","null","78","","","","","","","","","","","","","","","",""
"","ISI","","html-keyboard-response","505","576968","0.0-1.0-705.0","0","0","70496","","null","","","null","78","NaN","","","","","","","","","","","","","","",""
"","S2","","html-keyboard-response","506","577138","0.0-1.0-706.0","0","0","70496","","null","","","null","78","","NaN","","","","","","","","","","","","","",""
"","response","","html-keyboard-response","507","578527","0.0-1.0-707.0-0.0","0","0","70496","","1388","","","68","78","","","2","78","training","adjacent","CD","3","4","P.jpg","L.jpg","1","1","1","",""
"","feedback","","html-keyboard-response","508","579546","0.0-1.0-708.0-0.0","0","0","70496","","null","","","null","78","","","","","","","","","","","","","","","",""
"","ITI","","html-keyboard-response","509","580550","0.0-1.0-711.0","0","0","70496","","null","","","null","78","","","","","","","","","","","","","","","NaN",""
"","S1","","html-keyboard-response","510","580713","0.0-1.0-713.0","0","0","70496","","null","","","null","79","","","","","","","","","","","","","","","",""
"","ISI","","html-keyboard-response","511","582723","0.0-1.0-714.0","0","0","70496","","null","","","null","79","NaN","","","","","","","","","","","","","","",""
"","S2","","html-keyboard-response","512","582877","0.0-1.0-715.0","0","0","70496","","null","","","null","79","","NaN","","","","","","","","","","","","","",""
"","response","","html-keyboard-response","513","583180","0.0-1.0-716.0-0.0","0","0","70496","","302","","","68","79","","","2","79","training","adjacent","DE","4","5","L.jpg","R.jpg","1","1","1","",""
"","feedback","","html-keyboard-response","514","584184","0.0-1.0-717.0-0.0","0","0","70496","","null","","","null","79","","","","","","","","","","","","","","","",""
"","ITI","","html-keyboard-response","515","585188","0.0-1.0-720.0","0","0","70496","","null","","","null","79","","","","","","","","","","","","","","","NaN",""
"","S1","","html-keyboard-response","516","585351","0.0-1.0-722.0","0","0","70496","","null","","","null","80","","","","","","","","","","","","","","","",""
"","ISI","","html-keyboard-response","517","587362","0.0-1.0-723.0","0","0","70496","","null","","","null","80","NaN","","","","","","","","","","","","","","",""
"","S2","","html-keyboard-response","518","587515","0.0-1.0-724.0","0","0","70496","","null","","","null","80","","NaN","","","","","","","","","","","","","",""
"","response","","html-keyboard-response","519","588094","0.0-1.0-725.0-0.0","0","0","70496","","578","","","68","80","","","2","80","training","adjacent","FG","6","7","M.jpg","Q.jpg","1","1","1","",""
"","feedback","","html-keyboard-response","520","589107","0.0-1.0-726.0-0.0","0","0","70496","","null","","","null","80","","","","","","","","","","","","","","","",""
"","ITI","","html-keyboard-response","521","590112","0.0-1.0-729.0","0","0","70496","","null","","","null","80","","","","","","","","","","","","","","","NaN",""
"","S1","","html-keyboard-response","522","590274","0.0-1.0-731.0","0","0","70496","","null","","","null","81","","","","","","","","","","","","","","","",""
"","ISI","","html-keyboard-response","523","592284","0.0-1.0-732.0","0","0","70496","","null","","","null","81","NaN","","","","","","","","","","","","","","",""
"","S2","","html-keyboard-response","524","592438","0.0-1.0-733.0","0","0","70496","","null","","","null","81","","NaN","","","","","","","","","","","","","",""
"","response","","html-keyboard-response","525","592735","0.0-1.0-734.0-0.0","0","0","70496","","296","","","68","81","","","2","81","training","adjacent","AB","1","2","O.jpg","N.jpg","1","1","1","",""
"","feedback","","html-keyboard-response","526","593743","0.0-1.0-735.0-0.0","0","0","70496","","null","","","null","81","","","","","","","","","","","","","","","",""
"","ITI","","html-keyboard-response","527","594749","0.0-1.0-738.0","0","0","70496","","null","","","null","81","","","","","","","","","","","","","","","NaN",""
"","S1","","html-keyboard-response","528","594918","0.0-1.0-740.0","0","0","70496","","null","","","null","82","","","","","","","","","","","","","","","",""
"","ISI","","html-keyboard-response","529","596927","0.0-1.0-741.0","0","0","70496","","null","","","null","82","NaN","","","","","","","","","","","","","","",""
"","S2","","html-keyboard-response","530","597090","0.0-1.0-742.0","0","0","70496","","null","","","null","82","","NaN","","","","","","","","","","","","","",""
"","response","","html-keyboard-response","531","597606","0.0-1.0-743.0-0.0","0","0","70496","","515","","","68","82","","","2","82","training","adjacent","FG","6","7","M.jpg","Q.jpg","1","1","1","",""
"","feedback","","html-keyboard-response","532","598612","0.0-1.0-744.0-0.0","0","0","70496","","null","","","null","82","","","","","","","","","","","","","","","",""
"","ITI","","html-keyboard-response","533","599617","0.0-1.0-747.0","0","0","70496","","null","","","null","82","","","","","","","","","","","","","","","NaN",""
"","S1","","html-keyboard-response","534","599770","0.0-1.0-749.0","0","0","70496","","null","","","null","83","","","","","","","","","","","","","","","",""
"","ISI","","html-keyboard-response","535","601781","0.0-1.0-750.0","0","0","70496","","null","","","null","83","NaN","","","","","","","","","","","","","","",""
"","S2","","html-keyboard-response","536","601950","0.0-1.0-751.0","0","0","70496","","null","","","null","83","","NaN","","","","","","","","","","","","","",""
"","response","","html-keyboard-response","537","602489","0.0-1.0-752.0-0.0","0","0","70496","","538","","","75","83","","","2","83","training","adjacent","EF","5","6","R.jpg","M.jpg","0","1","0","",""
"","feedback","","html-keyboard-response","538","603505","0.0-1.0-753.0-0.0","0","0","70496","","null","","","null","83","","","","","","","","","","","","","","","",""
"","time_out","","html-keyboard-response","539","605515","0.0-1.0-755.0-0.0","0","0","70496","","null","","","null","83","","","","","","","","","","","","","","","",""
"","ITI","","html-keyboard-response","540","606520","0.0-1.0-756.0","0","0","70496","","null","","","null","83","","","","","","","","","","","","","","","NaN",""
"","S1","","html-keyboard-response","541","606674","0.0-1.0-758.0","0","0","70496","","null","","","null","84","","","","","","","","","","","","","","","",""
"","ISI","","html-keyboard-response","542","608682","0.0-1.0-759.0","0","0","70496","","null","","","null","84","NaN","","","","","","","","","","","","","","",""
"","S2","","html-keyboard-response","543","608847","0.0-1.0-760.0","0","0","70496","","null","","","null","84","","NaN","","","","","","","","","","","","","",""
"","response","","html-keyboard-response","544","609948","0.0-1.0-761.0-0.0","0","0","70496","","1100","","","68","84","","","2","84","training","adjacent","CD","3","4","P.jpg","L.jpg","1","1","1","",""
"","feedback","","html-keyboard-response","545","610955","0.0-1.0-762.0-0.0","0","0","70496","","null","","","null","84","","","","","","","","","","","","","","","",""
"","ITI","","html-keyboard-response","546","611960","0.0-1.0-765.0","0","0","70496","","null","","","null","84","","","","","","","","","","","","","","","NaN",""
"","S1","","html-keyboard-response","547","612113","0.0-1.0-767.0","0","0","70496","","null","","","null","85","","","","","","","","","","","","","","","",""
"","ISI","","html-keyboard-response","548","614124","0.0-1.0-768.0","0","0","70496","","null","","","null","85","NaN","","","","","","","","","","","","","","",""
"","S2","","html-keyboard-response","549","614287","0.0-1.0-769.0","0","0","70496","","null","","","null","85","","NaN","","","","","","","","","","","","","",""
"","response","","html-keyboard-response","550","615106","0.0-1.0-770.0-0.0","0","0","70496","","818","","","75","85","","","2","85","training","adjacent","FE","6","5","M.jpg","R.jpg","0","0","1","",""
"","feedback","","html-keyboard-response","551","616119","0.0-1.0-771.0-0.0","0","0","70496","","null","","","null","85","","","","","","","","","","","","","","","",""
"","ITI","","html-keyboard-response","552","617123","0.0-1.0-774.0","0","0","70496","","null","","","null","85","","","","","","","","","","","","","","","NaN",""
"","S1","","html-keyboard-response","553","617285","0.0-1.0-776.0","0","0","70496","","null","","","null","86","","","","","","","","","","","","","","","",""
"","ISI","","html-keyboard-response","554","619294","0.0-1.0-777.0","0","0","70496","","null","","","null","86","NaN","","","","","","","","","","","","","","",""
"","S2","","html-keyboard-response","555","619448","0.0-1.0-778.0","0","0","70496","","null","","","null","86","","NaN","","","","","","","","","","","","","",""
"","response","","html-keyboard-response","556","620500","0.0-1.0-779.0-0.0","0","0","70496","","1050","","","68","86","","","2","86","training","adjacent","BC","2","3","N.jpg","P.jpg","1","1","1","",""
"","feedback","","html-keyboard-response","557","621505","0.0-1.0-780.0-0.0","0","0","70496","","null","","","null","86","","","","","","","","","","","","","","","",""
"","ITI","","html-keyboard-response","558","622510","0.0-1.0-783.0","0","0","70496","","null","","","null","86","","","","","","","","","","","","","","","NaN",""
"","S1","","html-keyboard-response","559","622664","0.0-1.0-785.0","0","0","70496","","null","","","null","87","","","","","","","","","","","","","","","",""
"","ISI","","html-keyboard-response","560","624675","0.0-1.0-786.0","0","0","70496","","null","","","null","87","NaN","","","","","","","","","","","","","","",""
"","S2","","html-keyboard-response","561","624838","0.0-1.0-787.0","0","0","70496","","null","","","null","87","","NaN","","","","","","","","","","","","","",""
"","response","","html-keyboard-response","562","625575","0.0-1.0-788.0-0.0","0","0","70496","","736","","","75","87","","","2","87","training","adjacent","BA","2","1","N.jpg","O.jpg","0","0","1","",""
"","feedback","","html-keyboard-response","563","626584","0.0-1.0-789.0-0.0","0","0","70496","","null","","","null","87","","","","","","","","","","","","","","","",""
"","ITI","","html-keyboard-response","564","627590","0.0-1.0-792.0","0","0","70496","","null","","","null","87","","","","","","","","","","","","","","","NaN",""
"","S1","","html-keyboard-response","565","627752","0.0-1.0-794.0","0","0","70496","","null","","","null","88","","","","","","","","","","","","","","","",""
"","ISI","","html-keyboard-response","566","629763","0.0-1.0-795.0","0","0","70496","","null","","","null","88","NaN","","","","","","","","","","","","","","",""
"","S2","","html-keyboard-response","567","629916","0.0-1.0-796.0","0","0","70496","","null","","","null","88","","NaN","","","","","","","","","","","","","",""
"","response","","html-keyboard-response","568","630484","0.0-1.0-797.0-0.0","0","0","70496","","566","","","68","88","","","2","88","training","adjacent","FG","6","7","M.jpg","Q.jpg","1","1","1","",""
"","feedback","","html-keyboard-response","569","631490","0.0-1.0-798.0-0.0","0","0","70496","","null","","","null","88","","","","","","","","","","","","","","","",""
"","ITI","","html-keyboard-response","570","632495","0.0-1.0-801.0","0","0","70496","","null","","","null","88","","","","","","","","","","","","","","","NaN",""
"","S1","","html-keyboard-response","571","632658","0.0-1.0-803.0","0","0","70496","","null","","","null","89","","","","","","","","","","","","","","","",""
"","ISI","","html-keyboard-response","572","634668","0.0-1.0-804.0","0","0","70496","","null","","","null","89","NaN","","","","","","","","","","","","","","",""
"","S2","","html-keyboard-response","573","634823","0.0-1.0-805.0","0","0","70496","","null","","","null","89","","NaN","","","","","","","","","","","","","",""
"","response","","html-keyboard-response","574","635378","0.0-1.0-806.0-0.0","0","0","70496","","554","","","75","89","","","2","89","training","adjacent","BA","2","1","N.jpg","O.jpg","0","0","1","",""
"","feedback","","html-keyboard-response","575","636392","0.0-1.0-807.0-0.0","0","0","70496","","null","","","null","89","","","","","","","","","","","","","","","",""
"","ITI","","html-keyboard-response","576","637396","0.0-1.0-810.0","0","0","70496","","null","","","null","89","","","","","","","","","","","","","","","NaN",""
"","S1","","html-keyboard-response","577","637550","0.0-1.0-812.0","0","0","70496","","null","","","null","90","","","","","","","","","","","","","","","",""
"","ISI","","html-keyboard-response","578","639560","0.0-1.0-813.0","0","0","70496","","null","","","null","90","NaN","","","","","","","","","","","","","","",""
"","S2","","html-keyboard-response","579","639729","0.0-1.0-814.0","0","0","70496","","null","","","null","90","","NaN","","","","","","","","","","","","","",""
"","response","","html-keyboard-response","580","640487","0.0-1.0-815.0-0.0","0","0","70496","","756","","","68","90","","","2","90","training","adjacent","BC","2","3","N.jpg","P.jpg","1","1","1","",""
