"success","ttype","start_time","trial_type","trial_index","time_elapsed","internal_node_id","warning","missed_checkup","PID","view_history","rt","responses","repeat_instructions","key_press","index","keypress_isi","keypress_S2","block","trial_num","phase","group_type","pair_type","S1_stim","S2_stim","S1_img","S2_img","S1_chosen","S1_higher","accuracy","keypress_iti","total_bonus_tally"
"true","full_screen","d08052022hr1306","fullscreen","0","89609","0.0-0.0","0","0","87250","","","","","","","","","","","","","","","","","","","","","",""
"","instructions","","instructions","1","152329","0.0-1.0-0.0-0.0","0","0","87250","[{""page_index"":0,""viewing_time"":7169},{""page_index"":1,""viewing_time"":40612},{""page_index"":2,""viewing_time"":13185},{""page_index"":3,""viewing_time"":1730}]","62707","","","","","","","","","","","","","","","","","","","",""
"","comprehension_check","","survey-multi-choice","2","176189","0.0-1.0-0.0-1.0","0","0","87250","","23815","{""Q0"":""True"",""Q1"":""D"",""Q2"":""Once the second image appears and while the screen 'MAKE A CHOICE' is shown"",""Q3"":""Green mark"",""Q4"":""either D or K""}","0","","","","","","","","","","","","","","","","","",""
"","start_exp","","html-keyboard-response","3","179275","0.0-1.0-1.0","0","0","87250","","3065","","","32","","","","","","","","","","","","","","","","",""
"","S1","","html-keyboard-response","4","179536","0.0-1.0-2.0","0","0","87250","","null","","","null","0","","","","","","","","","","","","","","","",""
"","ISI","","html-keyboard-response","5","181545","0.0-1.0-3.0","0","0","87250","","null","","","null","0","NaN","","","","","","","","","","","","","","",""
"","S2","","html-keyboard-response","6","181806","0.0-1.0-4.0","0","0","87250","","null","","","null","0","","NaN","","","","","","","","","","","","","",""
"","response","","html-keyboard-response","7","183564","0.0-1.0-5.0-0.0","0","0","87250","","null","","","null","0","","","1","0","training","adjacent","CD","3","4","O.jpg","Q.jpg","NaN","1","0","",""
"","too_slow_prompt","","html-keyboard-response","8","184577","0.0-1.0-7.0-0.0","1","0","87250","","null","","","null","","","","","","","","","","","","","","","","",""
"","time_out","","html-keyboard-response","9","186588","0.0-1.0-8.0-0.0","0","0","87250","","null","","","null","0","","","","","","","","","","","","","","","",""
"","ITI","","html-keyboard-response","10","187612","0.0-1.0-9.0","0","0","87250","","null","","","null","0","","","","","","","","","","","","","","","NaN",""
"","S1","","html-keyboard-response","11","187875","0.0-1.0-11.0","0","0","87250","","null","","","null","1","","","","","","","","","","","","","","","",""
"","ISI","","html-keyboard-response","12","189886","0.0-1.0-12.0","0","0","87250","","null","","","null","1","NaN","","","","","","","","","","","","","","",""
"","S2","","html-keyboard-response","13","190146","0.0-1.0-13.0","0","0","87250","","null","","","null","1","","NaN","","","","","","","","","","","","","",""
"","response","","html-keyboard-response","14","190757","0.0-1.0-14.0-0.0","0","0","87250","","600","","","68","1","","","1","1","training","adjacent","CD","3","4","O.jpg","Q.jpg","1","1","1","",""
"","feedback","","html-keyboard-response","15","191770","0.0-1.0-15.0-0.0","0","0","87250","","null","","","null","1","","","","","","","","","","","","","","","",""
"","ITI","","html-keyboard-response","16","192781","0.0-1.0-18.0","0","0","87250","","null","","","null","1","","","","","","","","","","","","","","","NaN",""
"","S1","","html-keyboard-response","17","193040","0.0-1.0-20.0","0","0","87250","","null","","","null","2","","","","","","","","","","","","","","","",""
"","ISI","","html-keyboard-response","18","195049","0.0-1.0-21.0","0","0","87250","","null","","","null","2","NaN","","","","","","","","","","","","","","",""
"","S2","","html-keyboard-response","19","195308","0.0-1.0-22.0","0","0","87250","","null","","","null","2","","NaN","","","","","","","","","","","","","",""
"","response","","html-keyboard-response","20","196344","0.0-1.0-23.0-0.0","0","0","87250","","1027","","","68","2","","","1","2","training","adjacent","BA","2","1","R.jpg","N.jpg","1","0","0","",""
"","feedback","","html-keyboard-response","21","197356","0.0-1.0-24.0-0.0","0","0","87250","","null","","","null","2","","","","","","","","","","","","","","","",""
"","time_out","","html-keyboard-response","22","199367","0.0-1.0-26.0-0.0","0","0","87250","","null","","","null","2","","","","","","","","","","","","","","","",""
"","ITI","","html-keyboard-response","23","200379","0.0-1.0-27.0","0","0","87250","","null","","","null","2","","","","","","","","","","","","","","","NaN",""
"","S1","","html-keyboard-response","24","200641","0.0-1.0-29.0","0","0","87250","","null","","","null","3","","","","","","","","","","","","","","","",""
"","ISI","","html-keyboard-response","25","202652","0.0-1.0-30.0","0","0","87250","","null","","","null","3","NaN","","","","","","","","","","","","","","",""
"","S2","","html-keyboard-response","26","202915","0.0-1.0-31.0","0","0","87250","","null","","","null","3","","NaN","","","","","","","","","","","","","",""
"","response","","html-keyboard-response","27","203391","0.0-1.0-32.0-0.0","0","0","87250","","464","","","68","3","","","1","3","training","adjacent","CB","3","2","O.jpg","R.jpg","1","0","0","",""
"","feedback","","html-keyboard-response","28","204405","0.0-1.0-33.0-0.0","0","0","87250","","null","","","null","3","","","","","","","","","","","","","","","",""
"","time_out","","html-keyboard-response","29","206420","0.0-1.0-35.0-0.0","0","0","87250","","null","","","null","3","","","","","","","","","","","","","","","",""
"","ITI","","html-keyboard-response","30","207430","0.0-1.0-36.0","0","0","87250","","null","","","null","3","","","","","","","","","","","","","","","NaN",""
"","S1","","html-keyboard-response","31","207692","0.0-1.0-38.0","0","0","87250","","null","","","null","4","","","","","","","","","","","","","","","",""
"","ISI","","html-keyboard-response","32","209703","0.0-1.0-39.0","0","0","87250","","null","","","null","4","NaN","","","","","","","","","","","","","","",""
"","S2","","html-keyboard-response","33","209964","0.0-1.0-40.0","0","0","87250","","null","","","null","4","","NaN","","","","","","","","","","","","","",""
"","response","","html-keyboard-response","34","210629","0.0-1.0-41.0-0.0","0","0","87250","","654","","","75","4","","","1","4","training","adjacent","GF","7","6","M.jpg","L.jpg","0","0","1","",""
"","feedback","","html-keyboard-response","35","211642","0.0-1.0-42.0-0.0","0","0","87250","","null","","","null","4","","","","","","","","","","","","","","","",""
"","ITI","","html-keyboard-response","36","212653","0.0-1.0-45.0","0","0","87250","","null","","","null","4","","","","","","","","","","","","","","","NaN",""
"","S1","","html-keyboard-response","37","212911","0.0-1.0-47.0","0","0","87250","","null","","","null","5","","","","","","","","","","","","","","","",""
"","ISI","","html-keyboard-response","38","214920","0.0-1.0-48.0","0","0","87250","","null","","","null","5","NaN","","","","","","","","","","","","","","",""
"","S2","","html-keyboard-response","39","215180","0.0-1.0-49.0","0","0","87250","","null","","","null","5","","NaN","","","","","","","","","","","","","",""
"","response","","html-keyboard-response","40","215809","0.0-1.0-50.0-0.0","0","0","87250","","620","","","75","5","","","1","5","training","adjacent","EF","5","6","P.jpg","L.jpg","0","1","0","",""
"","feedback","","html-keyboard-response","41","216822","0.0-1.0-51.0-0.0","0","0","87250","","null","","","null","5","","","","","","","","","","","","","","","",""
"","time_out","","html-keyboard-response","42","218835","0.0-1.0-53.0-0.0","0","0","87250","","null","","","null","5","","","","","","","","","","","","","","","",""
"","ITI","","html-keyboard-response","43","219846","0.0-1.0-54.0","0","0","87250","","null","","","null","5","","","","","","","","","","","","","","","NaN",""
"","S1","","html-keyboard-response","44","220104","0.0-1.0-56.0","0","0","87250","","null","","","null","6","","","","","","","","","","","","","","","",""
"","ISI","","html-keyboard-response","45","222112","0.0-1.0-57.0","0","0","87250","","null","","","null","6","NaN","","","","","","","","","","","","","","",""
"","S2","","html-keyboard-response","46","222375","0.0-1.0-58.0","0","0","87250","","null","","","null","6","","NaN","","","","","","","","","","","","","",""
"","response","","html-keyboard-response","47","222790","0.0-1.0-59.0-0.0","0","0","87250","","404","","","75","6","","","1","6","training","adjacent","BC","2","3","R.jpg","O.jpg","0","1","0","",""
"","feedback","","html-keyboard-response","48","223803","0.0-1.0-60.0-0.0","0","0","87250","","null","","","null","6","","","","","","","","","","","","","","","",""
"","time_out","","html-keyboard-response","49","225815","0.0-1.0-62.0-0.0","0","0","87250","","null","","","null","6","","","","","","","","","","","","","","","",""
"","ITI","","html-keyboard-response","50","226826","0.0-1.0-63.0","0","0","87250","","null","","","null","6","","","","","","","","","","","","","","","NaN",""
"","S1","","html-keyboard-response","51","227087","0.0-1.0-65.0","0","0","87250","","null","","","null","7","","","","","","","","","","","","","","","",""
"","ISI","","html-keyboard-response","52","229097","0.0-1.0-66.0","0","0","87250","","null","","","null","7","NaN","","","","","","","","","","","","","","",""
"","S2","","html-keyboard-response","53","229359","0.0-1.0-67.0","0","0","87250","","null","","","null","7","","NaN","","","","","","","","","","","","","",""
"","response","","html-keyboard-response","54","229824","0.0-1.0-68.0-0.0","0","0","87250","","454","","","68","7","","","1","7","training","adjacent","ED","5","4","P.jpg","Q.jpg","1","0","0","",""
"","feedback","","html-keyboard-response","55","230836","0.0-1.0-69.0-0.0","0","0","87250","","null","","","null","7","","","","","","","","","","","","","","","",""
"","time_out","","html-keyboard-response","56","232848","0.0-1.0-71.0-0.0","0","0","87250","","null","","","null","7","","","","","","","","","","","","","","","",""
"","ITI","","html-keyboard-response","57","233859","0.0-1.0-72.0","0","0","87250","","null","","","null","7","","","","","","","","","","","","","","","NaN",""
"","S1","","html-keyboard-response","58","234121","0.0-1.0-74.0","0","0","87250","","null","","","null","8","","","","","","","","","","","","","","","",""
"","ISI","","html-keyboard-response","59","236131","0.0-1.0-75.0","0","0","87250","","null","","","null","8","NaN","","","","","","","","","","","","","","",""
"","S2","","html-keyboard-response","60","236394","0.0-1.0-76.0","0","0","87250","","null","","","null","8","","NaN","","","","","","","","","","","","","",""
"","response","","html-keyboard-response","61","236901","0.0-1.0-77.0-0.0","0","0","87250","","496","","","68","8","","","1","8","training","adjacent","FG","6","7","L.jpg","M.jpg","1","1","1","",""
"","feedback","","html-keyboard-response","62","237914","0.0-1.0-78.0-0.0","0","0","87250","","null","","","null","8","","","","","","","","","","","","","","","",""
"","ITI","","html-keyboard-response","63","238925","0.0-1.0-81.0","0","0","87250","","null","","","null","8","","","","","","","","","","","","","","","NaN",""
"","S1","","html-keyboard-response","64","239186","0.0-1.0-83.0","0","0","87250","","null","","","null","9","","","","","","","","","","","","","","","",""
"","ISI","","html-keyboard-response","65","241193","0.0-1.0-84.0","0","0","87250","","null","","","null","9","NaN","","","","","","","","","","","","","","",""
"","S2","","html-keyboard-response","66","241452","0.0-1.0-85.0","0","0","87250","","null","","","null","9","","NaN","","","","","","","","","","","","","",""
"","response","","html-keyboard-response","67","242136","0.0-1.0-86.0-0.0","0","0","87250","","672","","","75","9","","","1","9","training","adjacent","BA","2","1","R.jpg","N.jpg","0","0","1","",""
"","feedback","","html-keyboard-response","68","243146","0.0-1.0-87.0-0.0","0","0","87250","","null","","","null","9","","","","","","","","","","","","","","","",""
"","ITI","","html-keyboard-response","69","244153","0.0-1.0-90.0","0","0","87250","","null","","","null","9","","","","","","","","","","","","","","","NaN",""
"","S1","","html-keyboard-response","70","244408","0.0-1.0-92.0","0","0","87250","","null","","","null","10","","","","","","","","","","","","","","","",""
"","ISI","","html-keyboard-response","71","246415","0.0-1.0-93.0","0","0","87250","","null","","","null","10","NaN","","","","","","","","","","","","","","",""
"","S2","","html-keyboard-response","72","246678","0.0-1.0-94.0","0","0","87250","","null","","","null","10","","NaN","","","","","","","","","","","","","",""
"","response","","html-keyboard-response","73","247268","0.0-1.0-95.0-0.0","0","0","87250","","579","","","75","10","","","1","10","training","adjacent","BC","2","3","R.jpg","O.jpg","0","1","0","",""
"","feedback","","html-keyboard-response","74","248280","0.0-1.0-96.0-0.0","0","0","87250","","null","","","null","10","","","","","","","","","","","","","","","",""
"","time_out","","html-keyboard-response","75","250292","0.0-1.0-98.0-0.0","0","0","87250","","null","","","null","10","","","","","","","","","","","","","","","",""
"","ITI","","html-keyboard-response","76","251304","0.0-1.0-99.0","0","0","87250","","null","","","null","10","","","","","","","","","","","","","","","NaN",""
"","S1","","html-keyboard-response","77","251566","0.0-1.0-101.0","0","0","87250","","null","","","null","11","","","","","","","","","","","","","","","",""
"","ISI","","html-keyboard-response","78","253576","0.0-1.0-102.0","0","0","87250","","null","","","null","11","NaN","","","","","","","","","","","","","","",""
"","S2","","html-keyboard-response","79","253839","0.0-1.0-103.0","0","0","87250","","null","","","null","11","","NaN","","","","","","","","","","","","","",""
"","response","","html-keyboard-response","80","254390","0.0-1.0-104.0-0.0","0","0","87250","","540","","","68","11","","","1","11","training","adjacent","FE","6","5","L.jpg","P.jpg","1","0","0","",""
"","feedback","","html-keyboard-response","81","255405","0.0-1.0-105.0-0.0","0","0","87250","","null","","","null","11","","","","","","","","","","","","","","","",""
"","time_out","","html-keyboard-response","82","257417","0.0-1.0-107.0-0.0","0","0","87250","","null","","","null","11","","","","","","","","","","","","","","","",""
"","ITI","","html-keyboard-response","83","258427","0.0-1.0-108.0","0","0","87250","","null","","","null","11","","","","","","","","","","","","","","","NaN",""
"","S1","","html-keyboard-response","84","258689","0.0-1.0-110.0","0","0","87250","","null","","","null","12","","","","","","","","","","","","","","","",""
"","ISI","","html-keyboard-response","85","260699","0.0-1.0-111.0","0","0","87250","","null","","","null","12","NaN","","","","","","","","","","","","","","",""
"","S2","","html-keyboard-response","86","260962","0.0-1.0-112.0","0","0","87250","","null","","","null","12","","NaN","","","","","","","","","","","","","",""
"","response","","html-keyboard-response","87","261461","0.0-1.0-113.0-0.0","0","0","87250","","491","","","75","12","","","1","12","training","adjacent","AB","1","2","N.jpg","R.jpg","0","1","0","",""
"","feedback","","html-keyboard-response","88","262472","0.0-1.0-114.0-0.0","0","0","87250","","null","","","null","12","","","","","","","","","","","","","","","",""
"","time_out","","html-keyboard-response","89","264484","0.0-1.0-116.0-0.0","0","0","87250","","null","","","null","12","","","","","","","","","","","","","","","",""
"","ITI","","html-keyboard-response","90","265495","0.0-1.0-117.0","0","0","87250","","null","","","null","12","","","","","","","","","","","","","","","NaN",""
"","S1","","html-keyboard-response","91","265758","0.0-1.0-119.0","0","0","87250","","null","","","null","13","","","","","","","","","","","","","","","",""
"","ISI","","html-keyboard-response","92","267768","0.0-1.0-120.0","0","0","87250","","null","","","null","13","NaN","","","","","","","","","","","","","","",""
"","S2","","html-keyboard-response","93","268032","0.0-1.0-121.0","0","0","87250","","null","","","null","13","","NaN","","","","","","","","","","","","","",""
"","response","","html-keyboard-response","94","268481","0.0-1.0-122.0-0.0","0","0","87250","","437","","","75","13","","","1","13","training","adjacent","CB","3","2","O.jpg","R.jpg","0","0","1","",""
"","feedback","","html-keyboard-response","95","269494","0.0-1.0-123.0-0.0","0","0","87250","","null","","","null","13","","","","","","","","","","","","","","","",""
"","ITI","","html-keyboard-response","96","270514","0.0-1.0-126.0","0","0","87250","","null","","","null","13","","","","","","","","","","","","","","","NaN",""
"","S1","","html-keyboard-response","97","270775","0.0-1.0-128.0","0","0","87250","","null","","","null","14","","","","","","","","","","","","","","","",""
"","ISI","","html-keyboard-response","98","272783","0.0-1.0-129.0","0","0","87250","","null","","","null","14","NaN","","","","","","","","","","","","","","",""
"","S2","","html-keyboard-response","99","273044","0.0-1.0-130.0","0","0","87250","","null","","","null","14","","NaN","","","","","","","","","","","","","",""
"","response","","html-keyboard-response","100","273477","0.0-1.0-131.0-0.0","0","0","87250","","422","","","68","14","","","1","14","training","adjacent","FG","6","7","L.jpg","M.jpg","1","1","1","",""
"","feedback","","html-keyboard-response","101","274489","0.0-1.0-132.0-0.0","0","0","87250","","null","","","null","14","","","","","","","","","","","","","","","",""
"","ITI","","html-keyboard-response","102","275500","0.0-1.0-135.0","0","0","87250","","null","","","null","14","","","","","","","","","","","","","","","NaN",""
"","S1","","html-keyboard-response","103","275762","0.0-1.0-137.0","0","0","87250","","null","","","null","15","","","","","","","","","","","","","","","",""
"","ISI","","html-keyboard-response","104","277771","0.0-1.0-138.0","0","0","87250","","null","","","null","15","NaN","","","","","","","","","","","","","","",""
"","S2","","html-keyboard-response","105","278034","0.0-1.0-139.0","0","0","87250","","null","","","null","15","","NaN","","","","","","","","","","","","","",""
"","response","","html-keyboard-response","106","278755","0.0-1.0-140.0-0.0","0","0","87250","","713","","","68","15","","","1","15","training","adjacent","DC","4","3","Q.jpg","O.jpg","1","0","0","",""
"","feedback","","html-keyboard-response","107","279777","0.0-1.0-141.0-0.0","0","0","87250","","null","","","null","15","","","","","","","","","","","","","","","",""
"","time_out","","html-keyboard-response","108","281789","0.0-1.0-143.0-0.0","0","0","87250","","null","","","null","15","","","","","","","","","","","","","","","",""
"","ITI","","html-keyboard-response","109","282799","0.0-1.0-144.0","0","0","87250","","null","","","null","15","","","","","","","","","","","","","","","NaN",""
"","S1","","html-keyboard-response","110","283061","0.0-1.0-146.0","0","0","87250","","null","","","null","16","","","","","","","","","","","","","","","",""
"","ISI","","html-keyboard-response","111","285071","0.0-1.0-147.0","0","0","87250","","null","","","null","16","NaN","","","","","","","","","","","","","","",""
"","S2","","html-keyboard-response","112","285333","0.0-1.0-148.0","0","0","87250","","null","","","null","16","","NaN","","","","","","","","","","","","","",""
"","response","","html-keyboard-response","113","285988","0.0-1.0-149.0-0.0","0","0","87250","","643","","","75","16","","","1","16","training","adjacent","GF","7","6","M.jpg","L.jpg","0","0","1","",""
"","feedback","","html-keyboard-response","114","287001","0.0-1.0-150.0-0.0","0","0","87250","","null","","","null","16","","","","","","","","","","","","","","","",""
"","ITI","","html-keyboard-response","115","288012","0.0-1.0-153.0","0","0","87250","","null","","","null","16","","","","","","","","","","","","","","","NaN",""
"","S1","","html-keyboard-response","116","288274","0.0-1.0-155.0","0","0","87250","","null","","","null","17","","","","","","","","","","","","","","","",""
"","ISI","","html-keyboard-response","117","290285","0.0-1.0-156.0","0","0","87250","","null","","","null","17","NaN","","","","","","","","","","","","","","",""
"","S2","","html-keyboard-response","118","290547","0.0-1.0-157.0","0","0","87250","","null","","","null","17","","NaN","","","","","","","","","","","","","",""
"","response","","html-keyboard-response","119","291137","0.0-1.0-158.0-0.0","0","0","87250","","579","","","68","17","","","1","17","training","adjacent","BC","2","3","R.jpg","O.jpg","1","1","1","",""
"","feedback","","html-keyboard-response","120","292149","0.0-1.0-159.0-0.0","0","0","87250","","null","","","null","17","","","","","","","","","","","","","","","",""
"","ITI","","html-keyboard-response","121","293161","0.0-1.0-162.0","0","0","87250","","null","","","null","17","","","","","","","","","","","","","","","NaN",""
"","S1","","html-keyboard-response","122","293423","0.0-1.0-164.0","0","0","87250","","null","","","null","18","","","","","","","","","","","","","","","",""
"","ISI","","html-keyboard-response","123","295434","0.0-1.0-165.0","0","0","87250","","null","","","null","18","NaN","","","","","","","","","","","","","","",""
"","S2","","html-keyboard-response","124","295697","0.0-1.0-166.0","0","0","87250","","null","","","null","18","","NaN","","","","","","","","","","","","","",""
"","response","","html-keyboard-response","125","296378","0.0-1.0-167.0-0.0","0","0","87250","","671","","","75","18","","","1","18","training","adjacent","DE","4","5","Q.jpg","P.jpg","0","1","0","",""
"","feedback","","html-keyboard-response","126","297392","0.0-1.0-168.0-0.0","0","0","87250","","null","","","null","18","","","","","","","","","","","","","","","",""
"","time_out","","html-keyboard-response","127","299404","0.0-1.0-170.0-0.0","0","0","87250","","null","","","null","18","","","","","","","","","","","","","","","",""
"","ITI","","html-keyboard-response","128","300414","0.0-1.0-171.0","0","0","87250","","null","","","null","18","","","","","","","","","","","","","","","NaN",""
"","S1","","html-keyboard-response","129","300676","0.0-1.0-173.0","0","0","87250","","null","","","null","19","","","","","","","","","","","","","","","",""
"","ISI","","html-keyboard-response","130","302687","0.0-1.0-174.0","0","0","87250","","null","","","null","19","NaN","","","","","","","","","","","","","","",""
"","S2","","html-keyboard-response","131","302950","0.0-1.0-175.0","0","0","87250","","null","","","null","19","","NaN","","","","","","","","","","","","","",""
"","response","","html-keyboard-response","132","303459","0.0-1.0-176.0-0.0","0","0","87250","","497","","","68","19","","","1","19","training","adjacent","BA","2","1","R.jpg","N.jpg","1","0","0","",""
"","feedback","","html-keyboard-response","133","304472","0.0-1.0-177.0-0.0","0","0","87250","","null","","","null","19","","","","","","","","","","","","","","","",""
"","time_out","","html-keyboard-response","134","306479","0.0-1.0-179.0-0.0","0","0","87250","","null","","","null","19","","","","","","","","","","","","","","","",""
"","ITI","","html-keyboard-response","135","307489","0.0-1.0-180.0","0","0","87250","","null","","","null","19","","","","","","","","","","","","","","","NaN",""
"","S1","","html-keyboard-response","136","307751","0.0-1.0-182.0","0","0","87250","","null","","","null","20","","","","","","","","","","","","","","","",""
"","ISI","","html-keyboard-response","137","309762","0.0-1.0-183.0","0","0","87250","","null","","","null","20","NaN","","","","","","","","","","","","","","",""
"","S2","","html-keyboard-response","138","310025","0.0-1.0-184.0","0","0","87250","","null","","","null","20","","NaN","","","","","","","","","","","","","",""
"","response","","html-keyboard-response","139","310545","0.0-1.0-185.0-0.0","0","0","87250","","509","","","75","20","","","1","20","training","adjacent","ED","5","4","P.jpg","Q.jpg","0","0","1","",""
"","feedback","","html-keyboard-response","140","311557","0.0-1.0-186.0-0.0","0","0","87250","","null","","","null","20","","","","","","","","","","","","","","","",""
"","ITI","","html-keyboard-response","141","312569","0.0-1.0-189.0","0","0","87250","","null","","","null","20","","","","","","","","","","","","","","","NaN",""
"","S1","","html-keyboard-response","142","312832","0.0-1.0-191.0","0","0","87250","","null","","","null","21","","","","","","","","","","","","","","","",""
"","ISI","","html-keyboard-response","143","314839","0.0-1.0-192.0","0","0","87250","","null","","","null","21","NaN","","","","","","","","","","","","","","",""
"","S2","","html-keyboard-response","144","315099","0.0-1.0-193.0","0","0","87250","","null","","","null","21","","NaN","","","","","","","","","","","","","",""
"","response","","html-keyboard-response","145","315658","0.0-1.0-194.0-0.0","0","0","87250","","548","","","68","21","","","1","21","training","adjacent","CD","3","4","O.jpg","Q.jpg","1","1","1","",""
"","feedback","","html-keyboard-response","146","316672","0.0-1.0-195.0-0.0","0","0","87250","","null","","","null","21","","","","","","","","","","","","","","","",""
"","ITI","","html-keyboard-response","147","317684","0.0-1.0-198.0","0","0","87250","","null","","","null","21","","","","","","","","","","","","","","","NaN",""
"","S1","","html-keyboard-response","148","317946","0.0-1.0-200.0","0","0","87250","","null","","","null","22","","","","","","","","","","","","","","","",""
"","ISI","","html-keyboard-response","149","319957","0.0-1.0-201.0","0","0","87250","","null","","","null","22","NaN","","","","","","","","","","","","","","",""
"","S2","","html-keyboard-response","150","320220","0.0-1.0-202.0","0","0","87250","","null","","","null","22","","NaN","","","","","","","","","","","","","",""
"","response","","html-keyboard-response","151","320719","0.0-1.0-203.0-0.0","0","0","87250","","488","","","75","22","","","1","22","training","adjacent","DC","4","3","Q.jpg","O.jpg","0","0","1","",""
"","feedback","","html-keyboard-response","152","321732","0.0-1.0-204.0-0.0","0","0","87250","","null","","","null","22","","","","","","","","","","","","","","","",""
"","ITI","","html-keyboard-response","153","322744","0.0-1.0-207.0","0","0","87250","","null","","","null","22","","","","","","","","","","","","","","","NaN",""
"","S1","","html-keyboard-response","154","323006","0.0-1.0-209.0","0","0","87250","","null","","","null","23","","","","","","","","","","","","","","","",""
"","ISI","","html-keyboard-response","155","325017","0.0-1.0-210.0","0","0","87250","","null","","","null","23","NaN","","","","","","","","","","","","","","",""
"","S2","","html-keyboard-response","156","325279","0.0-1.0-211.0","0","0","87250","","null","","","null","23","","NaN","","","","","","","","","","","","","",""
"","response","","html-keyboard-response","157","325866","0.0-1.0-212.0-0.0","0","0","87250","","575","","","75","23","","","1","23","training","adjacent","DE","4","5","Q.jpg","P.jpg","0","1","0","",""
"","feedback","","html-keyboard-response","158","326879","0.0-1.0-213.0-0.0","0","0","87250","","null","","","null","23","","","","","","","","","","","","","","","",""
"","time_out","","html-keyboard-response","159","328890","0.0-1.0-215.0-0.0","0","0","87250","","null","","","null","23","","","","","","","","","","","","","","","",""
"","ITI","","html-keyboard-response","160","329902","0.0-1.0-216.0","0","0","87250","","null","","","null","23","","","","","","","","","","","","","","","NaN",""
"","S1","","html-keyboard-response","161","330164","0.0-1.0-218.0","0","0","87250","","null","","","null","24","","","","","","","","","","","","","","","",""
"","ISI","","html-keyboard-response","162","332174","0.0-1.0-219.0","0","0","87250","","null","","","null","24","NaN","","","","","","","","","","","","","","",""
"","S2","","html-keyboard-response","163","332437","0.0-1.0-220.0","0","0","87250","","null","","","null","24","","NaN","","","","","","","","","","","","","",""
"","response","","html-keyboard-response","164","332859","0.0-1.0-221.0-0.0","0","0","87250","","414","","","68","24","","","1","24","training","adjacent","FG","6","7","L.jpg","M.jpg","1","1","1","",""
"","feedback","","html-keyboard-response","165","333872","0.0-1.0-222.0-0.0","0","0","87250","","null","","","null","24","","","","","","","","","","","","","","","",""
"","ITI","","html-keyboard-response","166","334885","0.0-1.0-225.0","0","0","87250","","null","","","null","24","","","","","","","","","","","","","","","NaN",""
"","S1","","html-keyboard-response","167","335148","0.0-1.0-227.0","0","0","87250","","null","","","null","25","","","","","","","","","","","","","","","",""
"","ISI","","html-keyboard-response","168","337158","0.0-1.0-228.0","0","0","87250","","null","","","null","25","NaN","","","","","","","","","","","","","","",""
"","S2","","html-keyboard-response","169","337421","0.0-1.0-229.0","0","0","87250","","null","","","null","25","","NaN","","","","","","","","","","","","","",""
"","response","","html-keyboard-response","170","339139","0.0-1.0-230.0-0.0","0","0","87250","","1707","","","75","25","","","1","25","training","adjacent","FE","6","5","L.jpg","P.jpg","0","0","1","",""
"","feedback","","html-keyboard-response","171","340152","0.0-1.0-231.0-0.0","0","0","87250","","null","","","null","25","","","","","","","","","","","","","","","",""
"","ITI","","html-keyboard-response","172","341164","0.0-1.0-234.0","0","0","87250","","null","","","null","25","","","","","","","","","","","","","","","NaN",""
"","S1","","html-keyboard-response","173","341427","0.0-1.0-236.0","0","0","87250","","null","","","null","26","","","","","","","","","","","","","","","",""
"","ISI","","html-keyboard-response","174","343433","0.0-1.0-237.0","0","0","87250","","null","","","null","26","NaN","","","","","","","","","","","","","","",""
"","S2","","html-keyboard-response","175","343693","0.0-1.0-238.0","0","0","87250","","null","","","null","26","","NaN","","","","","","","","","","","","","",""
"","response","","html-keyboard-response","176","344870","0.0-1.0-239.0-0.0","0","0","87250","","1166","","","68","26","","","1","26","training","adjacent","EF","5","6","P.jpg","L.jpg","1","1","1","",""
"","feedback","","html-keyboard-response","177","345884","0.0-1.0-240.0-0.0","0","0","87250","","null","","","null","26","","","","","","","","","","","","","","","",""
"","ITI","","html-keyboard-response","178","346896","0.0-1.0-243.0","0","0","87250","","null","","","null","26","","","","","","","","","","","","","","","NaN",""
"","S1","","html-keyboard-response","179","347158","0.0-1.0-245.0","0","0","87250","","null","","","null","27","","","","","","","","","","","","","","","",""
"","ISI","","html-keyboard-response","180","349170","0.0-1.0-246.0","0","0","87250","","null","","","null","27","NaN","","","","","","","","","","","","","","",""
"","S2","","html-keyboard-response","181","349433","0.0-1.0-247.0","0","0","87250","","null","","","null","27","","NaN","","","","","","","","","","","","","",""
"","response","","html-keyboard-response","182","350028","0.0-1.0-248.0-0.0","0","0","87250","","584","","","75","27","","","1","27","training","adjacent","ED","5","4","P.jpg","Q.jpg","0","0","1","",""
"","feedback","","html-keyboard-response","183","351041","0.0-1.0-249.0-0.0","0","0","87250","","null","","","null","27","","","","","","","","","","","","","","","",""
"","ITI","","html-keyboard-response","184","352054","0.0-1.0-252.0","0","0","87250","","null","","","null","27","","","","","","","","","","","","","","","NaN",""
"","S1","","html-keyboard-response","185","352316","0.0-1.0-254.0","0","0","87250","","null","","","null","28","","","","","","","","","","","","","","","",""
"","ISI","","html-keyboard-response","186","354326","0.0-1.0-255.0","0","0","87250","","null","","","null","28","NaN","","","","","","","","","","","","","","",""
"","S2","","html-keyboard-response","187","354585","0.0-1.0-256.0","0","0","87250","","null","","","null","28","","NaN","","","","","","","","","","","","","",""
"","response","","html-keyboard-response","188","355129","0.0-1.0-257.0-0.0","0","0","87250","","535","","","68","28","","","1","28","training","adjacent","BA","2","1","R.jpg","N.jpg","1","0","0","",""
"","feedback","","html-keyboard-response","189","356143","0.0-1.0-258.0-0.0","0","0","87250","","null","","","null","28","","","","","","","","","","","","","","","",""
"","time_out","","html-keyboard-response","190","358156","0.0-1.0-260.0-0.0","0","0","87250","","null","","","null","28","","","","","","","","","","","","","","","",""
"","ITI","","html-keyboard-response","191","359164","0.0-1.0-261.0","0","0","87250","","null","","","null","28","","","","","","","","","","","","","","","NaN",""
"","S1","","html-keyboard-response","192","359426","0.0-1.0-263.0","0","0","87250","","null","","","null","29","","","","","","","","","","","","","","","",""
"","ISI","","html-keyboard-response","193","361437","0.0-1.0-264.0","0","0","87250","","null","","","null","29","NaN","","","","","","","","","","","","","","",""
"","S2","","html-keyboard-response","194","361700","0.0-1.0-265.0","0","0","87250","","null","","","null","29","","NaN","","","","","","","","","","","","","",""
"","response","","html-keyboard-response","195","362176","0.0-1.0-266.0-0.0","0","0","87250","","465","","","75","29","","","1","29","training","adjacent","ED","5","4","P.jpg","Q.jpg","0","0","1","",""
"","feedback","","html-keyboard-response","196","363189","0.0-1.0-267.0-0.0","0","0","87250","","null","","","null","29","","","","","","","","","","","","","","","",""
"","ITI","","html-keyboard-response","197","364201","0.0-1.0-270.0","0","0","87250","","null","","","null","29","","","","","","","","","","","","","","","NaN",""
"","S1","","html-keyboard-response","198","364460","0.0-1.0-272.0","0","0","87250","","null","","","null","30","","","","","","","","","","","","","","","",""
"","ISI","","html-keyboard-response","199","366469","0.0-1.0-273.0","0","0","87250","","null","","","null","30","NaN","","","","","","","","","","","","","","",""
"","S2","","html-keyboard-response","200","366728","0.0-1.0-274.0","0","0","87250","","null","","","null","30","","NaN","","","","","","","","","","","","","",""
"","response","","html-keyboard-response","201","367147","0.0-1.0-275.0-0.0","0","0","87250","","409","","","75","30","","","1","30","training","adjacent","GF","7","6","M.jpg","L.jpg","0","0","1","",""
"","feedback","","html-keyboard-response","202","368171","0.0-1.0-276.0-0.0","0","0","87250","","null","","","null","30","","","","","","","","","","","","","","","",""
"","ITI","","html-keyboard-response","203","369183","0.0-1.0-279.0","0","0","87250","","null","","","null","30","","","","","","","","","","","","","","","NaN",""
"","S1","","html-keyboard-response","204","369454","0.0-1.0-281.0","0","0","87250","","null","","","null","31","","","","","","","","","","","","","","","",""
"","ISI","","html-keyboard-response","205","371464","0.0-1.0-282.0","0","0","87250","","null","","","null","31","NaN","","","","","","","","","","","","","","",""
"","S2","","html-keyboard-response","206","371728","0.0-1.0-283.0","0","0","87250","","null","","","null","31","","NaN","","","","","","","","","","","","","",""
"","response","","html-keyboard-response","207","372126","0.0-1.0-284.0-0.0","0","0","87250","","387","","","68","31","","","1","31","training","adjacent","FE","6","5","L.jpg","P.jpg","1","0","0","",""
"","feedback","","html-keyboard-response","208","373139","0.0-1.0-285.0-0.0","0","0","87250","","null","","","null","31","","","","","","","","","","","","","","","",""
"","time_out","","html-keyboard-response","209","375152","0.0-1.0-287.0-0.0","0","0","87250","","null","","","null","31","","","","","","","","","","","","","","","",""
"","ITI","","html-keyboard-response","210","376163","0.0-1.0-288.0","0","0","87250","","null","","","null","31","","","","","","","","","","","","","","","NaN",""
"","S1","","html-keyboard-response","211","376425","0.0-1.0-290.0","0","0","87250","","null","","","null","32","","","","","","","","","","","","","","","",""
"","ISI","","html-keyboard-response","212","378435","0.0-1.0-291.0","0","0","87250","","null","","","null","32","NaN","","","","","","","","","","","","","","",""
"","S2","","html-keyboard-response","213","378698","0.0-1.0-292.0","0","0","87250","","null","","","null","32","","NaN","","","","","","","","","","","","","",""
"","response","","html-keyboard-response","214","379264","0.0-1.0-293.0-0.0","0","0","87250","","554","","","68","32","","","1","32","training","adjacent","CD","3","4","O.jpg","Q.jpg","1","1","1","",""
"","feedback","","html-keyboard-response","215","380275","0.0-1.0-294.0-0.0","0","0","87250","","null","","","null","32","","","","","","","","","","","","","","","",""
"","ITI","","html-keyboard-response","216","381287","0.0-1.0-297.0","0","0","87250","","null","","","null","32","","","","","","","","","","","","","","","NaN",""
"","S1","","html-keyboard-response","217","381549","0.0-1.0-299.0","0","0","87250","","null","","","null","33","","","","","","","","","","","","","","","",""
"","ISI","","html-keyboard-response","218","383560","0.0-1.0-300.0","0","0","87250","","null","","","null","33","NaN","","","","","","","","","","","","","","",""
"","S2","","html-keyboard-response","219","383823","0.0-1.0-301.0","0","0","87250","","null","","","null","33","","NaN","","","","","","","","","","","","","",""
"","response","","html-keyboard-response","220","384224","0.0-1.0-302.0-0.0","0","0","87250","","389","","","75","33","","","1","33","training","adjacent","CB","3","2","O.jpg","R.jpg","0","0","1","",""
"","feedback","","html-keyboard-response","221","385237","0.0-1.0-303.0-0.0","0","0","87250","","null","","","null","33","","","","","","","","","","","","","","","",""
"","ITI","","html-keyboard-response","222","386250","0.0-1.0-306.0","0","0","87250","","null","","","null","33","","","","","","","","","","","","","","","NaN",""
"","S1","","html-keyboard-response","223","386512","0.0-1.0-308.0","0","0","87250","","null","","","null","34","","","","","","","","","","","","","","","",""
"","ISI","","html-keyboard-response","224","388522","0.0-1.0-309.0","0","0","87250","","null","","","null","34","NaN","","","","","","","","","","","","","","",""
"","S2","","html-keyboard-response","225","388786","0.0-1.0-310.0","0","0","87250","","null","","","null","34","","NaN","","","","","","","","","","","","","",""
"","response","","html-keyboard-response","226","389227","0.0-1.0-311.0-0.0","0","0","87250","","430","","","68","34","","","1","34","training","adjacent","DC","4","3","Q.jpg","O.jpg","1","0","0","",""
"","feedback","","html-keyboard-response","227","390241","0.0-1.0-312.0-0.0","0","0","87250","","null","","","null","34","","","","","","","","","","","","","","","",""
"","time_out","","html-keyboard-response","228","392253","0.0-1.0-314.0-0.0","0","0","87250","","null","","","null","34","","","","","","","","","","","","","","","",""
"","ITI","","html-keyboard-response","229","393263","0.0-1.0-315.0","0","0","87250","","null","","","null","34","","","","","","","","","","","","","","","NaN",""
"","S1","","html-keyboard-response","230","393525","0.0-1.0-317.0","0","0","87250","","null","","","null","35","","","","","","","","","","","","","","","",""
"","ISI","","html-keyboard-response","231","395536","0.0-1.0-318.0","0","0","87250","","null","","","null","35","NaN","","","","","","","","","","","","","","",""
"","S2","","html-keyboard-response","232","395798","0.0-1.0-319.0","0","0","87250","","null","","","null","35","","NaN","","","","","","","","","","","","","",""
"","response","","html-keyboard-response","233","396227","0.0-1.0-320.0-0.0","0","0","87250","","419","","","75","35","","","1","35","training","adjacent","FG","6","7","L.jpg","M.jpg","0","1","0","",""
"","feedback","","html-keyboard-response","234","397239","0.0-1.0-321.0-0.0","0","0","87250","","null","","","null","35","","","","","","","","","","","","","","","",""
"","time_out","","html-keyboard-response","235","399246","0.0-1.0-323.0-0.0","0","0","87250","","null","","","null","35","","","","","","","","","","","","","","","",""
"","ITI","","html-keyboard-response","236","400251","0.0-1.0-324.0","0","0","87250","","null","","","null","35","","","","","","","","","","","","","","","NaN",""
"","S1","","html-keyboard-response","237","400511","0.0-1.0-326.0","0","0","87250","","null","","","null","36","","","","","","","","","","","","","","","",""
"","ISI","","html-keyboard-response","238","402522","0.0-1.0-327.0","0","0","87250","","null","","","null","36","NaN","","","","","","","","","","","","","","",""
"","S2","","html-keyboard-response","239","402784","0.0-1.0-328.0","0","0","87250","","null","","","null","36","","NaN","","","","","","","","","","","","","",""
"","response","","html-keyboard-response","240","403639","0.0-1.0-329.0-0.0","0","0","87250","","845","","","68","36","","","1","36","training","adjacent","DC","4","3","Q.jpg","O.jpg","1","0","0","",""
"","feedback","","html-keyboard-response","241","404653","0.0-1.0-330.0-0.0","0","0","87250","","null","","","null","36","","","","","","","","","","","","","","","",""
"","time_out","","html-keyboard-response","242","406666","0.0-1.0-332.0-0.0","0","0","87250","","null","","","null","36","","","","","","","","","","","","","","","",""
"","ITI","","html-keyboard-response","243","407674","0.0-1.0-333.0","0","0","87250","","null","","","null","36","","","","","","","","","","","","","","","NaN",""
"","S1","","html-keyboard-response","244","407935","0.0-1.0-335.0","0","0","87250","","null","","","null","37","","","","","","","","","","","","","","","",""
"","ISI","","html-keyboard-response","245","409945","0.0-1.0-336.0","0","0","87250","","null","","","null","37","NaN","","","","","","","","","","","","","","",""
"","S2","","html-keyboard-response","246","410208","0.0-1.0-337.0","0","0","87250","","null","","","null","37","","NaN","","","","","","","","","","","","","",""
"","response","","html-keyboard-response","247","410735","0.0-1.0-338.0-0.0","0","0","87250","","516","","","75","37","","","1","37","training","adjacent","EF","5","6","P.jpg","L.jpg","0","1","0","",""
"","feedback","","html-keyboard-response","248","411761","0.0-1.0-339.0-0.0","0","0","87250","","null","","","null","37","","","","","","","","","","","","","","","",""
"","time_out","","html-keyboard-response","249","413773","0.0-1.0-341.0-0.0","0","0","87250","","null","","","null","37","","","","","","","","","","","","","","","",""
"","ITI","","html-keyboard-response","250","414784","0.0-1.0-342.0","0","0","87250","","null","","","null","37","","","","","","","","","","","","","","","NaN",""
"","S1","","html-keyboard-response","251","415041","0.0-1.0-344.0","0","0","87250","","null","","","null","38","","","","","","","","","","","","","","","",""
"","ISI","","html-keyboard-response","252","417051","0.0-1.0-345.0","0","0","87250","","null","","","null","38","NaN","","","","","","","","","","","","","","",""
"","S2","","html-keyboard-response","253","417313","0.0-1.0-346.0","0","0","87250","","null","","","null","38","","NaN","","","","","","","","","","","","","",""
"","response","","html-keyboard-response","254","418011","0.0-1.0-347.0-0.0","0","0","87250","","686","","","75","38","","","1","38","training","adjacent","BC","2","3","R.jpg","O.jpg","0","1","0","",""
"","feedback","","html-keyboard-response","255","419025","0.0-1.0-348.0-0.0","0","0","87250","","null","","","null","38","","","","","","","","","","","","","","","",""
"","time_out","","html-keyboard-response","256","421033","0.0-1.0-350.0-0.0","0","0","87250","","null","","","null","38","","","","","","","","","","","","","","","",""
"","ITI","","html-keyboard-response","257","422042","0.0-1.0-351.0","0","0","87250","","null","","","null","38","","","","","","","","","","","","","","","NaN",""
"","S1","","html-keyboard-response","258","422304","0.0-1.0-353.0","0","0","87250","","null","","","null","39","","","","","","","","","","","","","","","",""
"","ISI","","html-keyboard-response","259","424315","0.0-1.0-354.0","0","0","87250","","null","","","null","39","NaN","","","","","","","","","","","","","","",""
"","S2","","html-keyboard-response","260","424577","0.0-1.0-355.0","0","0","87250","","null","","","null","39","","NaN","","","","","","","","","","","","","",""
"","response","","html-keyboard-response","261","425108","0.0-1.0-356.0-0.0","0","0","87250","","519","","","75","39","","","1","39","training","adjacent","FE","6","5","L.jpg","P.jpg","0","0","1","",""
"","feedback","","html-keyboard-response","262","426121","0.0-1.0-357.0-0.0","0","0","87250","","null","","","null","39","","","","","","","","","","","","","","","",""
"","ITI","","html-keyboard-response","263","427134","0.0-1.0-360.0","0","0","87250","","null","","","null","39","","","","","","","","","","","","","","","NaN",""
"","S1","","html-keyboard-response","264","427396","0.0-1.0-362.0","0","0","87250","","null","","","null","40","","","","","","","","","","","","","","","",""
"","ISI","","html-keyboard-response","265","429406","0.0-1.0-363.0","0","0","87250","","null","","","null","40","NaN","","","","","","","","","","","","","","",""
"","S2","","html-keyboard-response","266","429669","0.0-1.0-364.0","0","0","87250","","null","","","null","40","","NaN","","","","","","","","","","","","","",""
"","response","","html-keyboard-response","267","430162","0.0-1.0-365.0-0.0","0","0","87250","","481","","","75","40","","","1","40","training","adjacent","AB","1","2","N.jpg","R.jpg","0","1","0","",""
"","feedback","","html-keyboard-response","268","431176","0.0-1.0-366.0-0.0","0","0","87250","","null","","","null","40","","","","","","","","","","","","","","","",""
"","time_out","","html-keyboard-response","269","433188","0.0-1.0-368.0-0.0","0","0","87250","","null","","","null","40","","","","","","","","","","","","","","","",""
"","ITI","","html-keyboard-response","270","434199","0.0-1.0-369.0","0","0","87250","","null","","","null","40","","","","","","","","","","","","","","","NaN",""
"","S1","","html-keyboard-response","271","434462","0.0-1.0-371.0","0","0","87250","","null","","","null","41","","","","","","","","","","","","","","","",""
"","ISI","","html-keyboard-response","272","436472","0.0-1.0-372.0","0","0","87250","","null","","","null","41","NaN","","","","","","","","","","","","","","",""
"","S2","","html-keyboard-response","273","436735","0.0-1.0-373.0","0","0","87250","","null","","","null","41","","NaN","","","","","","","","","","","","","",""
"","response","","html-keyboard-response","274","437213","0.0-1.0-374.0-0.0","0","0","87250","","471","","","75","41","","","1","41","training","adjacent","GF","7","6","M.jpg","L.jpg","0","0","1","",""
"","feedback","","html-keyboard-response","275","438219","0.0-1.0-375.0-0.0","0","0","87250","","null","","","null","41","","","","","","","","","","","","","","","",""
"","ITI","","html-keyboard-response","276","439229","0.0-1.0-378.0","0","0","87250","","null","","","null","41","","","","","","","","","","","","","","","NaN",""
"","S1","","html-keyboard-response","277","439493","0.0-1.0-380.0","0","0","87250","","null","","","null","42","","","","","","","","","","","","","","","",""
"","ISI","","html-keyboard-response","278","441505","0.0-1.0-381.0","0","0","87250","","null","","","null","42","NaN","","","","","","","","","","","","","","",""
"","S2","","html-keyboard-response","279","441767","0.0-1.0-382.0","0","0","87250","","null","","","null","42","","NaN","","","","","","","","","","","","","",""
"","response","","html-keyboard-response","280","442594","0.0-1.0-383.0-0.0","0","0","87250","","815","","","75","42","","","1","42","training","adjacent","AB","1","2","N.jpg","R.jpg","0","1","0","",""
"","feedback","","html-keyboard-response","281","443608","0.0-1.0-384.0-0.0","0","0","87250","","null","","","null","42","","","","","","","","","","","","","","","",""
"","time_out","","html-keyboard-response","282","445618","0.0-1.0-386.0-0.0","0","0","87250","","null","","","null","42","","","","","","","","","","","","","","","",""
"","ITI","","html-keyboard-response","283","446628","0.0-1.0-387.0","0","0","87250","","null","","","null","42","","","","","","","","","","","","","","","NaN",""
"","S1","","html-keyboard-response","284","446891","0.0-1.0-389.0","0","0","87250","","null","","","null","43","","","","","","","","","","","","","","","",""
"","ISI","","html-keyboard-response","285","448902","0.0-1.0-390.0","0","0","87250","","null","","","null","43","NaN","","","","","","","","","","","","","","",""
"","S2","","html-keyboard-response","286","449165","0.0-1.0-391.0","0","0","87250","","null","","","null","43","","NaN","","","","","","","","","","","","","",""
"","response","","html-keyboard-response","287","449642","0.0-1.0-392.0-0.0","0","0","87250","","465","","","68","43","","","1","43","training","adjacent","DE","4","5","Q.jpg","P.jpg","1","1","1","",""
"","feedback","","html-keyboard-response","288","450656","0.0-1.0-393.0-0.0","0","0","87250","","null","","","null","43","","","","","","","","","","","","","","","",""
"","ITI","","html-keyboard-response","289","451680","0.0-1.0-396.0","0","0","87250","","null","","","null","43","","","","","","","","","","","","","","","NaN",""
"","S1","","html-keyboard-response","290","451941","0.0-1.0-398.0","0","0","87250","","null","","","null","44","","","","","","","","","","","","","","","",""
"","ISI","","html-keyboard-response","291","453950","0.0-1.0-399.0","0","0","87250","","null","","","null","44","NaN","","","","","","","","","","","","","","",""
"","S2","","html-keyboard-response","292","454223","0.0-1.0-400.0","0","0","87250","","null","","","null","44","","NaN","","","","","","","","","","","","","",""
"","response","","html-keyboard-response","293","454898","0.0-1.0-401.0-0.0","0","0","87250","","663","","","68","44","","","1","44","training","adjacent","DE","4","5","Q.jpg","P.jpg","1","1","1","",""
"","feedback","","html-keyboard-response","294","455912","0.0-1.0-402.0-0.0","0","0","87250","","null","","","null","44","","","","","","","","","","","","","","","",""
"","ITI","","html-keyboard-response","295","456925","0.0-1.0-405.0","0","0","87250","","null","","","null","44","","","","","","","","","","","","","","","NaN",""
"","S1","","html-keyboard-response","296","457187","0.0-1.0-407.0","0","0","87250","","null","","","null","45","","","","","","","","","","","","","","","",""
"","ISI","","html-keyboard-response","297","459197","0.0-1.0-408.0","0","0","87250","","null","","","null","45","NaN","","","","","","","","","","","","","","",""
"","S2","","html-keyboard-response","298","459460","0.0-1.0-409.0","0","0","87250","","null","","","null","45","","NaN","","","","","","","","","","","","","",""
"","response","","html-keyboard-response","299","459912","0.0-1.0-410.0-0.0","0","0","87250","","441","","","75","45","","","1","45","training","adjacent","EF","5","6","P.jpg","L.jpg","0","1","0","",""
"","feedback","","html-keyboard-response","300","460926","0.0-1.0-411.0-0.0","0","0","87250","","null","","","null","45","","","","","","","","","","","","","","","",""
"","time_out","","html-keyboard-response","301","462939","0.0-1.0-413.0-0.0","0","0","87250","","null","","","null","45","","","","","","","","","","","","","","","",""
"","ITI","","html-keyboard-response","302","463951","0.0-1.0-414.0","0","0","87250","","null","","","null","45","","","","","","","","","","","","","","","NaN",""
"","S1","","html-keyboard-response","303","464209","0.0-1.0-416.0","0","0","87250","","null","","","null","46","","","","","","","","","","","","","","","",""
"","ISI","","html-keyboard-response","304","466218","0.0-1.0-417.0","0","0","87250","","null","","","null","46","NaN","","","","","","","","","","","","","","",""
"","S2","","html-keyboard-response","305","466480","0.0-1.0-418.0","0","0","87250","","null","","","null","46","","NaN","","","","","","","","","","","","","",""
"","response","","html-keyboard-response","306","466983","0.0-1.0-419.0-0.0","0","0","87250","","493","","","68","46","","","1","46","training","adjacent","AB","1","2","N.jpg","R.jpg","1","1","1","",""
"","feedback","","html-keyboard-response","307","467997","0.0-1.0-420.0-0.0","0","0","87250","","null","","","null","46","","","","","","","","","","","","","","","",""
"","ITI","","html-keyboard-response","308","469009","0.0-1.0-423.0","0","0","87250","","null","","","null","46","","","","","","","","","","","","","","","NaN",""
"","S1","","html-keyboard-response","309","469271","0.0-1.0-425.0","0","0","87250","","null","","","null","47","","","","","","","","","","","","","","","",""
"","ISI","","html-keyboard-response","310","471282","0.0-1.0-426.0","0","0","87250","","null","","","null","47","NaN","","","","","","","","","","","","","","",""
"","S2","","html-keyboard-response","311","471544","0.0-1.0-427.0","0","0","87250","","null","","","null","47","","NaN","","","","","","","","","","","","","",""
"","response","","html-keyboard-response","312","471978","0.0-1.0-428.0-0.0","0","0","87250","","423","","","75","47","","","1","47","training","adjacent","CB","3","2","O.jpg","R.jpg","0","0","1","",""
"","feedback","","html-keyboard-response","313","472992","0.0-1.0-429.0-0.0","0","0","87250","","null","","","null","47","","","","","","","","","","","","","","","",""
"","ITI","","html-keyboard-response","314","474005","0.0-1.0-432.0","0","0","87250","","null","","","null","47","","","","","","","","","","","","","","","NaN",""
"","block_over","","html-keyboard-response","315","511927","0.0-1.0-433.0-0.0","0","0","87250","","37906","","","32","47","","","","","","","","","","","","","","","",""
"","S1","","html-keyboard-response","316","512189","0.0-1.0-434.0","0","0","87250","","null","","","null","48","","","","","","","","","","","","","","","",""
"","ISI","","html-keyboard-response","317","514199","0.0-1.0-435.0","0","0","87250","","null","","","null","48","NaN","","","","","","","","","","","","","","",""
"","S2","","html-keyboard-response","318","514457","0.0-1.0-436.0","0","0","87250","","null","","","null","48","","NaN","","","","","","","","","","","","","",""
"","response","","html-keyboard-response","319","514888","0.0-1.0-437.0-0.0","0","0","87250","","421","","","68","48","","","2","48","training","adjacent","CB","3","2","O.jpg","R.jpg","1","0","0","",""
"","feedback","","html-keyboard-response","320","515899","0.0-1.0-438.0-0.0","0","0","87250","","null","","","null","48","","","","","","","","","","","","","","","",""
"","time_out","","html-keyboard-response","321","517909","0.0-1.0-440.0-0.0","0","0","87250","","null","","","null","48","","","","","","","","","","","","","","","",""
"","ITI","","html-keyboard-response","322","518919","0.0-1.0-441.0","0","0","87250","","null","","","null","48","","","","","","","","","","","","","","","NaN",""
"","S1","","html-keyboard-response","323","519181","0.0-1.0-443.0","0","0","87250","","null","","","null","49","","","","","","","","","","","","","","","",""
"","ISI","","html-keyboard-response","324","521191","0.0-1.0-444.0","0","0","87250","","null","","","null","49","NaN","","","","","","","","","","","","","","",""
"","S2","","html-keyboard-response","325","521466","0.0-1.0-445.0","0","0","87250","","null","","","null","49","","NaN","","","","","","","","","","","","","",""
"","response","","html-keyboard-response","326","521891","0.0-1.0-446.0-0.0","0","0","87250","","415","","","75","49","","","2","49","training","adjacent","FE","6","5","L.jpg","P.jpg","0","0","1","",""
"","feedback","","html-keyboard-response","327","522906","0.0-1.0-447.0-0.0","0","0","87250","","null","","","null","49","","","","","","","","","","","","","","","",""
"","ITI","","html-keyboard-response","328","523920","0.0-1.0-450.0","0","0","87250","","null","","","null","49","","","","","","","","","","","","","","","NaN",""
"","S1","","html-keyboard-response","329","524180","0.0-1.0-452.0","0","0","87250","","null","","","null","50","","","","","","","","","","","","","","","",""
"","ISI","","html-keyboard-response","330","526186","0.0-1.0-453.0","0","0","87250","","null","","","null","50","NaN","","","","","","","","","","","","","","",""
"","S2","","html-keyboard-response","331","526442","0.0-1.0-454.0","0","0","87250","","null","","","null","50","","NaN","","","","","","","","","","","","","",""
"","response","","html-keyboard-response","332","526844","0.0-1.0-455.0-0.0","0","0","87250","","397","","","75","50","","","2","50","training","adjacent","BA","2","1","R.jpg","N.jpg","0","0","1","",""
"","feedback","","html-keyboard-response","333","527850","0.0-1.0-456.0-0.0","0","0","87250","","null","","","null","50","","","","","","","","","","","","","","","",""
"","ITI","","html-keyboard-response","334","528861","0.0-1.0-459.0","0","0","87250","","null","","","null","50","","","","","","","","","","","","","","","NaN",""
"","S1","","html-keyboard-response","335","529124","0.0-1.0-461.0","0","0","87250","","null","","","null","51","","","","","","","","","","","","","","","",""
"","ISI","","html-keyboard-response","336","531131","0.0-1.0-462.0","0","0","87250","","null","","","null","51","NaN","","","","","","","","","","","","","","",""
"","S2","","html-keyboard-response","337","531388","0.0-1.0-463.0","0","0","87250","","null","","","null","51","","NaN","","","","","","","","","","","","","",""
"","response","","html-keyboard-response","338","531876","0.0-1.0-464.0-0.0","0","0","87250","","482","","","75","51","","","2","51","training","adjacent","BA","2","1","R.jpg","N.jpg","0","0","1","",""
"","feedback","","html-keyboard-response","339","532887","0.0-1.0-465.0-0.0","0","0","87250","","null","","","null","51","","","","","","","","","","","","","","","",""
"","ITI","","html-keyboard-response","340","533900","0.0-1.0-468.0","0","0","87250","","null","","","null","51","","","","","","","","","","","","","","","NaN",""
"","S1","","html-keyboard-response","341","534158","0.0-1.0-470.0","0","0","87250","","null","","","null","52","","","","","","","","","","","","","","","",""
"","ISI","","html-keyboard-response","342","536167","0.0-1.0-471.0","0","0","87250","","null","","","null","52","NaN","","","","","","","","","","","","","","",""
"","S2","","html-keyboard-response","343","536430","0.0-1.0-472.0","0","0","87250","","null","","","null","52","","NaN","","","","","","","","","","","","","",""
"","response","","html-keyboard-response","344","536574","0.0-1.0-473.0-0.0","0","0","87250","","132","","","75","52","","","2","52","training","adjacent","GF","7","6","M.jpg","L.jpg","0","0","1","",""
"","feedback","","html-keyboard-response","345","537588","0.0-1.0-474.0-0.0","0","0","87250","","null","","","null","52","","","","","","","","","","","","","","","",""
"","ITI","","html-keyboard-response","346","538605","0.0-1.0-477.0","0","0","87250","","null","","","null","52","","","","","","","","","","","","","","","NaN",""
"","S1","","html-keyboard-response","347","538868","0.0-1.0-479.0","0","0","87250","","null","","","null","53","","","","","","","","","","","","","","","",""
"","ISI","","html-keyboard-response","348","540879","0.0-1.0-480.0","0","0","87250","","null","","","null","53","NaN","","","","","","","","","","","","","","",""
"","S2","","html-keyboard-response","349","541142","0.0-1.0-481.0","0","0","87250","","null","","","null","53","","NaN","","","","","","","","","","","","","",""
"","response","","html-keyboard-response","350","541561","0.0-1.0-482.0-0.0","0","0","87250","","407","","","68","53","","","2","53","training","adjacent","ED","5","4","P.jpg","Q.jpg","1","0","0","",""
"","feedback","","html-keyboard-response","351","542575","0.0-1.0-483.0-0.0","0","0","87250","","null","","","null","53","","","","","","","","","","","","","","","",""
"","time_out","","html-keyboard-response","352","544588","0.0-1.0-485.0-0.0","0","0","87250","","null","","","null","53","","","","","","","","","","","","","","","",""
"","ITI","","html-keyboard-response","353","545605","0.0-1.0-486.0","0","0","87250","","null","","","null","53","","","","","","","","","","","","","","","NaN",""
"","S1","","html-keyboard-response","354","545865","0.0-1.0-488.0","0","0","87250","","null","","","null","54","","","","","","","","","","","","","","","",""
"","ISI","","html-keyboard-response","355","547876","0.0-1.0-489.0","0","0","87250","","null","","","null","54","NaN","","","","","","","","","","","","","","",""
"","S2","","html-keyboard-response","356","548139","0.0-1.0-490.0","0","0","87250","","null","","","null","54","","NaN","","","","","","","","","","","","","",""
"","response","","html-keyboard-response","357","548514","0.0-1.0-491.0-0.0","0","0","87250","","364","","","75","54","","","2","54","training","adjacent","EF","5","6","P.jpg","L.jpg","0","1","0","",""
"","feedback","","html-keyboard-response","358","549529","0.0-1.0-492.0-0.0","0","0","87250","","null","","","null","54","","","","","","","","","","","","","","","",""
"","time_out","","html-keyboard-response","359","551541","0.0-1.0-494.0-0.0","0","0","87250","","null","","","null","54","","","","","","","","","","","","","","","",""
"","ITI","","html-keyboard-response","360","552552","0.0-1.0-495.0","0","0","87250","","null","","","null","54","","","","","","","","","","","","","","","NaN",""
"","S1","","html-keyboard-response","361","552814","0.0-1.0-497.0","0","0","87250","","null","","","null","55","","","","","","","","","","","","","","","",""
"","ISI","","html-keyboard-response","362","554824","0.0-1.0-498.0","0","0","87250","","null","","","null","55","NaN","","","","","","","","","","","","","","",""
"","S2","","html-keyboard-response","363","555083","0.0-1.0-499.0","0","0","87250","","null","","","null","55","","NaN","","","","","","","","","","","","","",""
"","response","","html-keyboard-response","364","555397","0.0-1.0-500.0-0.0","0","0","87250","","304","","","68","55","","","2","55","training","adjacent","CD","3","4","O.jpg","Q.jpg","1","1","1","",""
"","feedback","","html-keyboard-response","365","556412","0.0-1.0-501.0-0.0","0","0","87250","","null","","","null","55","","","","","","","","","","","","","","","",""
"","ITI","","html-keyboard-response","366","557425","0.0-1.0-504.0","0","0","87250","","null","","","null","55","","","","","","","","","","","","","","","NaN",""
"","S1","","html-keyboard-response","367","557688","0.0-1.0-506.0","0","0","87250","","null","","","null","56","","","","","","","","","","","","","","","",""
"","ISI","","html-keyboard-response","368","559699","0.0-1.0-507.0","0","0","87250","","null","","","null","56","NaN","","","","","","","","","","","","","","",""
"","S2","","html-keyboard-response","369","559962","0.0-1.0-508.0","0","0","87250","","null","","","null","56","","NaN","","","","","","","","","","","","","",""
"","response","","html-keyboard-response","370","560561","0.0-1.0-509.0-0.0","0","0","87250","","588","","","75","56","","","2","56","training","adjacent","DC","4","3","Q.jpg","O.jpg","0","0","1","",""
"","feedback","","html-keyboard-response","371","561572","0.0-1.0-510.0-0.0","0","0","87250","","null","","","null","56","","","","","","","","","","","","","","","",""
"","ITI","","html-keyboard-response","372","562582","0.0-1.0-513.0","0","0","87250","","null","","","null","56","","","","","","","","","","","","","","","NaN",""
"","S1","","html-keyboard-response","373","562853","0.0-1.0-515.0","0","0","87250","","null","","","null","57","","","","","","","","","","","","","","","",""
"","ISI","","html-keyboard-response","374","564864","0.0-1.0-516.0","0","0","87250","","null","","","null","57","NaN","","","","","","","","","","","","","","",""
"","S2","","html-keyboard-response","375","565126","0.0-1.0-517.0","0","0","87250","","null","","","null","57","","NaN","","","","","","","","","","","","","",""
"","response","","html-keyboard-response","376","565652","0.0-1.0-518.0-0.0","0","0","87250","","518","","","75","57","","","2","57","training","adjacent","FG","6","7","L.jpg","M.jpg","0","1","0","",""
"","feedback","","html-keyboard-response","377","566668","0.0-1.0-519.0-0.0","0","0","87250","","null","","","null","57","","","","","","","","","","","","","","","",""
"","time_out","","html-keyboard-response","378","568678","0.0-1.0-521.0-0.0","0","0","87250","","null","","","null","57","","","","","","","","","","","","","","","",""
"","ITI","","html-keyboard-response","379","569689","0.0-1.0-522.0","0","0","87250","","null","","","null","57","","","","","","","","","","","","","","","NaN",""
"","S1","","html-keyboard-response","380","569952","0.0-1.0-524.0","0","0","87250","","null","","","null","58","","","","","","","","","","","","","","","",""
"","ISI","","html-keyboard-response","381","571959","0.0-1.0-525.0","0","0","87250","","null","","","null","58","NaN","","","","","","","","","","","","","","",""
"","S2","","html-keyboard-response","382","572219","0.0-1.0-526.0","0","0","87250","","null","","","null","58","","NaN","","","","","","","","","","","","","",""
"","response","","html-keyboard-response","383","572897","0.0-1.0-527.0-0.0","0","0","87250","","666","","","75","58","","","2","58","training","adjacent","EF","5","6","P.jpg","L.jpg","0","1","0","",""
"","feedback","","html-keyboard-response","384","573913","0.0-1.0-528.0-0.0","0","0","87250","","null","","","null","58","","","","","","","","","","","","","","","",""
"","time_out","","html-keyboard-response","385","575926","0.0-1.0-530.0-0.0","0","0","87250","","null","","","null","58","","","","","","","","","","","","","","","",""
"","ITI","","html-keyboard-response","386","576937","0.0-1.0-531.0","0","0","87250","","null","","","null","58","","","","","","","","","","","","","","","NaN",""
"","S1","","html-keyboard-response","387","577199","0.0-1.0-533.0","0","0","87250","","null","","","null","59","","","","","","","","","","","","","","","",""
"","ISI","","html-keyboard-response","388","579209","0.0-1.0-534.0","0","0","87250","","null","","","null","59","NaN","","","","","","","","","","","","","","",""
"","S2","","html-keyboard-response","389","579473","0.0-1.0-535.0","0","0","87250","","null","","","null","59","","NaN","","","","","","","","","","","","","",""
"","response","","html-keyboard-response","390","580172","0.0-1.0-536.0-0.0","0","0","87250","","687","","","75","59","","","2","59","training","adjacent","FE","6","5","L.jpg","P.jpg","0","0","1","",""
"","feedback","","html-keyboard-response","391","581188","0.0-1.0-537.0-0.0","0","0","87250","","null","","","null","59","","","","","","","","","","","","","","","",""
"","ITI","","html-keyboard-response","392","582202","0.0-1.0-540.0","0","0","87250","","null","","","null","59","","","","","","","","","","","","","","","NaN",""
"","S1","","html-keyboard-response","393","582465","0.0-1.0-542.0","0","0","87250","","null","","","null","60","","","","","","","","","","","","","","","",""
"","ISI","","html-keyboard-response","394","584475","0.0-1.0-543.0","0","0","87250","","null","","","null","60","NaN","","","","","","","","","","","","","","",""
"","S2","","html-keyboard-response","395","584739","0.0-1.0-544.0","0","0","87250","","null","","","null","60","","NaN","","","","","","","","","","","","","",""
"","response","","html-keyboard-response","396","585246","0.0-1.0-545.0-0.0","0","0","87250","","496","","","68","60","","","2","60","training","adjacent","ED","5","4","P.jpg","Q.jpg","1","0","0","",""
"","feedback","","html-keyboard-response","397","586261","0.0-1.0-546.0-0.0","0","0","87250","","null","","","null","60","","","","","","","","","","","","","","","",""
"","time_out","","html-keyboard-response","398","588274","0.0-1.0-548.0-0.0","0","0","87250","","null","","","null","60","","","","","","","","","","","","","","","",""
"","ITI","","html-keyboard-response","399","589286","0.0-1.0-549.0","0","0","87250","","null","","","null","60","","","","","","","","","","","","","","","NaN",""
"","S1","","html-keyboard-response","400","589549","0.0-1.0-551.0","0","0","87250","","null","","","null","61","","","","","","","","","","","","","","","",""
"","ISI","","html-keyboard-response","401","591559","0.0-1.0-552.0","0","0","87250","","null","","","null","61","NaN","","","","","","","","","","","","","","",""
"","S2","","html-keyboard-response","402","591825","0.0-1.0-553.0","0","0","87250","","null","","","null","61","","NaN","","","","","","","","","","","","","",""
"","response","","html-keyboard-response","403","592399","0.0-1.0-554.0-0.0","0","0","87250","","562","","","75","61","","","2","61","training","adjacent","DC","4","3","Q.jpg","O.jpg","0","0","1","",""
"","feedback","","html-keyboard-response","404","593413","0.0-1.0-555.0-0.0","0","0","87250","","null","","","null","61","","","","","","","","","","","","","","","",""
"","ITI","","html-keyboard-response","405","594427","0.0-1.0-558.0","0","0","87250","","null","","","null","61","","","","","","","","","","","","","","","NaN",""
"","S1","","html-keyboard-response","406","594689","0.0-1.0-560.0","0","0","87250","","null","","","null","62","","","","","","","","","","","","","","","",""
"","ISI","","html-keyboard-response","407","596699","0.0-1.0-561.0","0","0","87250","","null","","","null","62","NaN","","","","","","","","","","","","","","",""
"","S2","","html-keyboard-response","408","596959","0.0-1.0-562.0","0","0","87250","","null","","","null","62","","NaN","","","","","","","","","","","","","",""
"","response","","html-keyboard-response","409","597616","0.0-1.0-563.0-0.0","0","0","87250","","647","","","75","62","","","2","62","training","adjacent","DC","4","3","Q.jpg","O.jpg","0","0","1","",""
"","feedback","","html-keyboard-response","410","598631","0.0-1.0-564.0-0.0","0","0","87250","","null","","","null","62","","","","","","","","","","","","","","","",""
"","ITI","","html-keyboard-response","411","599644","0.0-1.0-567.0","0","0","87250","","null","","","null","62","","","","","","","","","","","","","","","NaN",""
"","S1","","html-keyboard-response","412","599907","0.0-1.0-569.0","0","0","87250","","null","","","null","63","","","","","","","","","","","","","","","",""
"","ISI","","html-keyboard-response","413","601918","0.0-1.0-570.0","0","0","87250","","null","","","null","63","NaN","","","","","","","","","","","","","","",""
"","S2","","html-keyboard-response","414","602180","0.0-1.0-571.0","0","0","87250","","null","","","null","63","","NaN","","","","","","","","","","","","","",""
"","response","","html-keyboard-response","415","602770","0.0-1.0-572.0-0.0","0","0","87250","","578","","","68","63","","","2","63","training","adjacent","FE","6","5","L.jpg","P.jpg","1","0","0","",""
"","feedback","","html-keyboard-response","416","603786","0.0-1.0-573.0-0.0","0","0","87250","","null","","","null","63","","","","","","","","","","","","","","","",""
"","time_out","","html-keyboard-response","417","605799","0.0-1.0-575.0-0.0","0","0","87250","","null","","","null","63","","","","","","","","","","","","","","","",""
"","ITI","","html-keyboard-response","418","606807","0.0-1.0-576.0","0","0","87250","","null","","","null","63","","","","","","","","","","","","","","","NaN",""
"","S1","","html-keyboard-response","419","607067","0.0-1.0-578.0","0","0","87250","","null","","","null","64","","","","","","","","","","","","","","","",""
"","ISI","","html-keyboard-response","420","609078","0.0-1.0-579.0","0","0","87250","","null","","","null","64","NaN","","","","","","","","","","","","","","",""
"","S2","","html-keyboard-response","421","609341","0.0-1.0-580.0","0","0","87250","","null","","","null","64","","NaN","","","","","","","","","","","","","",""
"","response","","html-keyboard-response","422","609827","0.0-1.0-581.0-0.0","0","0","87250","","475","","","75","64","","","2","64","training","adjacent","AB","1","2","N.jpg","R.jpg","0","1","0","",""
"","feedback","","html-keyboard-response","423","610843","0.0-1.0-582.0-0.0","0","0","87250","","null","","","null","64","","","","","","","","","","","","","","","",""
"","time_out","","html-keyboard-response","424","612857","0.0-1.0-584.0-0.0","0","0","87250","","null","","","null","64","","","","","","","","","","","","","","","",""
"","ITI","","html-keyboard-response","425","613867","0.0-1.0-585.0","0","0","87250","","null","","","null","64","","","","","","","","","","","","","","","NaN",""
"","S1","","html-keyboard-response","426","614128","0.0-1.0-587.0","0","0","87250","","null","","","null","65","","","","","","","","","","","","","","","",""
"","ISI","","html-keyboard-response","427","616138","0.0-1.0-588.0","0","0","87250","","null","","","null","65","NaN","","","","","","","","","","","","","","",""
"","S2","","html-keyboard-response","428","616400","0.0-1.0-589.0","0","0","87250","","null","","","null","65","","NaN","","","","","","","","","","","","","",""
"","response","","html-keyboard-response","429","616827","0.0-1.0-590.0-0.0","0","0","87250","","420","","","75","65","","","2","65","training","adjacent","EF","5","6","P.jpg","L.jpg","0","1","0","",""
"","feedback","","html-keyboard-response","430","617841","0.0-1.0-591.0-0.0","0","0","87250","","null","","","null","65","","","","","","","","","","","","","","","",""
"","time_out","","html-keyboard-response","431","619853","0.0-1.0-593.0-0.0","0","0","87250","","null","","","null","65","","","","","","","","","","","","","","","",""
"","ITI","","html-keyboard-response","432","620863","0.0-1.0-594.0","0","0","87250","","null","","","null","65","","","","","","","","","","","","","","","NaN",""
"","S1","","html-keyboard-response","433","621122","0.0-1.0-596.0","0","0","87250","","null","","","null","66","","","","","","","","","","","","","","","",""
"","ISI","","html-keyboard-response","434","623130","0.0-1.0-597.0","0","0","87250","","null","","","null","66","NaN","","","","","","","","","","","","","","",""
"","S2","","html-keyboard-response","435","623391","0.0-1.0-598.0","0","0","87250","","null","","","null","66","","NaN","","","","","","","","","","","","","",""
"","response","","html-keyboard-response","436","624203","0.0-1.0-599.0-0.0","0","0","87250","","801","","","75","66","","","2","66","training","adjacent","BC","2","3","R.jpg","O.jpg","0","1","0","",""
"","feedback","","html-keyboard-response","437","625218","0.0-1.0-600.0-0.0","0","0","87250","","null","","","null","66","","","","","","","","","","","","","","","",""
"","time_out","","html-keyboard-response","438","627231","0.0-1.0-602.0-0.0","0","0","87250","","null","","","null","66","","","","","","","","","","","","","","","",""
"","ITI","","html-keyboard-response","439","628243","0.0-1.0-603.0","0","0","87250","","null","","","null","66","","","","","","","","","","","","","","","NaN",""
"","S1","","html-keyboard-response","440","628503","0.0-1.0-605.0","0","0","87250","","null","","","null","67","","","","","","","","","","","","","","","",""
"","ISI","","html-keyboard-response","441","630512","0.0-1.0-606.0","0","0","87250","","null","","","null","67","NaN","","","","","","","","","","","","","","",""
"","S2","","html-keyboard-response","442","630776","0.0-1.0-607.0","0","0","87250","","null","","","null","67","","NaN","","","","","","","","","","","","","",""
"","response","","html-keyboard-response","443","631306","0.0-1.0-608.0-0.0","0","0","87250","","519","","","75","67","","","2","67","training","adjacent","AB","1","2","N.jpg","R.jpg","0","1","0","",""
"","feedback","","html-keyboard-response","444","632322","0.0-1.0-609.0-0.0","0","0","87250","","null","","","null","67","","","","","","","","","","","","","","","",""
"","time_out","","html-keyboard-response","445","634335","0.0-1.0-611.0-0.0","0","0","87250","","null","","","null","67","","","","","","","","","","","","","","","",""
"","ITI","","html-keyboard-response","446","635342","0.0-1.0-612.0","0","0","87250","","null","","","null","67","","","","","","","","","","","","","","","NaN",""
"","S1","","html-keyboard-response","447","635604","0.0-1.0-614.0","0","0","87250","","null","","","null","68","","","","","","","","","","","","","","","",""
"","ISI","","html-keyboard-response","448","637612","0.0-1.0-615.0","0","0","87250","","null","","","null","68","NaN","","","","","","","","","","","","","","",""
"","S2","","html-keyboard-response","449","637874","0.0-1.0-616.0","0","0","87250","","null","","","null","68","","NaN","","","","","","","","","","","","","",""
"","response","","html-keyboard-response","450","638549","0.0-1.0-617.0-0.0","0","0","87250","","663","","","68","68","","","2","68","training","adjacent","AB","1","2","N.jpg","R.jpg","1","1","1","",""
"","feedback","","html-keyboard-response","451","639560","0.0-1.0-618.0-0.0","0","0","87250","","null","","","null","68","","","","","","","","","","","","","","","",""
"","ITI","","html-keyboard-response","452","640571","0.0-1.0-621.0","0","0","87250","","null","","","null","68","","","","","","","","","","","","","","","NaN",""
"","S1","","html-keyboard-response","453","640838","0.0-1.0-623.0","0","0","87250","","null","","","null","69","","","","","","","","","","","","","","","",""
"","ISI","","html-keyboard-response","454","642849","0.0-1.0-624.0","0","0","87250","","null","","","null","69","NaN","","","","","","","","","","","","","","",""
"","S2","","html-keyboard-response","455","643112","0.0-1.0-625.0","0","0","87250","","null","","","null","69","","NaN","","","","","","","","","","","","","",""
"","response","","html-keyboard-response","456","643740","0.0-1.0-626.0-0.0","0","0","87250","","619","","","75","69","","","2","69","training","adjacent","DE","4","5","Q.jpg","P.jpg","0","1","0","",""
"","feedback","","html-keyboard-response","457","644751","0.0-1.0-627.0-0.0","0","0","87250","","null","","","null","69","","","","","","","","","","","","","","","",""
"","time_out","","html-keyboard-response","458","646767","0.0-1.0-629.0-0.0","0","0","87250","","null","","","null","69","","","","","","","","","","","","","","","",""
"","ITI","","html-keyboard-response","459","647777","0.0-1.0-630.0","0","0","87250","","null","","","null","69","","","","","","","","","","","","","","","NaN",""
"","S1","","html-keyboard-response","460","648035","0.0-1.0-632.0","0","0","87250","","null","","","null","70","","","","","","","","","","","","","","","",""
"","ISI","","html-keyboard-response","461","650046","0.0-1.0-633.0","0","0","87250","","null","","","null","70","NaN","","","","","","","","","","","","","","",""
"","S2","","html-keyboard-response","462","650309","0.0-1.0-634.0","0","0","87250","","null","","","null","70","","NaN","","","","","","","","","","","","","",""
"","response","","html-keyboard-response","463","650860","0.0-1.0-635.0-0.0","0","0","87250","","539","","","75","70","","","2","70","training","adjacent","EF","5","6","P.jpg","L.jpg","0","1","0","",""
"","feedback","","html-keyboard-response","464","651875","0.0-1.0-636.0-0.0","0","0","87250","","null","","","null","70","","","","","","","","","","","","","","","",""
"","time_out","","html-keyboard-response","465","653888","0.0-1.0-638.0-0.0","0","0","87250","","null","","","null","70","","","","","","","","","","","","","","","",""
"","ITI","","html-keyboard-response","466","654898","0.0-1.0-639.0","0","0","87250","","null","","","null","70","","","","","","","","","","","","","","","NaN",""
"","S1","","html-keyboard-response","467","655162","0.0-1.0-641.0","0","0","87250","","null","","","null","71","","","","","","","","","","","","","","","",""
"","ISI","","html-keyboard-response","468","657174","0.0-1.0-642.0","0","0","87250","","null","","","null","71","NaN","","","","","","","","","","","","","","",""
"","S2","","html-keyboard-response","469","657437","0.0-1.0-643.0","0","0","87250","","null","","","null","71","","NaN","","","","","","","","","","","","","",""
"","response","","html-keyboard-response","470","658251","0.0-1.0-644.0-0.0","0","0","87250","","802","","","68","71","","","2","71","training","adjacent","GF","7","6","M.jpg","L.jpg","1","0","0","",""
"","feedback","","html-keyboard-response","471","659268","0.0-1.0-645.0-0.0","0","0","87250","","null","","","null","71","","","","","","","","","","","","","","","",""
"","time_out","","html-keyboard-response","472","661281","0.0-1.0-647.0-0.0","0","0","87250","","null","","","null","71","","","","","","","","","","","","","","","",""
"","ITI","","html-keyboard-response","473","662292","0.0-1.0-648.0","0","0","87250","","null","","","null","71","","","","","","","","","","","","","","","NaN",""
"","S1","","html-keyboard-response","474","662555","0.0-1.0-650.0","0","0","87250","","null","","","null","72","","","","","","","","","","","","","","","",""
"","ISI","","html-keyboard-response","475","664566","0.0-1.0-651.0","0","0","87250","","null","","","null","72","NaN","","","","","","","","","","","","","","",""
"","S2","","html-keyboard-response","476","664829","0.0-1.0-652.0","0","0","87250","","null","","","null","72","","NaN","","","","","","","","","","","","","",""
"","response","","html-keyboard-response","477","665361","0.0-1.0-653.0-0.0","0","0","87250","","523","","","75","72","","","2","72","training","adjacent","DE","4","5","Q.jpg","P.jpg","0","1","0","",""
"","feedback","","html-keyboard-response","478","666379","0.0-1.0-654.0-0.0","0","0","87250","","null","","","null","72","","","","","","","","","","","","","","","",""
"","time_out","","html-keyboard-response","479","668391","0.0-1.0-656.0-0.0","0","0","87250","","null","","","null","72","","","","","","","","","","","","","","","",""
"","ITI","","html-keyboard-response","480","669401","0.0-1.0-657.0","0","0","87250","","null","","","null","72","","","","","","","","","","","","","","","NaN",""
"","S1","","html-keyboard-response","481","669677","0.0-1.0-659.0","0","0","87250","","null","","","null","73","","","","","","","","","","","","","","","",""
"","ISI","","html-keyboard-response","482","671688","0.0-1.0-660.0","0","0","87250","","null","","","null","73","NaN","","","","","","","","","","","","","","",""
"","S2","","html-keyboard-response","483","671951","0.0-1.0-661.0","0","0","87250","","null","","","null","73","","NaN","","","","","","","","","","","","","",""
"","response","","html-keyboard-response","484","672341","0.0-1.0-662.0-0.0","0","0","87250","","378","","","68","73","","","2","73","training","adjacent","CD","3","4","O.jpg","Q.jpg","1","1","1","",""
"","feedback","","html-keyboard-response","485","673356","0.0-1.0-663.0-0.0","0","0","87250","","null","","","null","73","","","","","","","","","","","","","","","",""
"","ITI","","html-keyboard-response","486","674366","0.0-1.0-666.0","0","0","87250","","null","","","null","73","","","","","","","","","","","","","","","NaN",""
"","S1","","html-keyboard-response","487","674624","0.0-1.0-668.0","0","0","87250","","null","","","null","74","","","","","","","","","","","","","","","",""
"","ISI","","html-keyboard-response","488","676635","0.0-1.0-669.0","0","0","87250","","null","","","null","74","NaN","","","","","","","","","","","","","","",""
"","S2","","html-keyboard-response","489","676898","0.0-1.0-670.0","0","0","87250","","null","","","null","74","","NaN","","","","","","","","","","","","","",""
"","response","","html-keyboard-response","490","677634","0.0-1.0-671.0-0.0","0","0","87250","","724","","","68","74","","","2","74","training","adjacent","BC","2","3","R.jpg","O.jpg","1","1","1","",""
"","feedback","","html-keyboard-response","491","678647","0.0-1.0-672.0-0.0","0","0","87250","","null","","","null","74","","","","","","","","","","","","","","","",""
"","ITI","","html-keyboard-response","492","679659","0.0-1.0-675.0","0","0","87250","","null","","","null","74","","","","","","","","","","","","","","","NaN",""
"","S1","","html-keyboard-response","493","679921","0.0-1.0-677.0","0","0","87250","","null","","","null","75","","","","","","","","","","","","","","","",""
"","ISI","","html-keyboard-response","494","681932","0.0-1.0-678.0","0","0","87250","","null","","","null","75","NaN","","","","","","","","","","","","","","",""
"","S2","","html-keyboard-response","495","682206","0.0-1.0-679.0","0","0","87250","","null","","","null","75","","NaN","","","","","","","","","","","","","",""
"","response","","html-keyboard-response","496","682882","0.0-1.0-680.0-0.0","0","0","87250","","663","","","75","75","","","2","75","training","adjacent","CB","3","2","O.jpg","R.jpg","0","0","1","",""
"","feedback","","html-keyboard-response","497","683898","0.0-1.0-681.0-0.0","0","0","87250","","null","","","null","75","","","","","","","","","","","","","","","",""
"","ITI","","html-keyboard-response","498","684911","0.0-1.0-684.0","0","0","87250","","null","","","null","75","","","","","","","","","","","","","","","NaN",""
"","S1","","html-keyboard-response","499","685172","0.0-1.0-686.0","0","0","87250","","null","","","null","76","","","","","","","","","","","","","","","",""
"","ISI","","html-keyboard-response","500","687187","0.0-1.0-687.0","0","0","87250","","null","","","null","76","NaN","","","","","","","","","","","","","","",""
"","S2","","html-keyboard-response","501","687451","0.0-1.0-688.0","0","0","87250","","null","","","null","76","","NaN","","","","","","","","","","","","","",""
"","response","","html-keyboard-response","502","687930","0.0-1.0-689.0-0.0","0","0","87250","","465","","","75","76","","","2","76","training","adjacent","DC","4","3","Q.jpg","O.jpg","0","0","1","",""
"","feedback","","html-keyboard-response","503","688946","0.0-1.0-690.0-0.0","0","0","87250","","null","","","null","76","","","","","","","","","","","","","","","",""
"","ITI","","html-keyboard-response","504","689959","0.0-1.0-693.0","0","0","87250","","null","","","null","76","","","","","","","","","","","","","","","NaN",""
"","S1","","html-keyboard-response","505","690221","0.0-1.0-695.0","0","0","87250","","null","","","null","77","","","","","","","","","","","","","","","",""
"","ISI","","html-keyboard-response","506","692230","0.0-1.0-696.0","0","0","87250","","null","","","null","77","NaN","","","","","","","","","","","","","","",""
"","S2","","html-keyboard-response","507","692491","0.0-1.0-697.0","0","0","87250","","null","","","null","77","","NaN","","","","","","","","","","","","","",""
"","response","","html-keyboard-response","508","693174","0.0-1.0-698.0-0.0","0","0","87250","","673","","","75","77","","","2","77","training","adjacent","BC","2","3","R.jpg","O.jpg","0","1","0","",""
"","feedback","","html-keyboard-response","509","694188","0.0-1.0-699.0-0.0","0","0","87250","","null","","","null","77","","","","","","","","","","","","","","","",""
"","time_out","","html-keyboard-response","510","696204","0.0-1.0-701.0-0.0","0","0","87250","","null","","","null","77","","","","","","","","","","","","","","","",""
"","ITI","","html-keyboard-response","511","697216","0.0-1.0-702.0","0","0","87250","","null","","","null","77","","","","","","","","","","","","","","","NaN",""
"","S1","","html-keyboard-response","512","697476","0.0-1.0-704.0","0","0","87250","","null","","","null","78","","","","","","","","","","","","","","","",""
"","ISI","","html-keyboard-response","513","699485","0.0-1.0-705.0","0","0","87250","","null","","","null","78","NaN","","","","","","","","","","","","","","",""
"","S2","","html-keyboard-response","514","699749","0.0-1.0-706.0","0","0","87250","","null","","","null","78","","NaN","","","","","","","","","","","","","",""
"","response","","html-keyboard-response","515","700339","0.0-1.0-707.0-0.0","0","0","87250","","578","","","68","78","","","2","78","training","adjacent","ED","5","4","P.jpg","Q.jpg","1","0","0","",""
"","feedback","","html-keyboard-response","516","701355","0.0-1.0-708.0-0.0","0","0","87250","","null","","","null","78","","","","","","","","","","","","","","","",""
"","time_out","","html-keyboard-response","517","703367","0.0-1.0-710.0-0.0","0","0","87250","","null","","","null","78","","","","","","","","","","","","","","","",""
"","ITI","","html-keyboard-response","518","704376","0.0-1.0-711.0","0","0","87250","","null","","","null","78","","","","","","","","","","","","","","","NaN",""
"","S1","","html-keyboard-response","519","704640","0.0-1.0-713.0","0","0","87250","","null","","","null","79","","","","","","","","","","","","","","","",""
"","ISI","","html-keyboard-response","520","706651","0.0-1.0-714.0","0","0","87250","","null","","","null","79","NaN","","","","","","","","","","","","","","",""
"","S2","","html-keyboard-response","521","706912","0.0-1.0-715.0","0","0","87250","","null","","","null","79","","NaN","","","","","","","","","","","","","",""
"","response","","html-keyboard-response","522","707359","0.0-1.0-716.0-0.0","0","0","87250","","438","","","68","79","","","2","79","training","adjacent","AB","1","2","N.jpg","R.jpg","1","1","1","",""
"","feedback","","html-keyboard-response","523","708385","0.0-1.0-717.0-0.0","0","0","87250","","null","","","null","79","","","","","","","","","","","","","","","",""
"","ITI","","html-keyboard-response","524","709400","0.0-1.0-720.0","0","0","87250","","null","","","null","79","","","","","","","","","","","","","","","NaN",""
"","S1","","html-keyboard-response","525","709664","0.0-1.0-722.0","0","0","87250","","null","","","null","80","","","","","","","","","","","","","","","",""
"","ISI","","html-keyboard-response","526","711674","0.0-1.0-723.0","0","0","87250","","null","","","null","80","NaN","","","","","","","","","","","","","","",""
"","S2","","html-keyboard-response","527","711938","0.0-1.0-724.0","0","0","87250","","null","","","null","80","","NaN","","","","","","","","","","","","","",""
"","response","","html-keyboard-response","528","712518","0.0-1.0-725.0-0.0","0","0","87250","","567","","","68","80","","","2","80","training","adjacent","BA","2","1","R.jpg","N.jpg","1","0","0","",""
"","feedback","","html-keyboard-response","529","713532","0.0-1.0-726.0-0.0","0","0","87250","","null","","","null","80","","","","","","","","","","","","","","","",""
"","time_out","","html-keyboard-response","530","715540","0.0-1.0-728.0-0.0","0","0","87250","","null","","","null","80","","","","","","","","","","","","","","","",""
"","ITI","","html-keyboard-response","531","716547","0.0-1.0-729.0","0","0","87250","","null","","","null","80","","","","","","","","","","","","","","","NaN",""
"","S1","","html-keyboard-response","532","716812","0.0-1.0-731.0","0","0","87250","","null","","","null","81","","","","","","","","","","","","","","","",""
"","ISI","","html-keyboard-response","533","718822","0.0-1.0-732.0","0","0","87250","","null","","","null","81","NaN","","","","","","","","","","","","","","",""
"","S2","","html-keyboard-response","534","719084","0.0-1.0-733.0","0","0","87250","","null","","","null","81","","NaN","","","","","","","","","","","","","",""
"","response","","html-keyboard-response","535","719910","0.0-1.0-734.0-0.0","0","0","87250","","817","","","75","81","","","2","81","training","adjacent","BC","2","3","R.jpg","O.jpg","0","1","0","",""
"","feedback","","html-keyboard-response","536","720925","0.0-1.0-735.0-0.0","0","0","87250","","null","","","null","81","","","","","","","","","","","","","","","",""
"","time_out","","html-keyboard-response","537","722937","0.0-1.0-737.0-0.0","0","0","87250","","null","","","null","81","","","","","","","","","","","","","","","",""
"","ITI","","html-keyboard-response","538","723947","0.0-1.0-738.0","0","0","87250","","null","","","null","81","","","","","","","","","","","","","","","NaN",""
"","S1","","html-keyboard-response","539","724210","0.0-1.0-740.0","0","0","87250","","null","","","null","82","","","","","","","","","","","","","","","",""
"","ISI","","html-keyboard-response","540","726221","0.0-1.0-741.0","0","0","87250","","null","","","null","82","NaN","","","","","","","","","","","","","","",""
"","S2","","html-keyboard-response","541","726485","0.0-1.0-742.0","0","0","87250","","null","","","null","82","","NaN","","","","","","","","","","","","","",""
"","response","","html-keyboard-response","542","727223","0.0-1.0-743.0-0.0","0","0","87250","","728","","","75","82","","","2","82","training","adjacent","FG","6","7","L.jpg","M.jpg","0","1","0","",""
"","feedback","","html-keyboard-response","543","728237","0.0-1.0-744.0-0.0","0","0","87250","","null","","","null","82","","","","","","","","","","","","","","","",""
"","time_out","","html-keyboard-response","544","730250","0.0-1.0-746.0-0.0","0","0","87250","","null","","","null","82","","","","","","","","","","","","","","","",""
"","ITI","","html-keyboard-response","545","731263","0.0-1.0-747.0","0","0","87250","","null","","","null","82","","","","","","","","","","","","","","","NaN",""
"","S1","","html-keyboard-response","546","731527","0.0-1.0-749.0","0","0","87250","","null","","","null","83","","","","","","","","","","","","","","","",""
"","ISI","","html-keyboard-response","547","733537","0.0-1.0-750.0","0","0","87250","","null","","","null","83","NaN","","","","","","","","","","","","","","",""
"","S2","","html-keyboard-response","548","733800","0.0-1.0-751.0","0","0","87250","","null","","","null","83","","NaN","","","","","","","","","","","","","",""
"","response","","html-keyboard-response","549","734449","0.0-1.0-752.0-0.0","0","0","87250","","639","","","68","83","","","2","83","training","adjacent","CD","3","4","O.jpg","Q.jpg","1","1","1","",""
"","feedback","","html-keyboard-response","550","735462","0.0-1.0-753.0-0.0","0","0","87250","","null","","","null","83","","","","","","","","","","","","","","","",""
"","ITI","","html-keyboard-response","551","736478","0.0-1.0-756.0","0","0","87250","","null","","","null","83","","","","","","","","","","","","","","","NaN",""
"","S1","","html-keyboard-response","552","736742","0.0-1.0-758.0","0","0","87250","","null","","","null","84","","","","","","","","","","","","","","","",""
"","ISI","","html-keyboard-response","553","738754","0.0-1.0-759.0","0","0","87250","","null","","","null","84","NaN","","","","","","","","","","","","","","",""
"","S2","","html-keyboard-response","554","739018","0.0-1.0-760.0","0","0","87250","","null","","","null","84","","NaN","","","","","","","","","","","","","",""
"","response","","html-keyboard-response","555","739634","0.0-1.0-761.0-0.0","0","0","87250","","607","","","75","84","","","2","84","training","adjacent","DE","4","5","Q.jpg","P.jpg","0","1","0","",""
"","feedback","","html-keyboard-response","556","740640","0.0-1.0-762.0-0.0","0","0","87250","","null","","","null","84","","","","","","","","","","","","","","","",""
"","time_out","","html-keyboard-response","557","742659","0.0-1.0-764.0-0.0","0","0","87250","","null","","","null","84","","","","","","","","","","","","","","","",""
"","ITI","","html-keyboard-response","558","743673","0.0-1.0-765.0","0","0","87250","","null","","","null","84","","","","","","","","","","","","","","","NaN",""
"","S1","","html-keyboard-response","559","743935","0.0-1.0-767.0","0","0","87250","","null","","","null","85","","","","","","","","","","","","","","","",""
"","ISI","","html-keyboard-response","560","745946","0.0-1.0-768.0","0","0","87250","","null","","","null","85","NaN","","","","","","","","","","","","","","",""
"","S2","","html-keyboard-response","561","746210","0.0-1.0-769.0","0","0","87250","","null","","","null","85","","NaN","","","","","","","","","","","","","",""
"","response","","html-keyboard-response","562","746601","0.0-1.0-770.0-0.0","0","0","87250","","378","","","68","85","","","2","85","training","adjacent","GF","7","6","M.jpg","L.jpg","1","0","0","",""
"","feedback","","html-keyboard-response","563","747617","0.0-1.0-771.0-0.0","0","0","87250","","null","","","null","85","","","","","","","","","","","","","","","",""
"","time_out","","html-keyboard-response","564","749631","0.0-1.0-773.0-0.0","0","0","87250","","null","","","null","85","","","","","","","","","","","","","","","",""
"","ITI","","html-keyboard-response","565","750643","0.0-1.0-774.0","0","0","87250","","null","","","null","85","","","","","","","","","","","","","","","NaN",""
"","S1","","html-keyboard-response","566","750905","0.0-1.0-776.0","0","0","87250","","null","","","null","86","","","","","","","","","","","","","","","",""
"","ISI","","html-keyboard-response","567","752916","0.0-1.0-777.0","0","0","87250","","null","","","null","86","NaN","","","","","","","","","","","","","","",""
"","S2","","html-keyboard-response","568","753182","0.0-1.0-778.0","0","0","87250","","null","","","null","86","","NaN","","","","","","","","","","","","","",""
"","response","","html-keyboard-response","569","753643","0.0-1.0-779.0-0.0","0","0","87250","","447","","","75","86","","","2","86","training","adjacent","FE","6","5","L.jpg","P.jpg","0","0","1","",""
"","feedback","","html-keyboard-response","570","754659","0.0-1.0-780.0-0.0","0","0","87250","","null","","","null","86","","","","","","","","","","","","","","","",""
"","ITI","","html-keyboard-response","571","755674","0.0-1.0-783.0","0","0","87250","","null","","","null","86","","","","","","","","","","","","","","","NaN",""
"","S1","","html-keyboard-response","572","755938","0.0-1.0-785.0","0","0","87250","","null","","","null","87","","","","","","","","","","","","","","","",""
"","ISI","","html-keyboard-response","573","757950","0.0-1.0-786.0","0","0","87250","","null","","","null","87","NaN","","","","","","","","","","","","","","",""
"","S2","","html-keyboard-response","574","758226","0.0-1.0-787.0","0","0","87250","","null","","","null","87","","NaN","","","","","","","","","","","","","",""
"","response","","html-keyboard-response","575","758574","0.0-1.0-788.0-0.0","0","0","87250","","335","","","68","87","","","2","87","training","adjacent","CD","3","4","O.jpg","Q.jpg","1","1","1","",""
"","feedback","","html-keyboard-response","576","759591","0.0-1.0-789.0-0.0","0","0","87250","","null","","","null","87","","","","","","","","","","","","","","","",""
"","ITI","","html-keyboard-response","577","760606","0.0-1.0-792.0","0","0","87250","","null","","","null","87","","","","","","","","","","","","","","","NaN",""
"","S1","","html-keyboard-response","578","760865","0.0-1.0-794.0","0","0","87250","","null","","","null","88","","","","","","","","","","","","","","","",""
"","ISI","","html-keyboard-response","579","762877","0.0-1.0-795.0","0","0","87250","","null","","","null","88","NaN","","","","","","","","","","","","","","",""
"","S2","","html-keyboard-response","580","763140","0.0-1.0-796.0","0","0","87250","","null","","","null","88","","NaN","","","","","","","","","","","","","",""
"","response","","html-keyboard-response","581","764102","0.0-1.0-797.0-0.0","0","0","87250","","951","","","75","88","","","2","88","training","adjacent","ED","5","4","P.jpg","Q.jpg","0","0","1","",""
"","feedback","","html-keyboard-response","582","765117","0.0-1.0-798.0-0.0","0","0","87250","","null","","","null","88","","","","","","","","","","","","","","","",""
