"success","ttype","start_time","trial_type","trial_index","time_elapsed","internal_node_id","warning","missed_checkup","PID","view_history","rt","responses","repeat_instructions","key_press","index","keypress_isi","keypress_S2","block","trial_num","phase","group_type","pair_type","S1_stim","S2_stim","S1_img","S2_img","S1_chosen","S1_higher","accuracy","keypress_iti","total_bonus_tally"
"true","full_screen","d03072023hr1723","fullscreen","0","4145","0.0-0.0","0","0","11942","","","","","","","","","","","","","","","","","","","","","",""
"","instructions","","instructions","1","11180","0.0-1.0-0.0-0.0","0","0","11942","[{""page_index"":0,""viewing_time"":1930},{""page_index"":1,""viewing_time"":3077},{""page_index"":2,""viewing_time"":1027},{""page_index"":3,""viewing_time"":998}]","7033","","","","","","","","","","","","","","","","","","","",""
"","comprehension_check","","survey-multi-choice","2","17769","0.0-1.0-0.0-1.0","0","0","11942","","6582","{""Q0"":""True"",""Q1"":""D"",""Q2"":""Once the second image appears and while the screen 'MAKE A CHOICE' is shown"",""Q3"":""Green mark"",""Q4"":""either D or K""}","0","","","","","","","","","","","","","","","","","",""
"","start_exp","","html-keyboard-response","3","18358","0.0-1.0-1.0","0","0","11942","","587","","","32","","","","","","","","","","","","","","","","",""
"","S1","","html-keyboard-response","4","18619","0.0-1.0-2.0","0","0","11942","","null","","","null","0","","","","","","","","","","","","","","","",""
"","ISI","","html-keyboard-response","5","18732","0.0-1.0-3.0","0","0","11942","","null","","","null","0","NaN","","","","","","","","","","","","","","",""
"","S2","","html-keyboard-response","6","18995","0.0-1.0-4.0","0","0","11942","","null","","","null","0","","NaN","","","","","","","","","","","","","",""
"","response","","html-keyboard-response","7","19248","0.0-1.0-5.0-0.0","0","0","11942","","249","","","75","0","","","1","0","training","adjacent","CB","3","2","L.jpg","O.jpg","0","0","1","",""
"","feedback","","html-keyboard-response","8","19353","0.0-1.0-6.0-0.0","0","0","11942","","null","","","null","0","","","","","","","","","","","","","","","",""
"","ITI","","html-keyboard-response","9","19858","0.0-1.0-9.0","0","0","11942","","85","","","75","0","","","","","","","","","","","","","","","k",""
"","S1","","html-keyboard-response","10","20113","0.0-1.0-11.0","0","0","11942","","null","","","null","1","","","","","","","","","","","","","","","",""
"","ISI","","html-keyboard-response","11","20217","0.0-1.0-12.0","0","0","11942","","14","","","75","1","k","","","","","","","","","","","","","","",""
"","S2","","html-keyboard-response","12","20275","0.0-1.0-13.0","0","0","11942","","57","","","75","1","","k","1","1","training","adjacent","BA","2","1","O.jpg","N.jpg","0","0","1","",""
"","feedback","","html-keyboard-response","13","20385","0.0-1.0-15.0-0.0","0","0","11942","","null","","","null","1","","","","","","","","","","","","","","","",""
"","ITI","","html-keyboard-response","14","20889","0.0-1.0-18.0","0","0","11942","","57","","","75","1","","","","","","","","","","","","","","","k",""
"","S1","","html-keyboard-response","15","21145","0.0-1.0-20.0","0","0","11942","","null","","","null","2","","","","","","","","","","","","","","","",""
"","ISI","","html-keyboard-response","16","21249","0.0-1.0-21.0","0","0","11942","","null","","","null","2","NaN","","","","","","","","","","","","","","",""
"","S2","","html-keyboard-response","17","21269","0.0-1.0-22.0","0","0","11942","","18","","","75","2","","k","1","2","training","adjacent","AB","1","2","N.jpg","O.jpg","0","1","0","",""
"","feedback","","html-keyboard-response","18","21380","0.0-1.0-24.0-0.0","0","0","11942","","null","","","null","2","","","","","","","","","","","","","","","",""
"","time_out","","html-keyboard-response","19","21488","0.0-1.0-26.0-0.0","0","0","11942","","null","","","null","2","","","","","","","","","","","","","","","",""
"","ITI","","html-keyboard-response","20","21995","0.0-1.0-27.0","0","0","11942","","115","","","75","2","","","","","","","","","","","","","","","k",""
"","S1","","html-keyboard-response","21","22249","0.0-1.0-29.0","0","0","11942","","null","","","null","3","","","","","","","","","","","","","","","",""
"","ISI","","html-keyboard-response","22","22356","0.0-1.0-30.0","0","0","11942","","22","","","75","3","k","","","","","","","","","","","","","","",""
"","S2","","html-keyboard-response","23","22557","0.0-1.0-31.0","0","0","11942","","199","","","75","3","","k","1","3","training","adjacent","DE","4","5","Q.jpg","M.jpg","0","1","0","",""
"","feedback","","html-keyboard-response","24","22667","0.0-1.0-33.0-0.0","0","0","11942","","null","","","null","3","","","","","","","","","","","","","","","",""
"","time_out","","html-keyboard-response","25","22780","0.0-1.0-35.0-0.0","0","0","11942","","null","","","null","3","","","","","","","","","","","","","","","",""
"","ITI","","html-keyboard-response","26","23291","0.0-1.0-36.0","0","0","11942","","160","","","75","3","","","","","","","","","","","","","","","k",""
"","S1","","html-keyboard-response","27","23545","0.0-1.0-38.0","0","0","11942","","null","","","null","4","","","","","","","","","","","","","","","",""
"","ISI","","html-keyboard-response","28","23649","0.0-1.0-39.0","0","0","11942","","null","","","null","4","NaN","","","","","","","","","","","","","","",""
"","S2","","html-keyboard-response","29","23679","0.0-1.0-40.0","0","0","11942","","28","","","75","4","","k","1","4","training","adjacent","FE","6","5","R.jpg","M.jpg","0","0","1","",""
"","feedback","","html-keyboard-response","30","23787","0.0-1.0-42.0-0.0","0","0","11942","","null","","","null","4","","","","","","","","","","","","","","","",""
"","ITI","","html-keyboard-response","31","24298","0.0-1.0-45.0","0","0","11942","","88","","","75","4","","","","","","","","","","","","","","","k",""
"","S1","","html-keyboard-response","32","24553","0.0-1.0-47.0","0","0","11942","","null","","","null","5","","","","","","","","","","","","","","","",""
"","ISI","","html-keyboard-response","33","24661","0.0-1.0-48.0","0","0","11942","","71","","","75","5","k","","","","","","","","","","","","","","",""
"","S2","","html-keyboard-response","34","24802","0.0-1.0-49.0","0","0","11942","","140","","","75","5","","k","1","5","training","adjacent","FG","6","7","R.jpg","P.jpg","0","1","0","",""
"","feedback","","html-keyboard-response","35","24913","0.0-1.0-51.0-0.0","0","0","11942","","null","","","null","5","","","","","","","","","","","","","","","",""
"","time_out","","html-keyboard-response","36","25021","0.0-1.0-53.0-0.0","0","0","11942","","null","","","null","5","","","","","","","","","","","","","","","",""
"","ITI","","html-keyboard-response","37","25529","0.0-1.0-54.0","0","0","11942","","148","","","75","5","","","","","","","","","","","","","","","k",""
"","S1","","html-keyboard-response","38","25788","0.0-1.0-56.0","0","0","11942","","null","","","null","6","","","","","","","","","","","","","","","",""
"","ISI","","html-keyboard-response","39","25891","0.0-1.0-57.0","0","0","11942","","101","","","75","6","k","","","","","","","","","","","","","","",""
"","S2","","html-keyboard-response","40","26069","0.0-1.0-58.0","0","0","11942","","177","","","75","6","","k","1","6","training","adjacent","EF","5","6","M.jpg","R.jpg","0","1","0","",""
"","feedback","","html-keyboard-response","41","26180","0.0-1.0-60.0-0.0","0","0","11942","","null","","","null","6","","","","","","","","","","","","","","","",""
"","time_out","","html-keyboard-response","42","26282","0.0-1.0-62.0-0.0","0","0","11942","","null","","","null","6","","","","","","","","","","","","","","","",""
"","ITI","","html-keyboard-response","43","26790","0.0-1.0-63.0","0","0","11942","","152","","","75","6","","","","","","","","","","","","","","","k",""
"","S1","","html-keyboard-response","44","27047","0.0-1.0-65.0","0","0","11942","","null","","","null","7","","","","","","","","","","","","","","","",""
"","ISI","","html-keyboard-response","45","27153","0.0-1.0-66.0","0","0","11942","","91","","","75","7","k","","","","","","","","","","","","","","",""
"","S2","","html-keyboard-response","46","27398","0.0-1.0-67.0","0","0","11942","","244","","","75","7","","k","1","7","training","adjacent","CD","3","4","L.jpg","Q.jpg","0","1","0","",""
"","feedback","","html-keyboard-response","47","27505","0.0-1.0-69.0-0.0","0","0","11942","","null","","","null","7","","","","","","","","","","","","","","","",""
"","time_out","","html-keyboard-response","48","27612","0.0-1.0-71.0-0.0","0","0","11942","","null","","","null","7","","","","","","","","","","","","","","","",""
"","ITI","","html-keyboard-response","49","28121","0.0-1.0-72.0","0","0","11942","","145","","","75","7","","","","","","","","","","","","","","","k",""
"","S1","","html-keyboard-response","50","28377","0.0-1.0-74.0","0","0","11942","","null","","","null","8","","","","","","","","","","","","","","","",""
"","ISI","","html-keyboard-response","51","28481","0.0-1.0-75.0","0","0","11942","","91","","","75","8","k","","","","","","","","","","","","","","",""
"","S2","","html-keyboard-response","52","28631","0.0-1.0-76.0","0","0","11942","","148","","","75","8","","k","1","8","training","adjacent","ED","5","4","M.jpg","Q.jpg","0","0","1","",""
"","feedback","","html-keyboard-response","53","28739","0.0-1.0-78.0-0.0","0","0","11942","","null","","","null","8","","","","","","","","","","","","","","","",""
"","ITI","","html-keyboard-response","54","29241","0.0-1.0-81.0","0","0","11942","","68","","","75","8","","","","","","","","","","","","","","","k",""
"","S1","","html-keyboard-response","55","29495","0.0-1.0-83.0","0","0","11942","","null","","","null","9","","","","","","","","","","","","","","","",""
"","ISI","","html-keyboard-response","56","29599","0.0-1.0-84.0","0","0","11942","","51","","","75","9","k","","","","","","","","","","","","","","",""
"","S2","","html-keyboard-response","57","29734","0.0-1.0-85.0","0","0","11942","","134","","","75","9","","k","1","9","training","adjacent","GF","7","6","P.jpg","R.jpg","0","0","1","",""
"","feedback","","html-keyboard-response","58","29845","0.0-1.0-87.0-0.0","0","0","11942","","null","","","null","9","","","","","","","","","","","","","","","",""
"","ITI","","html-keyboard-response","59","30353","0.0-1.0-90.0","0","0","11942","","66","","","75","9","","","","","","","","","","","","","","","k",""
"","S1","","html-keyboard-response","60","30612","0.0-1.0-92.0","0","0","11942","","null","","","null","10","","","","","","","","","","","","","","","",""
"","ISI","","html-keyboard-response","61","30724","0.0-1.0-93.0","0","0","11942","","7","","","75","10","k","","","","","","","","","","","","","","",""
"","S2","","html-keyboard-response","62","30793","0.0-1.0-94.0","0","0","11942","","67","","","75","10","","k","1","10","training","adjacent","BC","2","3","O.jpg","L.jpg","0","1","0","",""
"","feedback","","html-keyboard-response","63","30898","0.0-1.0-96.0-0.0","0","0","11942","","null","","","null","10","","","","","","","","","","","","","","","",""
"","time_out","","html-keyboard-response","64","31005","0.0-1.0-98.0-0.0","0","0","11942","","null","","","null","10","","","","","","","","","","","","","","","",""
"","ITI","","html-keyboard-response","65","31513","0.0-1.0-99.0","0","0","11942","","139","","","75","10","","","","","","","","","","","","","","","k",""
"","S1","","html-keyboard-response","66","31768","0.0-1.0-101.0","0","0","11942","","null","","","null","11","","","","","","","","","","","","","","","",""
"","ISI","","html-keyboard-response","67","31871","0.0-1.0-102.0","0","0","11942","","95","","","75","11","k","","","","","","","","","","","","","","",""
"","S2","","html-keyboard-response","68","32045","0.0-1.0-103.0","0","0","11942","","172","","","75","11","","k","1","11","training","adjacent","DC","4","3","Q.jpg","L.jpg","0","0","1","",""
"","feedback","","html-keyboard-response","69","32152","0.0-1.0-105.0-0.0","0","0","11942","","null","","","null","11","","","","","","","","","","","","","","","",""
"","ITI","","html-keyboard-response","70","32660","0.0-1.0-108.0","0","0","11942","","72","","","75","11","","","","","","","","","","","","","","","k",""
"","block_over","","html-keyboard-response","71","33287","0.0-1.0-109.0-0.0","0","0","11942","","625","","","32","11","","","","","","","","","","","","","","","",""
"","S1","","html-keyboard-response","72","33544","0.0-1.0-110.0","0","0","11942","","null","","","null","12","","","","","","","","","","","","","","","",""
"","ISI","","html-keyboard-response","73","33650","0.0-1.0-111.0","0","0","11942","","92","","","75","12","k","","","","","","","","","","","","","","",""
"","S2","","html-keyboard-response","74","33817","0.0-1.0-112.0","0","0","11942","","166","","","75","12","","k","2","12","training","adjacent","GF","7","6","P.jpg","R.jpg","0","0","1","",""
"","feedback","","html-keyboard-response","75","33925","0.0-1.0-114.0-0.0","0","0","11942","","null","","","null","12","","","","","","","","","","","","","","","",""
"","ITI","","html-keyboard-response","76","34435","0.0-1.0-117.0","0","0","11942","","65","","","75","12","","","","","","","","","","","","","","","k",""
"","S1","","html-keyboard-response","77","34699","0.0-1.0-119.0","0","0","11942","","null","","","null","13","","","","","","","","","","","","","","","",""
"","ISI","","html-keyboard-response","78","34813","0.0-1.0-120.0","0","0","11942","","17","","","75","13","k","","","","","","","","","","","","","","",""
"","S2","","html-keyboard-response","79","34894","0.0-1.0-121.0","0","0","11942","","79","","","75","13","","k","2","13","training","adjacent","DC","4","3","Q.jpg","L.jpg","0","0","1","",""
"","feedback","","html-keyboard-response","80","35004","0.0-1.0-123.0-0.0","0","0","11942","","null","","","null","13","","","","","","","","","","","","","","","",""
"","ITI","","html-keyboard-response","81","35516","0.0-1.0-126.0","0","0","11942","","65","","","75","13","","","","","","","","","","","","","","","k",""
"","S1","","html-keyboard-response","82","35781","0.0-1.0-128.0","0","0","11942","","null","","","null","14","","","","","","","","","","","","","","","",""
"","ISI","","html-keyboard-response","83","35892","0.0-1.0-129.0","0","0","11942","","52","","","75","14","k","","","","","","","","","","","","","","",""
"","S2","","html-keyboard-response","84","36029","0.0-1.0-130.0","0","0","11942","","135","","","75","14","","k","2","14","training","adjacent","FE","6","5","R.jpg","M.jpg","0","0","1","",""
"","feedback","","html-keyboard-response","85","36141","0.0-1.0-132.0-0.0","0","0","11942","","null","","","null","14","","","","","","","","","","","","","","","",""
"","ITI","","html-keyboard-response","86","36652","0.0-1.0-135.0","0","0","11942","","51","","","75","14","","","","","","","","","","","","","","","k",""
"","S1","","html-keyboard-response","87","36905","0.0-1.0-137.0","0","0","11942","","null","","","null","15","","","","","","","","","","","","","","","",""
"","ISI","","html-keyboard-response","88","37009","0.0-1.0-138.0","0","0","11942","","null","","","null","15","NaN","","","","","","","","","","","","","","",""
"","S2","","html-keyboard-response","89","37030","0.0-1.0-139.0","0","0","11942","","20","","","75","15","","k","2","15","training","adjacent","EF","5","6","M.jpg","R.jpg","0","1","0","",""
"","feedback","","html-keyboard-response","90","37140","0.0-1.0-141.0-0.0","0","0","11942","","null","","","null","15","","","","","","","","","","","","","","","",""
"","time_out","","html-keyboard-response","91","37252","0.0-1.0-143.0-0.0","0","0","11942","","null","","","null","15","","","","","","","","","","","","","","","",""
"","ITI","","html-keyboard-response","92","37764","0.0-1.0-144.0","0","0","11942","","158","","","75","15","","","","","","","","","","","","","","","k",""
"","S1","","html-keyboard-response","93","38027","0.0-1.0-146.0","0","0","11942","","null","","","null","16","","","","","","","","","","","","","","","",""
"","ISI","","html-keyboard-response","94","38137","0.0-1.0-147.0","0","0","11942","","null","","","null","16","NaN","","","","","","","","","","","","","","",""
"","S2","","html-keyboard-response","95","38174","0.0-1.0-148.0","0","0","11942","","35","","","75","16","","k","2","16","training","adjacent","FG","6","7","R.jpg","P.jpg","0","1","0","",""
"","feedback","","html-keyboard-response","96","38284","0.0-1.0-150.0-0.0","0","0","11942","","null","","","null","16","","","","","","","","","","","","","","","",""
"","time_out","","html-keyboard-response","97","38395","0.0-1.0-152.0-0.0","0","0","11942","","null","","","null","16","","","","","","","","","","","","","","","",""
"","ITI","","html-keyboard-response","98","38908","0.0-1.0-153.0","0","0","11942","","179","","","75","16","","","","","","","","","","","","","","","k",""
"","S1","","html-keyboard-response","99","39170","0.0-1.0-155.0","0","0","11942","","null","","","null","17","","","","","","","","","","","","","","","",""
"","ISI","","html-keyboard-response","100","39285","0.0-1.0-156.0","0","0","11942","","null","","","null","17","NaN","","","","","","","","","","","","","","",""
"","S2","","html-keyboard-response","101","39310","0.0-1.0-157.0","0","0","11942","","25","","","75","17","","k","2","17","training","adjacent","AB","1","2","N.jpg","O.jpg","0","1","0","",""
"","feedback","","html-keyboard-response","102","39419","0.0-1.0-159.0-0.0","0","0","11942","","null","","","null","17","","","","","","","","","","","","","","","",""
"","time_out","","html-keyboard-response","103","39532","0.0-1.0-161.0-0.0","0","0","11942","","null","","","null","17","","","","","","","","","","","","","","","",""
"","ITI","","html-keyboard-response","104","40040","0.0-1.0-162.0","0","0","11942","","176","","","75","17","","","","","","","","","","","","","","","k",""
"","S1","","html-keyboard-response","105","40295","0.0-1.0-164.0","0","0","11942","","null","","","null","18","","","","","","","","","","","","","","","",""
"","ISI","","html-keyboard-response","106","40402","0.0-1.0-165.0","0","0","11942","","null","","","null","18","NaN","","","","","","","","","","","","","","",""
"","S2","","html-keyboard-response","107","40475","0.0-1.0-166.0","0","0","11942","","72","","","75","18","","k","2","18","training","adjacent","CB","3","2","L.jpg","O.jpg","0","0","1","",""
"","feedback","","html-keyboard-response","108","40588","0.0-1.0-168.0-0.0","0","0","11942","","null","","","null","18","","","","","","","","","","","","","","","",""
"","ITI","","html-keyboard-response","109","41099","0.0-1.0-171.0","0","0","11942","","47","","","75","18","","","","","","","","","","","","","","","k",""
"","S1","","html-keyboard-response","110","41356","0.0-1.0-173.0","0","0","11942","","null","","","null","19","","","","","","","","","","","","","","","",""
"","ISI","","html-keyboard-response","111","41468","0.0-1.0-174.0","0","0","11942","","74","","","75","19","k","","","","","","","","","","","","","","",""
"","S2","","html-keyboard-response","112","41625","0.0-1.0-175.0","0","0","11942","","155","","","75","19","","k","2","19","training","adjacent","BA","2","1","O.jpg","N.jpg","0","0","1","",""
"","feedback","","html-keyboard-response","113","41732","0.0-1.0-177.0-0.0","0","0","11942","","null","","","null","19","","","","","","","","","","","","","","","",""
"","ITI","","html-keyboard-response","114","42242","0.0-1.0-180.0","0","0","11942","","72","","","75","19","","","","","","","","","","","","","","","k",""
"","S1","","html-keyboard-response","115","42495","0.0-1.0-182.0","0","0","11942","","null","","","null","20","","","","","","","","","","","","","","","",""
"","ISI","","html-keyboard-response","116","42600","0.0-1.0-183.0","0","0","11942","","null","","","null","20","NaN","","","","","","","","","","","","","","",""
"","S2","","html-keyboard-response","117","42627","0.0-1.0-184.0","0","0","11942","","25","","","75","20","","k","2","20","training","adjacent","BC","2","3","O.jpg","L.jpg","0","1","0","",""
"","feedback","","html-keyboard-response","118","42736","0.0-1.0-186.0-0.0","0","0","11942","","null","","","null","20","","","","","","","","","","","","","","","",""
"","time_out","","html-keyboard-response","119","42842","0.0-1.0-188.0-0.0","0","0","11942","","null","","","null","20","","","","","","","","","","","","","","","",""
"","ITI","","html-keyboard-response","120","43344","0.0-1.0-189.0","0","0","11942","","161","","","75","20","","","","","","","","","","","","","","","k",""
"","S1","","html-keyboard-response","121","43600","0.0-1.0-191.0","0","0","11942","","null","","","null","21","","","","","","","","","","","","","","","",""
"","ISI","","html-keyboard-response","122","43703","0.0-1.0-192.0","0","0","11942","","15","","","75","21","k","","","","","","","","","","","","","","",""
"","S2","","html-keyboard-response","123","43806","0.0-1.0-193.0","0","0","11942","","101","","","75","21","","k","2","21","training","adjacent","ED","5","4","M.jpg","Q.jpg","0","0","1","",""
"","feedback","","html-keyboard-response","124","43915","0.0-1.0-195.0-0.0","0","0","11942","","null","","","null","21","","","","","","","","","","","","","","","",""
"","ITI","","html-keyboard-response","125","44426","0.0-1.0-198.0","0","0","11942","","75","","","75","21","","","","","","","","","","","","","","","k",""
"","S1","","html-keyboard-response","126","44680","0.0-1.0-200.0","0","0","11942","","null","","","null","22","","","","","","","","","","","","","","","",""
"","ISI","","html-keyboard-response","127","44784","0.0-1.0-201.0","0","0","11942","","null","","","null","22","NaN","","","","","","","","","","","","","","",""
"","S2","","html-keyboard-response","128","44854","0.0-1.0-202.0","0","0","11942","","69","","","75","22","","k","2","22","training","adjacent","CD","3","4","L.jpg","Q.jpg","0","1","0","",""
"","feedback","","html-keyboard-response","129","44962","0.0-1.0-204.0-0.0","0","0","11942","","null","","","null","22","","","","","","","","","","","","","","","",""
"","time_out","","html-keyboard-response","130","45073","0.0-1.0-206.0-0.0","0","0","11942","","null","","","null","22","","","","","","","","","","","","","","","",""
"","ITI","","html-keyboard-response","131","45574","0.0-1.0-207.0","0","0","11942","","201","","","75","22","","","","","","","","","","","","","","","k",""
"","S1","","html-keyboard-response","132","45833","0.0-1.0-209.0","0","0","11942","","null","","","null","23","","","","","","","","","","","","","","","",""
"","ISI","","html-keyboard-response","133","45940","0.0-1.0-210.0","0","0","11942","","59","","","75","23","k","","","","","","","","","","","","","","",""
"","S2","","html-keyboard-response","134","46083","0.0-1.0-211.0","0","0","11942","","141","","","75","23","","k","2","23","training","adjacent","DE","4","5","Q.jpg","M.jpg","0","1","0","",""
"","feedback","","html-keyboard-response","135","46186","0.0-1.0-213.0-0.0","0","0","11942","","null","","","null","23","","","","","","","","","","","","","","","",""
"","time_out","","html-keyboard-response","136","46289","0.0-1.0-215.0-0.0","0","0","11942","","null","","","null","23","","","","","","","","","","","","","","","",""
"","ITI","","html-keyboard-response","137","46795","0.0-1.0-216.0","0","0","11942","","297","","","75","23","","","","","","","","","","","","","","","k",""
"","block_over","","html-keyboard-response","138","47538","0.0-1.0-217.0-0.0","0","0","11942","","742","","","32","23","","","","","","","","","","","","","","","",""
"","S1","","html-keyboard-response","139","47795","0.0-1.0-218.0","0","0","11942","","null","","","null","24","","","","","","","","","","","","","","","",""
"","ISI","","html-keyboard-response","140","47905","0.0-1.0-219.0","0","0","11942","","null","","","null","24","NaN","","","","","","","","","","","","","","",""
"","S2","","html-keyboard-response","141","47929","0.0-1.0-220.0","0","0","11942","","22","","","75","24","","k","3","24","training","adjacent","DE","4","5","Q.jpg","M.jpg","0","1","0","",""
"","feedback","","html-keyboard-response","142","48032","0.0-1.0-222.0-0.0","0","0","11942","","null","","","null","24","","","","","","","","","","","","","","","",""
"","time_out","","html-keyboard-response","143","48135","0.0-1.0-224.0-0.0","0","0","11942","","null","","","null","24","","","","","","","","","","","","","","","",""
"","ITI","","html-keyboard-response","144","48640","0.0-1.0-225.0","0","0","11942","","182","","","75","24","","","","","","","","","","","","","","","k",""
"","S1","","html-keyboard-response","145","48895","0.0-1.0-227.0","0","0","11942","","null","","","null","25","","","","","","","","","","","","","","","",""
"","ISI","","html-keyboard-response","146","49004","0.0-1.0-228.0","0","0","11942","","80","","","75","25","k","","","","","","","","","","","","","","",""
"","S2","","html-keyboard-response","147","49165","0.0-1.0-229.0","0","0","11942","","160","","","75","25","","k","3","25","training","adjacent","BA","2","1","O.jpg","N.jpg","0","0","1","",""
"","feedback","","html-keyboard-response","148","49273","0.0-1.0-231.0-0.0","0","0","11942","","null","","","null","25","","","","","","","","","","","","","","","",""
"","ITI","","html-keyboard-response","149","49776","0.0-1.0-234.0","0","0","11942","","80","","","75","25","","","","","","","","","","","","","","","k",""
"","S1","","html-keyboard-response","150","50035","0.0-1.0-236.0","0","0","11942","","null","","","null","26","","","","","","","","","","","","","","","",""
"","ISI","","html-keyboard-response","151","50144","0.0-1.0-237.0","0","0","11942","","16","","","75","26","k","","","","","","","","","","","","","","",""
"","S2","","html-keyboard-response","152","50276","0.0-1.0-238.0","0","0","11942","","131","","","75","26","","k","3","26","training","adjacent","EF","5","6","M.jpg","R.jpg","0","1","0","",""
"","feedback","","html-keyboard-response","153","50380","0.0-1.0-240.0-0.0","0","0","11942","","null","","","null","26","","","","","","","","","","","","","","","",""
"","time_out","","html-keyboard-response","154","50488","0.0-1.0-242.0-0.0","0","0","11942","","null","","","null","26","","","","","","","","","","","","","","","",""
"","ITI","","html-keyboard-response","155","50995","0.0-1.0-243.0","0","0","11942","","209","","","75","26","","","","","","","","","","","","","","","k",""
"","S1","","html-keyboard-response","156","51252","0.0-1.0-245.0","0","0","11942","","null","","","null","27","","","","","","","","","","","","","","","",""
"","ISI","","html-keyboard-response","157","51361","0.0-1.0-246.0","0","0","11942","","53","","","75","27","k","","","","","","","","","","","","","","",""
"","S2","","html-keyboard-response","158","51505","0.0-1.0-247.0","0","0","11942","","143","","","75","27","","k","3","27","training","adjacent","CD","3","4","L.jpg","Q.jpg","0","1","0","",""
"","feedback","","html-keyboard-response","159","51609","0.0-1.0-249.0-0.0","0","0","11942","","null","","","null","27","","","","","","","","","","","","","","","",""
"","time_out","","html-keyboard-response","160","51712","0.0-1.0-251.0-0.0","0","0","11942","","null","","","null","27","","","","","","","","","","","","","","","",""
"","ITI","","html-keyboard-response","161","52215","0.0-1.0-252.0","0","0","11942","","1","","","75","27","","","","","","","","","","","","","","","k",""
"","S1","","html-keyboard-response","162","52476","0.0-1.0-254.0","0","0","11942","","null","","","null","28","","","","","","","","","","","","","","","",""
"","ISI","","html-keyboard-response","163","52583","0.0-1.0-255.0","0","0","11942","","92","","","75","28","k","","","","","","","","","","","","","","",""
"","S2","","html-keyboard-response","164","52779","0.0-1.0-256.0","0","0","11942","","195","","","75","28","","k","3","28","training","adjacent","BC","2","3","O.jpg","L.jpg","0","1","0","",""
"","feedback","","html-keyboard-response","165","52893","0.0-1.0-258.0-0.0","0","0","11942","","null","","","null","28","","","","","","","","","","","","","","","",""
"","time_out","","html-keyboard-response","166","53004","0.0-1.0-260.0-0.0","0","0","11942","","null","","","null","28","","","","","","","","","","","","","","","",""
"","ITI","","html-keyboard-response","167","53511","0.0-1.0-261.0","0","0","11942","","191","","","75","28","","","","","","","","","","","","","","","k",""
"","S1","","html-keyboard-response","168","53769","0.0-1.0-263.0","0","0","11942","","null","","","null","29","","","","","","","","","","","","","","","",""
"","ISI","","html-keyboard-response","169","53876","0.0-1.0-264.0","0","0","11942","","null","","","null","29","NaN","","","","","","","","","","","","","","",""
"","S2","","html-keyboard-response","170","53881","0.0-1.0-265.0","0","0","11942","","3","","","75","29","","k","3","29","training","adjacent","CB","3","2","L.jpg","O.jpg","0","0","1","",""
"","feedback","","html-keyboard-response","171","53986","0.0-1.0-267.0-0.0","0","0","11942","","null","","","null","29","","","","","","","","","","","","","","","",""
"","ITI","","html-keyboard-response","172","54489","0.0-1.0-270.0","0","0","11942","","130","","","75","29","","","","","","","","","","","","","","","k",""
"","S1","","html-keyboard-response","173","54745","0.0-1.0-272.0","0","0","11942","","null","","","null","30","","","","","","","","","","","","","","","",""
"","ISI","","html-keyboard-response","174","54848","0.0-1.0-273.0","0","0","11942","","15","","","75","30","k","","","","","","","","","","","","","","",""
"","S2","","html-keyboard-response","175","54962","0.0-1.0-274.0","0","0","11942","","112","","","75","30","","k","3","30","training","adjacent","FE","6","5","R.jpg","M.jpg","0","0","1","",""
"","feedback","","html-keyboard-response","176","55068","0.0-1.0-276.0-0.0","0","0","11942","","null","","","null","30","","","","","","","","","","","","","","","",""
"","ITI","","html-keyboard-response","177","55579","0.0-1.0-279.0","0","0","11942","","101","","","75","30","","","","","","","","","","","","","","","k",""
"","S1","","html-keyboard-response","178","55836","0.0-1.0-281.0","0","0","11942","","null","","","null","31","","","","","","","","","","","","","","","",""
"","ISI","","html-keyboard-response","179","55945","0.0-1.0-282.0","0","0","11942","","null","","","null","31","NaN","","","","","","","","","","","","","","",""
"","S2","","html-keyboard-response","180","55978","0.0-1.0-283.0","0","0","11942","","32","","","75","31","","k","3","31","training","adjacent","AB","1","2","N.jpg","O.jpg","0","1","0","",""
"","feedback","","html-keyboard-response","181","56090","0.0-1.0-285.0-0.0","0","0","11942","","null","","","null","31","","","","","","","","","","","","","","","",""
"","time_out","","html-keyboard-response","182","56204","0.0-1.0-287.0-0.0","0","0","11942","","null","","","null","31","","","","","","","","","","","","","","","",""
"","ITI","","html-keyboard-response","183","56711","0.0-1.0-288.0","0","0","11942","","175","","","75","31","","","","","","","","","","","","","","","k",""
"","S1","","html-keyboard-response","184","56969","0.0-1.0-290.0","0","0","11942","","null","","","null","32","","","","","","","","","","","","","","","",""
"","ISI","","html-keyboard-response","185","57074","0.0-1.0-291.0","0","0","11942","","29","","","75","32","k","","","","","","","","","","","","","","",""
"","S2","","html-keyboard-response","186","57206","0.0-1.0-292.0","0","0","11942","","130","","","75","32","","k","3","32","training","adjacent","FG","6","7","R.jpg","P.jpg","0","1","0","",""
"","feedback","","html-keyboard-response","187","57310","0.0-1.0-294.0-0.0","0","0","11942","","null","","","null","32","","","","","","","","","","","","","","","",""
"","time_out","","html-keyboard-response","188","57416","0.0-1.0-296.0-0.0","0","0","11942","","null","","","null","32","","","","","","","","","","","","","","","",""
"","ITI","","html-keyboard-response","189","57919","0.0-1.0-297.0","0","0","11942","","1","","","75","32","","","","","","","","","","","","","","","k",""
"","S1","","html-keyboard-response","190","58175","0.0-1.0-299.0","0","0","11942","","null","","","null","33","","","","","","","","","","","","","","","",""
"","ISI","","html-keyboard-response","191","58284","0.0-1.0-300.0","0","0","11942","","84","","","75","33","k","","","","","","","","","","","","","","",""
"","S2","","html-keyboard-response","192","58523","0.0-1.0-301.0","0","0","11942","","237","","","75","33","","k","3","33","training","adjacent","GF","7","6","P.jpg","R.jpg","0","0","1","",""
"","feedback","","html-keyboard-response","193","58636","0.0-1.0-303.0-0.0","0","0","11942","","null","","","null","33","","","","","","","","","","","","","","","",""
"","ITI","","html-keyboard-response","194","59145","0.0-1.0-306.0","0","0","11942","","92","","","75","33","","","","","","","","","","","","","","","k",""
"","S1","","html-keyboard-response","195","59400","0.0-1.0-308.0","0","0","11942","","null","","","null","34","","","","","","","","","","","","","","","",""
"","ISI","","html-keyboard-response","196","59505","0.0-1.0-309.0","0","0","11942","","null","","","null","34","NaN","","","","","","","","","","","","","","",""
"","S2","","html-keyboard-response","197","59544","0.0-1.0-310.0","0","0","11942","","38","","","75","34","","k","3","34","training","adjacent","DC","4","3","Q.jpg","L.jpg","0","0","1","",""
"","feedback","","html-keyboard-response","198","59651","0.0-1.0-312.0-0.0","0","0","11942","","null","","","null","34","","","","","","","","","","","","","","","",""
"","ITI","","html-keyboard-response","199","60160","0.0-1.0-315.0","0","0","11942","","106","","","75","34","","","","","","","","","","","","","","","k",""
"","S1","","html-keyboard-response","200","60417","0.0-1.0-317.0","0","0","11942","","null","","","null","35","","","","","","","","","","","","","","","",""
"","ISI","","html-keyboard-response","201","60520","0.0-1.0-318.0","0","0","11942","","null","","","null","35","NaN","","","","","","","","","","","","","","",""
"","S2","","html-keyboard-response","202","60593","0.0-1.0-319.0","0","0","11942","","72","","","75","35","","k","3","35","training","adjacent","ED","5","4","M.jpg","Q.jpg","0","0","1","",""
"","feedback","","html-keyboard-response","203","60699","0.0-1.0-321.0-0.0","0","0","11942","","null","","","null","35","","","","","","","","","","","","","","","",""
"","ITI","","html-keyboard-response","204","61212","0.0-1.0-324.0","0","0","11942","","89","","","75","35","","","","","","","","","","","","","","","k",""
"","block_over","","html-keyboard-response","205","74122","0.0-1.0-325.0-0.0","0","0","11942","","12908","","","32","35","","","","","","","","","","","","","","","",""
"","S1","","html-keyboard-response","206","74375","0.0-1.0-326.0","0","0","11942","","null","","","null","36","","","","","","","","","","","","","","","",""
"","ISI","","html-keyboard-response","207","74480","0.0-1.0-327.0","0","0","11942","","42","","","75","36","k","","","","","","","","","","","","","","",""
"","S2","","html-keyboard-response","208","74595","0.0-1.0-328.0","0","0","11942","","113","","","75","36","","k","4","36","test","non_adjacent","EB","5","2","M.jpg","O.jpg","0","0","1","",""
"","feedback","","html-keyboard-response","209","74705","0.0-1.0-330.0-0.0","0","0","11942","","null","","","null","36","","","","","","","","","","","","","","","",""
"","ITI","","html-keyboard-response","210","75212","0.0-1.0-333.0","0","0","11942","","77","","","75","36","","","","","","","","","","","","","","","k",""
"","S1","","html-keyboard-response","211","75468","0.0-1.0-335.0","0","0","11942","","null","","","null","37","","","","","","","","","","","","","","","",""
"","ISI","","html-keyboard-response","212","75576","0.0-1.0-336.0","0","0","11942","","6","","","75","37","k","","","","","","","","","","","","","","",""
"","S2","","html-keyboard-response","213","75665","0.0-1.0-337.0","0","0","11942","","88","","","75","37","","k","4","37","test","adjacent","AB","1","2","N.jpg","O.jpg","0","1","0","",""
"","feedback","","html-keyboard-response","214","75775","0.0-1.0-339.0-0.0","0","0","11942","","null","","","null","37","","","","","","","","","","","","","","","",""
"","time_out","","html-keyboard-response","215","75884","0.0-1.0-341.0-0.0","0","0","11942","","null","","","null","37","","","","","","","","","","","","","","","",""
"","ITI","","html-keyboard-response","216","76395","0.0-1.0-342.0","0","0","11942","","159","","","75","37","","","","","","","","","","","","","","","k",""
"","S1","","html-keyboard-response","217","76648","0.0-1.0-344.0","0","0","11942","","null","","","null","38","","","","","","","","","","","","","","","",""
"","ISI","","html-keyboard-response","218","76751","0.0-1.0-345.0","0","0","11942","","2","","","75","38","k","","","","","","","","","","","","","","",""
"","S2","","html-keyboard-response","219","76872","0.0-1.0-346.0","0","0","11942","","119","","","75","38","","k","4","38","test","non_adjacent","FC","6","3","R.jpg","L.jpg","0","0","1","",""
"","feedback","","html-keyboard-response","220","76975","0.0-1.0-348.0-0.0","0","0","11942","","null","","","null","38","","","","","","","","","","","","","","","",""
"","ITI","","html-keyboard-response","221","77480","0.0-1.0-351.0","0","0","11942","","132","","","75","38","","","","","","","","","","","","","","","k",""
"","S1","","html-keyboard-response","222","77736","0.0-1.0-353.0","0","0","11942","","null","","","null","39","","","","","","","","","","","","","","","",""
"","ISI","","html-keyboard-response","223","77842","0.0-1.0-354.0","0","0","11942","","null","","","null","39","NaN","","","","","","","","","","","","","","",""
"","S2","","html-keyboard-response","224","77897","0.0-1.0-355.0","0","0","11942","","53","","","75","39","","k","4","39","test","non_adjacent","EA","5","1","M.jpg","N.jpg","0","0","1","",""
"","feedback","","html-keyboard-response","225","78000","0.0-1.0-357.0-0.0","0","0","11942","","null","","","null","39","","","","","","","","","","","","","","","",""
"","ITI","","html-keyboard-response","226","78504","0.0-1.0-360.0","0","0","11942","","87","","","75","39","","","","","","","","","","","","","","","k",""
"","S1","","html-keyboard-response","227","78760","0.0-1.0-362.0","0","0","11942","","null","","","null","40","","","","","","","","","","","","","","","",""
"","ISI","","html-keyboard-response","228","78863","0.0-1.0-363.0","0","0","11942","","null","","","null","40","NaN","","","","","","","","","","","","","","",""
"","S2","","html-keyboard-response","229","78894","0.0-1.0-364.0","0","0","11942","","30","","","75","40","","k","4","40","test","adjacent","BA","2","1","O.jpg","N.jpg","0","0","1","",""
"","feedback","","html-keyboard-response","230","79004","0.0-1.0-366.0-0.0","0","0","11942","","null","","","null","40","","","","","","","","","","","","","","","",""
"","ITI","","html-keyboard-response","231","79516","0.0-1.0-369.0","0","0","11942","","87","","","75","40","","","","","","","","","","","","","","","k",""
"","S1","","html-keyboard-response","232","79768","0.0-1.0-371.0","0","0","11942","","null","","","null","41","","","","","","","","","","","","","","","",""
"","ISI","","html-keyboard-response","233","79875","0.0-1.0-372.0","0","0","11942","","null","","","null","41","NaN","","","","","","","","","","","","","","",""
"","S2","","html-keyboard-response","234","79881","0.0-1.0-373.0","0","0","11942","","5","","","75","41","","k","4","41","test","non_adjacent","AC","1","3","N.jpg","L.jpg","0","1","0","",""
"","feedback","","html-keyboard-response","235","79988","0.0-1.0-375.0-0.0","0","0","11942","","null","","","null","41","","","","","","","","","","","","","","","",""
"","time_out","","html-keyboard-response","236","80099","0.0-1.0-377.0-0.0","0","0","11942","","null","","","null","41","","","","","","","","","","","","","","","",""
"","ITI","","html-keyboard-response","237","80608","0.0-1.0-378.0","0","0","11942","","189","","","75","41","","","","","","","","","","","","","","","k",""
"","S1","","html-keyboard-response","238","80864","0.0-1.0-380.0","0","0","11942","","null","","","null","42","","","","","","","","","","","","","","","",""
"","ISI","","html-keyboard-response","239","80969","0.0-1.0-381.0","0","0","11942","","28","","","75","42","k","","","","","","","","","","","","","","",""
"","S2","","html-keyboard-response","240","81107","0.0-1.0-382.0","0","0","11942","","136","","","75","42","","k","4","42","test","non_adjacent","GA","7","1","P.jpg","N.jpg","0","0","1","",""
"","feedback","","html-keyboard-response","241","81210","0.0-1.0-384.0-0.0","0","0","11942","","null","","","null","42","","","","","","","","","","","","","","","",""
"","ITI","","html-keyboard-response","242","81723","0.0-1.0-387.0","0","0","11942","","86","","","75","42","","","","","","","","","","","","","","","k",""
"","S1","","html-keyboard-response","243","81979","0.0-1.0-389.0","0","0","11942","","null","","","null","43","","","","","","","","","","","","","","","",""
"","ISI","","html-keyboard-response","244","82088","0.0-1.0-390.0","0","0","11942","","84","","","75","43","k","","","","","","","","","","","","","","",""
"","S2","","html-keyboard-response","245","82264","0.0-1.0-391.0","0","0","11942","","174","","","75","43","","k","4","43","test","adjacent","CB","3","2","L.jpg","O.jpg","0","0","1","",""
"","feedback","","html-keyboard-response","246","82371","0.0-1.0-393.0-0.0","0","0","11942","","null","","","null","43","","","","","","","","","","","","","","","",""
"","ITI","","html-keyboard-response","247","82884","0.0-1.0-396.0","0","0","11942","","85","","","75","43","","","","","","","","","","","","","","","k",""
"","S1","","html-keyboard-response","248","83145","0.0-1.0-398.0","0","0","11942","","null","","","null","44","","","","","","","","","","","","","","","",""
"","ISI","","html-keyboard-response","249","83249","0.0-1.0-399.0","0","0","11942","","85","","","75","44","k","","","","","","","","","","","","","","",""
"","S2","","html-keyboard-response","250","83429","0.0-1.0-400.0","0","0","11942","","178","","","75","44","","k","4","44","test","non_adjacent","FB","6","2","R.jpg","O.jpg","0","0","1","",""
"","feedback","","html-keyboard-response","251","83540","0.0-1.0-402.0-0.0","0","0","11942","","null","","","null","44","","","","","","","","","","","","","","","",""
"","ITI","","html-keyboard-response","252","84052","0.0-1.0-405.0","0","0","11942","","79","","","75","44","","","","","","","","","","","","","","","k",""
"","S1","","html-keyboard-response","253","84312","0.0-1.0-407.0","0","0","11942","","null","","","null","45","","","","","","","","","","","","","","","",""
"","ISI","","html-keyboard-response","254","84420","0.0-1.0-408.0","0","0","11942","","null","","","null","45","NaN","","","","","","","","","","","","","","",""
"","S2","","html-keyboard-response","255","84438","0.0-1.0-409.0","0","0","11942","","17","","","75","45","","k","4","45","test","adjacent","DC","4","3","Q.jpg","L.jpg","0","0","1","",""
"","feedback","","html-keyboard-response","256","84544","0.0-1.0-411.0-0.0","0","0","11942","","null","","","null","45","","","","","","","","","","","","","","","",""
"","ITI","","html-keyboard-response","257","85052","0.0-1.0-414.0","0","0","11942","","100","","","75","45","","","","","","","","","","","","","","","k",""
"","S1","","html-keyboard-response","258","85312","0.0-1.0-416.0","0","0","11942","","null","","","null","46","","","","","","","","","","","","","","","",""
"","ISI","","html-keyboard-response","259","85417","0.0-1.0-417.0","0","0","11942","","null","","","null","46","NaN","","","","","","","","","","","","","","",""
"","S2","","html-keyboard-response","260","85471","0.0-1.0-418.0","0","0","11942","","53","","","75","46","","k","4","46","test","non_adjacent","BD","2","4","O.jpg","Q.jpg","0","1","0","",""
"","feedback","","html-keyboard-response","261","85578","0.0-1.0-420.0-0.0","0","0","11942","","null","","","null","46","","","","","","","","","","","","","","","",""
"","time_out","","html-keyboard-response","262","85684","0.0-1.0-422.0-0.0","0","0","11942","","null","","","null","46","","","","","","","","","","","","","","","",""
"","ITI","","html-keyboard-response","263","86194","0.0-1.0-423.0","0","0","11942","","192","","","75","46","","","","","","","","","","","","","","","k",""
"","S1","","html-keyboard-response","264","86451","0.0-1.0-425.0","0","0","11942","","null","","","null","47","","","","","","","","","","","","","","","",""
"","ISI","","html-keyboard-response","265","86564","0.0-1.0-426.0","0","0","11942","","33","","","75","47","k","","","","","","","","","","","","","","",""
"","S2","","html-keyboard-response","266","86671","0.0-1.0-427.0","0","0","11942","","105","","","75","47","","k","4","47","test","non_adjacent","GB","7","2","P.jpg","O.jpg","0","0","1","",""
"","feedback","","html-keyboard-response","267","86774","0.0-1.0-429.0-0.0","0","0","11942","","null","","","null","47","","","","","","","","","","","","","","","",""
"","ITI","","html-keyboard-response","268","87281","0.0-1.0-432.0","0","0","11942","","97","","","75","47","","","","","","","","","","","","","","","k",""
"","S1","","html-keyboard-response","269","87536","0.0-1.0-434.0","0","0","11942","","null","","","null","48","","","","","","","","","","","","","","","",""
"","ISI","","html-keyboard-response","270","87641","0.0-1.0-435.0","0","0","11942","","null","","","null","48","NaN","","","","","","","","","","","","","","",""
"","S2","","html-keyboard-response","271","87648","0.0-1.0-436.0","0","0","11942","","6","","","75","48","","k","4","48","test","non_adjacent","FA","6","1","R.jpg","N.jpg","0","0","1","",""
"","feedback","","html-keyboard-response","272","87753","0.0-1.0-438.0-0.0","0","0","11942","","null","","","null","48","","","","","","","","","","","","","","","",""
"","ITI","","html-keyboard-response","273","88266","0.0-1.0-441.0","0","0","11942","","120","","","75","48","","","","","","","","","","","","","","","k",""
"","S1","","html-keyboard-response","274","88521","0.0-1.0-443.0","0","0","11942","","null","","","null","49","","","","","","","","","","","","","","","",""
"","ISI","","html-keyboard-response","275","88626","0.0-1.0-444.0","0","0","11942","","1","","","75","49","k","","","","","","","","","","","","","","",""
"","S2","","html-keyboard-response","276","88738","0.0-1.0-445.0","0","0","11942","","111","","","75","49","","k","4","49","test","non_adjacent","EC","5","3","M.jpg","L.jpg","0","0","1","",""
"","feedback","","html-keyboard-response","277","88841","0.0-1.0-447.0-0.0","0","0","11942","","null","","","null","49","","","","","","","","","","","","","","","",""
"","ITI","","html-keyboard-response","278","89352","0.0-1.0-450.0","0","0","11942","","120","","","75","49","","","","","","","","","","","","","","","k",""
"","S1","","html-keyboard-response","279","89612","0.0-1.0-452.0","0","0","11942","","null","","","null","50","","","","","","","","","","","","","","","",""
"","ISI","","html-keyboard-response","280","89720","0.0-1.0-453.0","0","0","11942","","14","","","75","50","k","","","","","","","","","","","","","","",""
"","S2","","html-keyboard-response","281","89841","0.0-1.0-454.0","0","0","11942","","119","","","75","50","","k","4","50","test","non_adjacent","GC","7","3","P.jpg","L.jpg","0","0","1","",""
"","feedback","","html-keyboard-response","282","89945","0.0-1.0-456.0-0.0","0","0","11942","","null","","","null","50","","","","","","","","","","","","","","","",""
"","ITI","","html-keyboard-response","283","90450","0.0-1.0-459.0","0","0","11942","","109","","","75","50","","","","","","","","","","","","","","","k",""
"","S1","","html-keyboard-response","284","90707","0.0-1.0-461.0","0","0","11942","","null","","","null","51","","","","","","","","","","","","","","","",""
"","ISI","","html-keyboard-response","285","90818","0.0-1.0-462.0","0","0","11942","","null","","","null","51","NaN","","","","","","","","","","","","","","",""
"","S2","","html-keyboard-response","286","90895","0.0-1.0-463.0","0","0","11942","","75","","","75","51","","k","4","51","test","non_adjacent","AD","1","4","N.jpg","Q.jpg","0","1","0","",""
"","feedback","","html-keyboard-response","287","91000","0.0-1.0-465.0-0.0","0","0","11942","","null","","","null","51","","","","","","","","","","","","","","","",""
"","time_out","","html-keyboard-response","288","91105","0.0-1.0-467.0-0.0","0","0","11942","","null","","","null","51","","","","","","","","","","","","","","","",""
"","ITI","","html-keyboard-response","289","91607","0.0-1.0-468.0","0","0","11942","","204","","","75","51","","","","","","","","","","","","","","","k",""
"","S1","","html-keyboard-response","290","91864","0.0-1.0-470.0","0","0","11942","","null","","","null","52","","","","","","","","","","","","","","","",""
"","ISI","","html-keyboard-response","291","91968","0.0-1.0-471.0","0","0","11942","","89","","","75","52","k","","","","","","","","","","","","","","",""
"","S2","","html-keyboard-response","292","92145","0.0-1.0-472.0","0","0","11942","","175","","","75","52","","k","4","52","test","adjacent","BC","2","3","O.jpg","L.jpg","0","1","0","",""
"","feedback","","html-keyboard-response","293","92248","0.0-1.0-474.0-0.0","0","0","11942","","null","","","null","52","","","","","","","","","","","","","","","",""
"","time_out","","html-keyboard-response","294","92354","0.0-1.0-476.0-0.0","0","0","11942","","null","","","null","52","","","","","","","","","","","","","","","",""
"","ITI","","html-keyboard-response","295","92863","0.0-1.0-477.0","0","0","11942","","204","","","75","52","","","","","","","","","","","","","","","k",""
"","S1","","html-keyboard-response","296","93123","0.0-1.0-479.0","0","0","11942","","null","","","null","53","","","","","","","","","","","","","","","",""
"","ISI","","html-keyboard-response","297","93233","0.0-1.0-480.0","0","0","11942","","18","","","75","53","k","","","","","","","","","","","","","","",""
"","S2","","html-keyboard-response","298","93342","0.0-1.0-481.0","0","0","11942","","108","","","75","53","","k","4","53","test","non_adjacent","DA","4","1","Q.jpg","N.jpg","0","0","1","",""
"","feedback","","html-keyboard-response","299","93446","0.0-1.0-483.0-0.0","0","0","11942","","null","","","null","53","","","","","","","","","","","","","","","",""
"","ITI","","html-keyboard-response","300","93953","0.0-1.0-486.0","0","0","11942","","94","","","75","53","","","","","","","","","","","","","","","k",""
"","S1","","html-keyboard-response","301","94209","0.0-1.0-488.0","0","0","11942","","null","","","null","54","","","","","","","","","","","","","","","",""
"","ISI","","html-keyboard-response","302","94311","0.0-1.0-489.0","0","0","11942","","null","","","null","54","NaN","","","","","","","","","","","","","","",""
"","S2","","html-keyboard-response","303","94341","0.0-1.0-490.0","0","0","11942","","28","","","75","54","","k","4","54","test","non_adjacent","DB","4","2","Q.jpg","O.jpg","0","0","1","",""
"","feedback","","html-keyboard-response","304","94452","0.0-1.0-492.0-0.0","0","0","11942","","null","","","null","54","","","","","","","","","","","","","","","",""
"","ITI","","html-keyboard-response","305","94962","0.0-1.0-495.0","0","0","11942","","82","","","75","54","","","","","","","","","","","","","","","k",""
"","S1","","html-keyboard-response","306","95218","0.0-1.0-497.0","0","0","11942","","null","","","null","55","","","","","","","","","","","","","","","",""
"","ISI","","html-keyboard-response","307","95327","0.0-1.0-498.0","0","0","11942","","90","","","75","55","k","","","","","","","","","","","","","","",""
"","S2","","html-keyboard-response","308","95515","0.0-1.0-499.0","0","0","11942","","186","","","75","55","","k","4","55","test","adjacent","CD","3","4","L.jpg","Q.jpg","0","1","0","",""
"","feedback","","html-keyboard-response","309","95625","0.0-1.0-501.0-0.0","0","0","11942","","null","","","null","55","","","","","","","","","","","","","","","",""
"","time_out","","html-keyboard-response","310","95728","0.0-1.0-503.0-0.0","0","0","11942","","null","","","null","55","","","","","","","","","","","","","","","",""
"","ITI","","html-keyboard-response","311","96232","0.0-1.0-504.0","0","0","11942","","181","","","75","55","","","","","","","","","","","","","","","k",""
"","S1","","html-keyboard-response","312","96492","0.0-1.0-506.0","0","0","11942","","null","","","null","56","","","","","","","","","","","","","","","",""
"","ISI","","html-keyboard-response","313","96603","0.0-1.0-507.0","0","0","11942","","20","","","75","56","k","","","","","","","","","","","","","","",""
"","S2","","html-keyboard-response","314","96711","0.0-1.0-508.0","0","0","11942","","106","","","75","56","","k","4","56","test","non_adjacent","CA","3","1","L.jpg","N.jpg","0","0","1","",""
"","feedback","","html-keyboard-response","315","96816","0.0-1.0-510.0-0.0","0","0","11942","","null","","","null","56","","","","","","","","","","","","","","","",""
"","ITI","","html-keyboard-response","316","97322","0.0-1.0-513.0","0","0","11942","","86","","","75","56","","","","","","","","","","","","","","","k",""
"","block_over","","html-keyboard-response","317","98279","0.0-1.0-514.0-0.0","0","0","11942","","956","","","32","56","","","","","","","","","","","","","","","",""
"","S1","","html-keyboard-response","318","98538","0.0-1.0-515.0","0","0","11942","","null","","","null","57","","","","","","","","","","","","","","","",""
"","ISI","","html-keyboard-response","319","98650","0.0-1.0-516.0","0","0","11942","","50","","","75","57","k","","","","","","","","","","","","","","",""
"","S2","","html-keyboard-response","320","98772","0.0-1.0-517.0","0","0","11942","","120","","","75","57","","k","5","57","test","non_adjacent","EG","5","7","M.jpg","P.jpg","0","1","0","",""
"","feedback","","html-keyboard-response","321","98880","0.0-1.0-519.0-0.0","0","0","11942","","null","","","null","57","","","","","","","","","","","","","","","",""
"","time_out","","html-keyboard-response","322","98987","0.0-1.0-521.0-0.0","0","0","11942","","null","","","null","57","","","","","","","","","","","","","","","",""
"","ITI","","html-keyboard-response","323","99495","0.0-1.0-522.0","0","0","11942","","187","","","75","57","","","","","","","","","","","","","","","k",""
"","S1","","html-keyboard-response","324","99756","0.0-1.0-524.0","0","0","11942","","null","","","null","58","","","","","","","","","","","","","","","",""
"","ISI","","html-keyboard-response","325","99865","0.0-1.0-525.0","0","0","11942","","21","","","75","58","k","","","","","","","","","","","","","","",""
"","S2","","html-keyboard-response","326","99950","0.0-1.0-526.0","0","0","11942","","82","","","75","58","","k","5","58","test","non_adjacent","GE","7","5","P.jpg","M.jpg","0","0","1","",""
"","feedback","","html-keyboard-response","327","100056","0.0-1.0-528.0-0.0","0","0","11942","","null","","","null","58","","","","","","","","","","","","","","","",""
"","ITI","","html-keyboard-response","328","100557","0.0-1.0-531.0","0","0","11942","","87","","","75","58","","","","","","","","","","","","","","","k",""
"","S1","","html-keyboard-response","329","100816","0.0-1.0-533.0","0","0","11942","","null","","","null","59","","","","","","","","","","","","","","","",""
"","ISI","","html-keyboard-response","330","100923","0.0-1.0-534.0","0","0","11942","","null","","","null","59","NaN","","","","","","","","","","","","","","",""
"","S2","","html-keyboard-response","331","100964","0.0-1.0-535.0","0","0","11942","","39","","","75","59","","k","5","59","test","non_adjacent","BE","2","5","O.jpg","M.jpg","0","1","0","",""
"","feedback","","html-keyboard-response","332","101068","0.0-1.0-537.0-0.0","0","0","11942","","null","","","null","59","","","","","","","","","","","","","","","",""
"","time_out","","html-keyboard-response","333","101179","0.0-1.0-539.0-0.0","0","0","11942","","null","","","null","59","","","","","","","","","","","","","","","",""
"","ITI","","html-keyboard-response","334","101687","0.0-1.0-540.0","0","0","11942","","4","","","75","59","","","","","","","","","","","","","","","k",""
"","S1","","html-keyboard-response","335","101945","0.0-1.0-542.0","0","0","11942","","null","","","null","60","","","","","","","","","","","","","","","",""
"","ISI","","html-keyboard-response","336","102048","0.0-1.0-543.0","0","0","11942","","65","","","75","60","k","","","","","","","","","","","","","","",""
"","S2","","html-keyboard-response","337","102212","0.0-1.0-544.0","0","0","11942","","162","","","75","60","","k","5","60","test","adjacent","DE","4","5","Q.jpg","M.jpg","0","1","0","",""
"","feedback","","html-keyboard-response","338","102318","0.0-1.0-546.0-0.0","0","0","11942","","null","","","null","60","","","","","","","","","","","","","","","",""
"","time_out","","html-keyboard-response","339","102424","0.0-1.0-548.0-0.0","0","0","11942","","null","","","null","60","","","","","","","","","","","","","","","",""
"","ITI","","html-keyboard-response","340","102930","0.0-1.0-549.0","0","0","11942","","199","","","75","60","","","","","","","","","","","","","","","k",""
"","S1","","html-keyboard-response","341","103187","0.0-1.0-551.0","0","0","11942","","null","","","null","61","","","","","","","","","","","","","","","",""
"","ISI","","html-keyboard-response","342","103295","0.0-1.0-552.0","0","0","11942","","85","","","75","61","k","","","","","","","","","","","","","","",""
"","S2","","html-keyboard-response","343","103501","0.0-1.0-553.0","0","0","11942","","204","","","75","61","","k","5","61","test","non_adjacent","AF","1","6","N.jpg","R.jpg","0","1","0","",""
"","feedback","","html-keyboard-response","344","103612","0.0-1.0-555.0-0.0","0","0","11942","","null","","","null","61","","","","","","","","","","","","","","","",""
"","time_out","","html-keyboard-response","345","103722","0.0-1.0-557.0-0.0","0","0","11942","","null","","","null","61","","","","","","","","","","","","","","","",""
"","ITI","","html-keyboard-response","346","104236","0.0-1.0-558.0","0","0","11942","","7","","","75","61","","","","","","","","","","","","","","","k",""
"","S1","","html-keyboard-response","347","104496","0.0-1.0-560.0","0","0","11942","","null","","","null","62","","","","","","","","","","","","","","","",""
"","ISI","","html-keyboard-response","348","104604","0.0-1.0-561.0","0","0","11942","","62","","","75","62","k","","","","","","","","","","","","","","",""
"","S2","","html-keyboard-response","349","104754","0.0-1.0-562.0","0","0","11942","","149","","","75","62","","k","5","62","test","non_adjacent","CF","3","6","L.jpg","R.jpg","0","1","0","",""
"","feedback","","html-keyboard-response","350","104860","0.0-1.0-564.0-0.0","0","0","11942","","null","","","null","62","","","","","","","","","","","","","","","",""
"","time_out","","html-keyboard-response","351","104967","0.0-1.0-566.0-0.0","0","0","11942","","null","","","null","62","","","","","","","","","","","","","","","",""
"","ITI","","html-keyboard-response","352","105474","0.0-1.0-567.0","0","0","11942","","3","","","75","62","","","","","","","","","","","","","","","k",""
"","S1","","html-keyboard-response","353","105728","0.0-1.0-569.0","0","0","11942","","null","","","null","63","","","","","","","","","","","","","","","",""
"","ISI","","html-keyboard-response","354","105836","0.0-1.0-570.0","0","0","11942","","94","","","75","63","k","","","","","","","","","","","","","","",""
"","S2","","html-keyboard-response","355","106018","0.0-1.0-571.0","0","0","11942","","180","","","75","63","","k","5","63","test","non_adjacent","CG","3","7","L.jpg","P.jpg","0","1","0","",""
"","feedback","","html-keyboard-response","356","106121","0.0-1.0-573.0-0.0","0","0","11942","","null","","","null","63","","","","","","","","","","","","","","","",""
"","time_out","","html-keyboard-response","357","106225","0.0-1.0-575.0-0.0","0","0","11942","","null","","","null","63","","","","","","","","","","","","","","","",""
"","ITI","","html-keyboard-response","358","106728","0.0-1.0-576.0","0","0","11942","","269","","","75","63","","","","","","","","","","","","","","","k",""
"","S1","","html-keyboard-response","359","106988","0.0-1.0-578.0","0","0","11942","","null","","","null","64","","","","","","","","","","","","","","","",""
"","ISI","","html-keyboard-response","360","107097","0.0-1.0-579.0","0","0","11942","","85","","","75","64","k","","","","","","","","","","","","","","",""
"","S2","","html-keyboard-response","361","107259","0.0-1.0-580.0","0","0","11942","","161","","","75","64","","k","5","64","test","non_adjacent","BG","2","7","O.jpg","P.jpg","0","1","0","",""
"","feedback","","html-keyboard-response","362","107368","0.0-1.0-582.0-0.0","0","0","11942","","null","","","null","64","","","","","","","","","","","","","","","",""
"","time_out","","html-keyboard-response","363","107471","0.0-1.0-584.0-0.0","0","0","11942","","null","","","null","64","","","","","","","","","","","","","","","",""
"","ITI","","html-keyboard-response","364","107979","0.0-1.0-585.0","0","0","11942","","149","","","75","64","","","","","","","","","","","","","","","k",""
"","S1","","html-keyboard-response","365","108239","0.0-1.0-587.0","0","0","11942","","null","","","null","65","","","","","","","","","","","","","","","",""
"","ISI","","html-keyboard-response","366","108345","0.0-1.0-588.0","0","0","11942","","2","","","75","65","k","","","","","","","","","","","","","","",""
"","S2","","html-keyboard-response","367","108430","0.0-1.0-589.0","0","0","11942","","84","","","75","65","","k","5","65","test","non_adjacent","AG","1","7","N.jpg","P.jpg","0","1","0","",""
"","feedback","","html-keyboard-response","368","108539","0.0-1.0-591.0-0.0","0","0","11942","","null","","","null","65","","","","","","","","","","","","","","","",""
"","time_out","","html-keyboard-response","369","108650","0.0-1.0-593.0-0.0","0","0","11942","","null","","","null","65","","","","","","","","","","","","","","","",""
"","ITI","","html-keyboard-response","370","109162","0.0-1.0-594.0","0","0","11942","","172","","","75","65","","","","","","","","","","","","","","","k",""
"","S1","","html-keyboard-response","371","109419","0.0-1.0-596.0","0","0","11942","","null","","","null","66","","","","","","","","","","","","","","","",""
"","ISI","","html-keyboard-response","372","109528","0.0-1.0-597.0","0","0","11942","","null","","","null","66","NaN","","","","","","","","","","","","","","",""
"","S2","","html-keyboard-response","373","109613","0.0-1.0-598.0","0","0","11942","","84","","","75","66","","k","5","66","test","adjacent","GF","7","6","P.jpg","R.jpg","0","0","1","",""
"","feedback","","html-keyboard-response","374","109719","0.0-1.0-600.0-0.0","0","0","11942","","null","","","null","66","","","","","","","","","","","","","","","",""
"","ITI","","html-keyboard-response","375","110224","0.0-1.0-603.0","0","0","11942","","96","","","75","66","","","","","","","","","","","","","","","k",""
"","S1","","html-keyboard-response","376","110482","0.0-1.0-605.0","0","0","11942","","null","","","null","67","","","","","","","","","","","","","","","",""
"","ISI","","html-keyboard-response","377","110595","0.0-1.0-606.0","0","0","11942","","null","","","null","67","NaN","","","","","","","","","","","","","","",""
"","S2","","html-keyboard-response","378","110645","0.0-1.0-607.0","0","0","11942","","48","","","75","67","","k","5","67","test","non_adjacent","DF","4","6","Q.jpg","R.jpg","0","1","0","",""
"","feedback","","html-keyboard-response","379","110751","0.0-1.0-609.0-0.0","0","0","11942","","null","","","null","67","","","","","","","","","","","","","","","",""
"","time_out","","html-keyboard-response","380","110857","0.0-1.0-611.0-0.0","0","0","11942","","null","","","null","67","","","","","","","","","","","","","","","",""
"","ITI","","html-keyboard-response","381","111364","0.0-1.0-612.0","0","0","11942","","7","","","75","67","","","","","","","","","","","","","","","k",""
"","S1","","html-keyboard-response","382","111628","0.0-1.0-614.0","0","0","11942","","null","","","null","68","","","","","","","","","","","","","","","",""
"","ISI","","html-keyboard-response","383","111737","0.0-1.0-615.0","0","0","11942","","52","","","75","68","k","","","","","","","","","","","","","","",""
"","S2","","html-keyboard-response","384","111873","0.0-1.0-616.0","0","0","11942","","135","","","75","68","","k","5","68","test","adjacent","ED","5","4","M.jpg","Q.jpg","0","0","1","",""
"","feedback","","html-keyboard-response","385","111977","0.0-1.0-618.0-0.0","0","0","11942","","null","","","null","68","","","","","","","","","","","","","","","",""
"","ITI","","html-keyboard-response","386","112483","0.0-1.0-621.0","0","0","11942","","92","","","75","68","","","","","","","","","","","","","","","k",""
"","S1","","html-keyboard-response","387","112745","0.0-1.0-623.0","0","0","11942","","null","","","null","69","","","","","","","","","","","","","","","",""
"","ISI","","html-keyboard-response","388","112852","0.0-1.0-624.0","0","0","11942","","null","","","null","69","NaN","","","","","","","","","","","","","","",""
"","S2","","html-keyboard-response","389","112911","0.0-1.0-625.0","0","0","11942","","57","","","75","69","","k","5","69","test","adjacent","FG","6","7","R.jpg","P.jpg","0","1","0","",""
"","feedback","","html-keyboard-response","390","113016","0.0-1.0-627.0-0.0","0","0","11942","","null","","","null","69","","","","","","","","","","","","","","","",""
"","time_out","","html-keyboard-response","391","113121","0.0-1.0-629.0-0.0","0","0","11942","","null","","","null","69","","","","","","","","","","","","","","","",""
"","ITI","","html-keyboard-response","392","113624","0.0-1.0-630.0","0","0","11942","","199","","","75","69","","","","","","","","","","","","","","","k",""
"","S1","","html-keyboard-response","393","113880","0.0-1.0-632.0","0","0","11942","","null","","","null","70","","","","","","","","","","","","","","","",""
"","ISI","","html-keyboard-response","394","113983","0.0-1.0-633.0","0","0","11942","","58","","","75","70","k","","","","","","","","","","","","","","",""
"","S2","","html-keyboard-response","395","114138","0.0-1.0-634.0","0","0","11942","","153","","","75","70","","k","5","70","test","non_adjacent","AE","1","5","N.jpg","M.jpg","0","1","0","",""
"","feedback","","html-keyboard-response","396","114242","0.0-1.0-636.0-0.0","0","0","11942","","null","","","null","70","","","","","","","","","","","","","","","",""
"","time_out","","html-keyboard-response","397","114356","0.0-1.0-638.0-0.0","0","0","11942","","null","","","null","70","","","","","","","","","","","","","","","",""
"","ITI","","html-keyboard-response","398","114870","0.0-1.0-639.0","0","0","11942","","162","","","75","70","","","","","","","","","","","","","","","k",""
"","S1","","html-keyboard-response","399","115129","0.0-1.0-641.0","0","0","11942","","null","","","null","71","","","","","","","","","","","","","","","",""
"","ISI","","html-keyboard-response","400","115235","0.0-1.0-642.0","0","0","11942","","null","","","null","71","NaN","","","","","","","","","","","","","","",""
"","S2","","html-keyboard-response","401","115324","0.0-1.0-643.0","0","0","11942","","87","","","75","71","","k","5","71","test","non_adjacent","GD","7","4","P.jpg","Q.jpg","0","0","1","",""
"","feedback","","html-keyboard-response","402","115433","0.0-1.0-645.0-0.0","0","0","11942","","null","","","null","71","","","","","","","","","","","","","","","",""
"","ITI","","html-keyboard-response","403","115940","0.0-1.0-648.0","0","0","11942","","78","","","75","71","","","","","","","","","","","","","","","k",""
"","S1","","html-keyboard-response","404","116203","0.0-1.0-650.0","0","0","11942","","null","","","null","72","","","","","","","","","","","","","","","",""
"","ISI","","html-keyboard-response","405","116311","0.0-1.0-651.0","0","0","11942","","null","","","null","72","NaN","","","","","","","","","","","","","","",""
"","S2","","html-keyboard-response","406","116313","0.0-1.0-652.0","0","0","11942","","1","","","75","72","","k","5","72","test","non_adjacent","BF","2","6","O.jpg","R.jpg","0","1","0","",""
"","feedback","","html-keyboard-response","407","116415","0.0-1.0-654.0-0.0","0","0","11942","","null","","","null","72","","","","","","","","","","","","","","","",""
"","time_out","","html-keyboard-response","408","116519","0.0-1.0-656.0-0.0","0","0","11942","","null","","","null","72","","","","","","","","","","","","","","","",""
"","ITI","","html-keyboard-response","409","117028","0.0-1.0-657.0","0","0","11942","","1","","","75","72","","","","","","","","","","","","","","","k",""
"","S1","","html-keyboard-response","410","117287","0.0-1.0-659.0","0","0","11942","","null","","","null","73","","","","","","","","","","","","","","","",""
"","ISI","","html-keyboard-response","411","117395","0.0-1.0-660.0","0","0","11942","","63","","","75","73","k","","","","","","","","","","","","","","",""
"","S2","","html-keyboard-response","412","117548","0.0-1.0-661.0","0","0","11942","","151","","","75","73","","k","5","73","test","non_adjacent","DG","4","7","Q.jpg","P.jpg","0","1","0","",""
"","feedback","","html-keyboard-response","413","117656","0.0-1.0-663.0-0.0","0","0","11942","","null","","","null","73","","","","","","","","","","","","","","","",""
"","time_out","","html-keyboard-response","414","117760","0.0-1.0-665.0-0.0","0","0","11942","","null","","","null","73","","","","","","","","","","","","","","","",""
"","ITI","","html-keyboard-response","415","118264","0.0-1.0-666.0","0","0","11942","","209","","","75","73","","","","","","","","","","","","","","","k",""
"","S1","","html-keyboard-response","416","118524","0.0-1.0-668.0","0","0","11942","","null","","","null","74","","","","","","","","","","","","","","","",""
"","ISI","","html-keyboard-response","417","118634","0.0-1.0-669.0","0","0","11942","","22","","","75","74","k","","","","","","","","","","","","","","",""
"","S2","","html-keyboard-response","418","118740","0.0-1.0-670.0","0","0","11942","","105","","","75","74","","k","5","74","test","adjacent","FE","6","5","R.jpg","M.jpg","0","0","1","",""
"","feedback","","html-keyboard-response","419","118849","0.0-1.0-672.0-0.0","0","0","11942","","null","","","null","74","","","","","","","","","","","","","","","",""
"","ITI","","html-keyboard-response","420","119351","0.0-1.0-675.0","0","0","11942","","100","","","75","74","","","","","","","","","","","","","","","k",""
"","S1","","html-keyboard-response","421","119612","0.0-1.0-677.0","0","0","11942","","null","","","null","75","","","","","","","","","","","","","","","",""
"","ISI","","html-keyboard-response","422","119719","0.0-1.0-678.0","0","0","11942","","null","","","null","75","NaN","","","","","","","","","","","","","","",""
"","S2","","html-keyboard-response","423","119746","0.0-1.0-679.0","0","0","11942","","26","","","75","75","","k","5","75","test","non_adjacent","FD","6","4","R.jpg","Q.jpg","0","0","1","",""
"","feedback","","html-keyboard-response","424","119858","0.0-1.0-681.0-0.0","0","0","11942","","null","","","null","75","","","","","","","","","","","","","","","",""
"","ITI","","html-keyboard-response","425","120370","0.0-1.0-684.0","0","0","11942","","87","","","75","75","","","","","","","","","","","","","","","k",""
"","S1","","html-keyboard-response","426","120624","0.0-1.0-686.0","0","0","11942","","null","","","null","76","","","","","","","","","","","","","","","",""
"","ISI","","html-keyboard-response","427","120728","0.0-1.0-687.0","0","0","11942","","null","","","null","76","NaN","","","","","","","","","","","","","","",""
"","S2","","html-keyboard-response","428","120741","0.0-1.0-688.0","0","0","11942","","10","","","75","76","","k","5","76","test","adjacent","EF","5","6","M.jpg","R.jpg","0","1","0","",""
"","feedback","","html-keyboard-response","429","120851","0.0-1.0-690.0-0.0","0","0","11942","","null","","","null","76","","","","","","","","","","","","","","","",""
"","time_out","","html-keyboard-response","430","120963","0.0-1.0-692.0-0.0","0","0","11942","","null","","","null","76","","","","","","","","","","","","","","","",""
"","ITI","","html-keyboard-response","431","121473","0.0-1.0-693.0","0","0","11942","","158","","","75","76","","","","","","","","","","","","","","","k",""
"","S1","","html-keyboard-response","432","121729","0.0-1.0-695.0","0","0","11942","","null","","","null","77","","","","","","","","","","","","","","","",""
"","ISI","","html-keyboard-response","433","121834","0.0-1.0-696.0","0","0","11942","","null","","","null","77","NaN","","","","","","","","","","","","","","",""
"","S2","","html-keyboard-response","434","121921","0.0-1.0-697.0","0","0","11942","","85","","","75","77","","k","5","77","test","non_adjacent","CE","3","5","L.jpg","M.jpg","0","1","0","",""
"","feedback","","html-keyboard-response","435","122027","0.0-1.0-699.0-0.0","0","0","11942","","null","","","null","77","","","","","","","","","","","","","","","",""
"","time_out","","html-keyboard-response","436","122129","0.0-1.0-701.0-0.0","0","0","11942","","null","","","null","77","","","","","","","","","","","","","","","",""
"","ITI","","html-keyboard-response","437","122641","0.0-1.0-702.0","0","0","11942","","4","","","75","77","","","","","","","","","","","","","","","k",""
"","block_over","","html-keyboard-response","438","177877","0.0-1.0-703.0-0.0","0","0","11942","","55234","","","32","77","","","","","","","","","","","","","","","",""
"","S1","","html-keyboard-response","439","178140","0.0-1.0-704.0","0","0","11942","","null","","","null","78","","","","","","","","","","","","","","","",""
"","ISI","","html-keyboard-response","440","178250","0.0-1.0-705.0","0","0","11942","","null","","","null","78","NaN","","","","","","","","","","","","","","",""
"","S2","","html-keyboard-response","441","178504","0.0-1.0-706.0","0","0","11942","","null","","","null","78","","NaN","","","","","","","","","","","","","",""
"","response","","html-keyboard-response","442","179012","0.0-1.0-707.0-0.0","0","0","11942","","null","","","null","78","","","6","78","test","non_adjacent","EC","5","3","M.jpg","L.jpg","NaN","0","0","",""
"","too_slow_prompt","","html-keyboard-response","443","180018","0.0-1.0-709.0-0.0","1","0","11942","","null","","","null","","","","","","","","","","","","","","","","",""
"","time_out","","html-keyboard-response","444","180127","0.0-1.0-710.0-0.0","0","0","11942","","null","","","null","78","","","","","","","","","","","","","","","",""
"","ITI","","html-keyboard-response","445","180632","0.0-1.0-711.0","0","0","11942","","190","","","75","78","","","","","","","","","","","","","","","k",""
"","S1","","html-keyboard-response","446","180887","0.0-1.0-713.0","0","0","11942","","null","","","null","79","","","","","","","","","","","","","","","",""
"","ISI","","html-keyboard-response","447","180995","0.0-1.0-714.0","0","0","11942","","null","","","null","79","NaN","","","","","","","","","","","","","","",""
"","S2","","html-keyboard-response","448","181256","0.0-1.0-715.0","0","0","11942","","null","","","null","79","","NaN","","","","","","","","","","","","","",""
"","response","","html-keyboard-response","449","181764","0.0-1.0-716.0-0.0","0","0","11942","","null","","","null","79","","","6","79","test","non_adjacent","FA","6","1","R.jpg","N.jpg","NaN","0","0","",""
"","too_slow_prompt","","html-keyboard-response","450","182769","0.0-1.0-718.0-0.0","1","0","11942","","null","","","null","","","","","","","","","","","","","","","","",""
"","time_out","","html-keyboard-response","451","182881","0.0-1.0-719.0-0.0","0","0","11942","","null","","","null","79","","","","","","","","","","","","","","","",""
"","ITI","","html-keyboard-response","452","183384","0.0-1.0-720.0","0","0","11942","","114","","","75","79","","","","","","","","","","","","","","","k",""
"","S1","","html-keyboard-response","453","183642","0.0-1.0-722.0","0","0","11942","","null","","","null","80","","","","","","","","","","","","","","","",""
"","ISI","","html-keyboard-response","454","183756","0.0-1.0-723.0","0","0","11942","","57","","","75","80","k","","","","","","","","","","","","","","",""
"","S2","","html-keyboard-response","455","183889","0.0-1.0-724.0","0","0","11942","","131","","","75","80","","k","6","80","test","adjacent","AB","1","2","N.jpg","O.jpg","0","1","0","",""
"","feedback","","html-keyboard-response","456","183995","0.0-1.0-726.0-0.0","0","0","11942","","null","","","null","80","","","","","","","","","","","","","","","",""
"","time_out","","html-keyboard-response","457","184104","0.0-1.0-728.0-0.0","0","0","11942","","null","","","null","80","","","","","","","","","","","","","","","",""
"","ITI","","html-keyboard-response","458","184611","0.0-1.0-729.0","0","0","11942","","133","","","75","80","","","","","","","","","","","","","","","k",""
"","S1","","html-keyboard-response","459","184871","0.0-1.0-731.0","0","0","11942","","null","","","null","81","","","","","","","","","","","","","","","",""
"","ISI","","html-keyboard-response","460","184978","0.0-1.0-732.0","0","0","11942","","null","","","null","81","NaN","","","","","","","","","","","","","","",""
"","S2","","html-keyboard-response","461","184992","0.0-1.0-733.0","0","0","11942","","12","","","75","81","","k","6","81","test","non_adjacent","GA","7","1","P.jpg","N.jpg","0","0","1","",""
"","feedback","","html-keyboard-response","462","185095","0.0-1.0-735.0-0.0","0","0","11942","","null","","","null","81","","","","","","","","","","","","","","","",""
"","ITI","","html-keyboard-response","463","185603","0.0-1.0-738.0","0","0","11942","","88","","","75","81","","","","","","","","","","","","","","","k",""
"","S1","","html-keyboard-response","464","185864","0.0-1.0-740.0","0","0","11942","","null","","","null","82","","","","","","","","","","","","","","","",""
"","ISI","","html-keyboard-response","465","185970","0.0-1.0-741.0","0","0","11942","","63","","","75","82","k","","","","","","","","","","","","","","",""
"","S2","","html-keyboard-response","466","186111","0.0-1.0-742.0","0","0","11942","","138","","","75","82","","k","6","82","test","non_adjacent","EA","5","1","M.jpg","N.jpg","0","0","1","",""
"","feedback","","html-keyboard-response","467","186219","0.0-1.0-744.0-0.0","0","0","11942","","null","","","null","82","","","","","","","","","","","","","","","",""
"","ITI","","html-keyboard-response","468","186728","0.0-1.0-747.0","0","0","11942","","67","","","75","82","","","","","","","","","","","","","","","k",""
"","S1","","html-keyboard-response","469","186987","0.0-1.0-749.0","0","0","11942","","null","","","null","83","","","","","","","","","","","","","","","",""
"","ISI","","html-keyboard-response","470","187096","0.0-1.0-750.0","0","0","11942","","31","","","75","83","k","","","","","","","","","","","","","","",""
"","S2","","html-keyboard-response","471","187198","0.0-1.0-751.0","0","0","11942","","100","","","75","83","","k","6","83","test","adjacent","CD","3","4","L.jpg","Q.jpg","0","1","0","",""
"","feedback","","html-keyboard-response","472","187306","0.0-1.0-753.0-0.0","0","0","11942","","null","","","null","83","","","","","","","","","","","","","","","",""
"","time_out","","html-keyboard-response","473","187416","0.0-1.0-755.0-0.0","0","0","11942","","null","","","null","83","","","","","","","","","","","","","","","",""
"","ITI","","html-keyboard-response","474","187918","0.0-1.0-756.0","0","0","11942","","138","","","75","83","","","","","","","","","","","","","","","k",""
"","S1","","html-keyboard-response","475","188180","0.0-1.0-758.0","0","0","11942","","null","","","null","84","","","","","","","","","","","","","","","",""
"","ISI","","html-keyboard-response","476","188283","0.0-1.0-759.0","0","0","11942","","101","","","75","84","k","","","","","","","","","","","","","","",""
"","S2","","html-keyboard-response","477","188465","0.0-1.0-760.0","0","0","11942","","180","","","75","84","","k","6","84","test","non_adjacent","DB","4","2","Q.jpg","O.jpg","0","0","1","",""
"","feedback","","html-keyboard-response","478","188569","0.0-1.0-762.0-0.0","0","0","11942","","null","","","null","84","","","","","","","","","","","","","","","",""
"","ITI","","html-keyboard-response","479","189071","0.0-1.0-765.0","0","0","11942","","72","","","75","84","","","","","","","","","","","","","","","k",""
"","S1","","html-keyboard-response","480","189328","0.0-1.0-767.0","0","0","11942","","null","","","null","85","","","","","","","","","","","","","","","",""
"","ISI","","html-keyboard-response","481","189433","0.0-1.0-768.0","0","0","11942","","60","","","75","85","k","","","","","","","","","","","","","","",""
"","S2","","html-keyboard-response","482","189579","0.0-1.0-769.0","0","0","11942","","144","","","75","85","","k","6","85","test","adjacent","BC","2","3","O.jpg","L.jpg","0","1","0","",""
"","feedback","","html-keyboard-response","483","189687","0.0-1.0-771.0-0.0","0","0","11942","","null","","","null","85","","","","","","","","","","","","","","","",""
"","time_out","","html-keyboard-response","484","189795","0.0-1.0-773.0-0.0","0","0","11942","","null","","","null","85","","","","","","","","","","","","","","","",""
"","ITI","","html-keyboard-response","485","190306","0.0-1.0-774.0","0","0","11942","","160","","","75","85","","","","","","","","","","","","","","","k",""
"","S1","","html-keyboard-response","486","190562","0.0-1.0-776.0","0","0","11942","","null","","","null","86","","","","","","","","","","","","","","","",""
"","ISI","","html-keyboard-response","487","190674","0.0-1.0-777.0","0","0","11942","","null","","","null","86","NaN","","","","","","","","","","","","","","",""
"","S2","","html-keyboard-response","488","190757","0.0-1.0-778.0","0","0","11942","","81","","","75","86","","k","6","86","test","non_adjacent","CA","3","1","L.jpg","N.jpg","0","0","1","",""
"","feedback","","html-keyboard-response","489","190867","0.0-1.0-780.0-0.0","0","0","11942","","null","","","null","86","","","","","","","","","","","","","","","",""
"","ITI","","html-keyboard-response","490","191376","0.0-1.0-783.0","0","0","11942","","82","","","75","86","","","","","","","","","","","","","","","k",""
"","S1","","html-keyboard-response","491","191632","0.0-1.0-785.0","0","0","11942","","null","","","null","87","","","","","","","","","","","","","","","",""
"","ISI","","html-keyboard-response","492","191740","0.0-1.0-786.0","0","0","11942","","null","","","null","87","NaN","","","","","","","","","","","","","","",""
"","S2","","html-keyboard-response","493","191748","0.0-1.0-787.0","0","0","11942","","7","","","75","87","","k","6","87","test","non_adjacent","AC","1","3","N.jpg","L.jpg","0","1","0","",""
"","feedback","","html-keyboard-response","494","191852","0.0-1.0-789.0-0.0","0","0","11942","","null","","","null","87","","","","","","","","","","","","","","","",""
"","time_out","","html-keyboard-response","495","191957","0.0-1.0-791.0-0.0","0","0","11942","","null","","","null","87","","","","","","","","","","","","","","","",""
"","ITI","","html-keyboard-response","496","192463","0.0-1.0-792.0","0","0","11942","","200","","","75","87","","","","","","","","","","","","","","","k",""
"","S1","","html-keyboard-response","497","192723","0.0-1.0-794.0","0","0","11942","","null","","","null","88","","","","","","","","","","","","","","","",""
"","ISI","","html-keyboard-response","498","192832","0.0-1.0-795.0","0","0","11942","","32","","","75","88","k","","","","","","","","","","","","","","",""
"","S2","","html-keyboard-response","499","192966","0.0-1.0-796.0","0","0","11942","","132","","","75","88","","k","6","88","test","adjacent","DC","4","3","Q.jpg","L.jpg","0","0","1","",""
"","feedback","","html-keyboard-response","500","193071","0.0-1.0-798.0-0.0","0","0","11942","","null","","","null","88","","","","","","","","","","","","","","","",""
"","ITI","","html-keyboard-response","501","193576","0.0-1.0-801.0","0","0","11942","","87","","","75","88","","","","","","","","","","","","","","","k",""
"","S1","","html-keyboard-response","502","193831","0.0-1.0-803.0","0","0","11942","","null","","","null","89","","","","","","","","","","","","","","","",""
"","ISI","","html-keyboard-response","503","193936","0.0-1.0-804.0","0","0","11942","","null","","","null","89","NaN","","","","","","","","","","","","","","",""
"","S2","","html-keyboard-response","504","193996","0.0-1.0-805.0","0","0","11942","","58","","","75","89","","k","6","89","test","non_adjacent","FB","6","2","R.jpg","O.jpg","0","0","1","",""
"","feedback","","html-keyboard-response","505","194104","0.0-1.0-807.0-0.0","0","0","11942","","null","","","null","89","","","","","","","","","","","","","","","",""
"","ITI","","html-keyboard-response","506","194607","0.0-1.0-810.0","0","0","11942","","78","","","75","89","","","","","","","","","","","","","","","k",""
"","S1","","html-keyboard-response","507","194865","0.0-1.0-812.0","0","0","11942","","null","","","null","90","","","","","","","","","","","","","","","",""
"","ISI","","html-keyboard-response","508","194967","0.0-1.0-813.0","0","0","11942","","null","","","null","90","NaN","","","","","","","","","","","","","","",""
"","S2","","html-keyboard-response","509","195043","0.0-1.0-814.0","0","0","11942","","74","","","75","90","","k","6","90","test","non_adjacent","GB","7","2","P.jpg","O.jpg","0","0","1","",""
"","feedback","","html-keyboard-response","510","195153","0.0-1.0-816.0-0.0","0","0","11942","","null","","","null","90","","","","","","","","","","","","","","","",""
"","ITI","","html-keyboard-response","511","195664","0.0-1.0-819.0","0","0","11942","","74","","","75","90","","","","","","","","","","","","","","","k",""
"","S1","","html-keyboard-response","512","195920","0.0-1.0-821.0","0","0","11942","","null","","","null","91","","","","","","","","","","","","","","","",""
"","ISI","","html-keyboard-response","513","196023","0.0-1.0-822.0","0","0","11942","","66","","","75","91","k","","","","","","","","","","","","","","",""
"","S2","","html-keyboard-response","514","196177","0.0-1.0-823.0","0","0","11942","","152","","","75","91","","k","6","91","test","non_adjacent","BD","2","4","O.jpg","Q.jpg","0","1","0","",""
"","feedback","","html-keyboard-response","515","196279","0.0-1.0-825.0-0.0","0","0","11942","","null","","","null","91","","","","","","","","","","","","","","","",""
"","time_out","","html-keyboard-response","516","196383","0.0-1.0-827.0-0.0","0","0","11942","","null","","","null","91","","","","","","","","","","","","","","","",""
"","ITI","","html-keyboard-response","517","196888","0.0-1.0-828.0","0","0","11942","","166","","","75","91","","","","","","","","","","","","","","","k",""
"","S1","","html-keyboard-response","518","197143","0.0-1.0-830.0","0","0","11942","","null","","","null","92","","","","","","","","","","","","","","","",""
"","ISI","","html-keyboard-response","519","197252","0.0-1.0-831.0","0","0","11942","","null","","","null","92","NaN","","","","","","","","","","","","","","",""
"","S2","","html-keyboard-response","520","197305","0.0-1.0-832.0","0","0","11942","","51","","","75","92","","k","6","92","test","adjacent","BA","2","1","O.jpg","N.jpg","0","0","1","",""
"","feedback","","html-keyboard-response","521","197416","0.0-1.0-834.0-0.0","0","0","11942","","null","","","null","92","","","","","","","","","","","","","","","",""
"","ITI","","html-keyboard-response","522","197923","0.0-1.0-837.0","0","0","11942","","71","","","75","92","","","","","","","","","","","","","","","k",""
"","S1","","html-keyboard-response","523","198175","0.0-1.0-839.0","0","0","11942","","null","","","null","93","","","","","","","","","","","","","","","",""
"","ISI","","html-keyboard-response","524","198284","0.0-1.0-840.0","0","0","11942","","76","","","75","93","k","","","","","","","","","","","","","","",""
"","S2","","html-keyboard-response","525","198452","0.0-1.0-841.0","0","0","11942","","166","","","75","93","","k","6","93","test","non_adjacent","FC","6","3","R.jpg","L.jpg","0","0","1","",""
"","feedback","","html-keyboard-response","526","198560","0.0-1.0-843.0-0.0","0","0","11942","","null","","","null","93","","","","","","","","","","","","","","","",""
"","ITI","","html-keyboard-response","527","199063","0.0-1.0-846.0","0","0","11942","","72","","","75","93","","","","","","","","","","","","","","","k",""
"","S1","","html-keyboard-response","528","199324","0.0-1.0-848.0","0","0","11942","","null","","","null","94","","","","","","","","","","","","","","","",""
"","ISI","","html-keyboard-response","529","199431","0.0-1.0-849.0","0","0","11942","","null","","","null","94","NaN","","","","","","","","","","","","","","",""
"","S2","","html-keyboard-response","530","199438","0.0-1.0-850.0","0","0","11942","","6","","","75","94","","k","6","94","test","non_adjacent","DA","4","1","Q.jpg","N.jpg","0","0","1","",""
"","feedback","","html-keyboard-response","531","199545","0.0-1.0-852.0-0.0","0","0","11942","","null","","","null","94","","","","","","","","","","","","","","","",""
"","ITI","","html-keyboard-response","532","200056","0.0-1.0-855.0","0","0","11942","","94","","","75","94","","","","","","","","","","","","","","","k",""
"","S1","","html-keyboard-response","533","200314","0.0-1.0-857.0","0","0","11942","","null","","","null","95","","","","","","","","","","","","","","","",""
"","ISI","","html-keyboard-response","534","200419","0.0-1.0-858.0","0","0","11942","","null","","","null","95","NaN","","","","","","","","","","","","","","",""
"","S2","","html-keyboard-response","535","200481","0.0-1.0-859.0","0","0","11942","","61","","","75","95","","k","6","95","test","non_adjacent","GC","7","3","P.jpg","L.jpg","0","0","1","",""
"","feedback","","html-keyboard-response","536","200585","0.0-1.0-861.0-0.0","0","0","11942","","null","","","null","95","","","","","","","","","","","","","","","",""
"","ITI","","html-keyboard-response","537","201098","0.0-1.0-864.0","0","0","11942","","91","","","75","95","","","","","","","","","","","","","","","k",""
"","S1","","html-keyboard-response","538","201356","0.0-1.0-866.0","0","0","11942","","null","","","null","96","","","","","","","","","","","","","","","",""
"","ISI","","html-keyboard-response","539","201463","0.0-1.0-867.0","0","0","11942","","null","","","null","96","NaN","","","","","","","","","","","","","","",""
"","S2","","html-keyboard-response","540","201510","0.0-1.0-868.0","0","0","11942","","45","","","75","96","","k","6","96","test","non_adjacent","EB","5","2","M.jpg","O.jpg","0","0","1","",""
"","feedback","","html-keyboard-response","541","201615","0.0-1.0-870.0-0.0","0","0","11942","","null","","","null","96","","","","","","","","","","","","","","","",""
"","ITI","","html-keyboard-response","542","202120","0.0-1.0-873.0","0","0","11942","","110","","","75","96","","","","","","","","","","","","","","","k",""
"","S1","","html-keyboard-response","543","202380","0.0-1.0-875.0","0","0","11942","","null","","","null","97","","","","","","","","","","","","","","","",""
"","ISI","","html-keyboard-response","544","202490","0.0-1.0-876.0","0","0","11942","","null","","","null","97","NaN","","","","","","","","","","","","","","",""
"","S2","","html-keyboard-response","545","202538","0.0-1.0-877.0","0","0","11942","","46","","","75","97","","k","6","97","test","non_adjacent","AD","1","4","N.jpg","Q.jpg","0","1","0","",""
"","feedback","","html-keyboard-response","546","202646","0.0-1.0-879.0-0.0","0","0","11942","","null","","","null","97","","","","","","","","","","","","","","","",""
"","time_out","","html-keyboard-response","547","202752","0.0-1.0-881.0-0.0","0","0","11942","","null","","","null","97","","","","","","","","","","","","","","","",""
"","ITI","","html-keyboard-response","548","203256","0.0-1.0-882.0","0","0","11942","","179","","","75","97","","","","","","","","","","","","","","","k",""
"","S1","","html-keyboard-response","549","203516","0.0-1.0-884.0","0","0","11942","","null","","","null","98","","","","","","","","","","","","","","","",""
"","ISI","","html-keyboard-response","550","203628","0.0-1.0-885.0","0","0","11942","","46","","","75","98","k","","","","","","","","","","","","","","",""
"","S2","","html-keyboard-response","551","203763","0.0-1.0-886.0","0","0","11942","","133","","","75","98","","k","6","98","test","adjacent","CB","3","2","L.jpg","O.jpg","0","0","1","",""
"","feedback","","html-keyboard-response","552","203871","0.0-1.0-888.0-0.0","0","0","11942","","null","","","null","98","","","","","","","","","","","","","","","",""
"","ITI","","html-keyboard-response","553","204376","0.0-1.0-891.0","0","0","11942","","78","","","75","98","","","","","","","","","","","","","","","k",""
"","block_over","","html-keyboard-response","554","205407","0.0-1.0-892.0-0.0","0","0","11942","","1028","","","32","98","","","","","","","","","","","","","","","",""
"","S1","","html-keyboard-response","555","205665","0.0-1.0-893.0","0","0","11942","","null","","","null","99","","","","","","","","","","","","","","","",""
"","ISI","","html-keyboard-response","556","205770","0.0-1.0-894.0","0","0","11942","","null","","","null","99","NaN","","","","","","","","","","","","","","",""
"","S2","","html-keyboard-response","557","206025","0.0-1.0-895.0","0","0","11942","","null","","","null","99","","NaN","","","","","","","","","","","","","",""
"","response","","html-keyboard-response","558","206101","0.0-1.0-896.0-0.0","0","0","11942","","74","","","75","99","","","7","99","test","non_adjacent","CG","3","7","L.jpg","P.jpg","0","1","0","",""
"","feedback","","html-keyboard-response","559","206210","0.0-1.0-897.0-0.0","0","0","11942","","null","","","null","99","","","","","","","","","","","","","","","",""
"","time_out","","html-keyboard-response","560","206320","0.0-1.0-899.0-0.0","0","0","11942","","null","","","null","99","","","","","","","","","","","","","","","",""
"","ITI","","html-keyboard-response","561","206825","0.0-1.0-900.0","0","0","11942","","157","","","75","99","","","","","","","","","","","","","","","k",""
"","S1","","html-keyboard-response","562","207080","0.0-1.0-902.0","0","0","11942","","null","","","null","100","","","","","","","","","","","","","","","",""
"","ISI","","html-keyboard-response","563","207188","0.0-1.0-903.0","0","0","11942","","15","","","75","100","k","","","","","","","","","","","","","","",""
"","S2","","html-keyboard-response","564","207326","0.0-1.0-904.0","0","0","11942","","137","","","75","100","","k","7","100","test","non_adjacent","AF","1","6","N.jpg","R.jpg","0","1","0","",""
"","feedback","","html-keyboard-response","565","207434","0.0-1.0-906.0-0.0","0","0","11942","","null","","","null","100","","","","","","","","","","","","","","","",""
"","time_out","","html-keyboard-response","566","207545","0.0-1.0-908.0-0.0","0","0","11942","","null","","","null","100","","","","","","","","","","","","","","","",""
"","ITI","","html-keyboard-response","567","208051","0.0-1.0-909.0","0","0","11942","","166","","","75","100","","","","","","","","","","","","","","","k",""
"","S1","","html-keyboard-response","568","208312","0.0-1.0-911.0","0","0","11942","","null","","","null","101","","","","","","","","","","","","","","","",""
"","ISI","","html-keyboard-response","569","208414","0.0-1.0-912.0","0","0","11942","","null","","","null","101","NaN","","","","","","","","","","","","","","",""
"","S2","","html-keyboard-response","570","208505","0.0-1.0-913.0","0","0","11942","","89","","","75","101","","k","7","101","test","non_adjacent","BE","2","5","O.jpg","M.jpg","0","1","0","",""
"","feedback","","html-keyboard-response","571","208615","0.0-1.0-915.0-0.0","0","0","11942","","null","","","null","101","","","","","","","","","","","","","","","",""
"","time_out","","html-keyboard-response","572","208720","0.0-1.0-917.0-0.0","0","0","11942","","null","","","null","101","","","","","","","","","","","","","","","",""
"","ITI","","html-keyboard-response","573","209223","0.0-1.0-918.0","0","0","11942","","164","","","75","101","","","","","","","","","","","","","","","k",""
"","S1","","html-keyboard-response","574","209481","0.0-1.0-920.0","0","0","11942","","null","","","null","102","","","","","","","","","","","","","","","",""
"","ISI","","html-keyboard-response","575","209583","0.0-1.0-921.0","0","0","11942","","24","","","75","102","k","","","","","","","","","","","","","","",""
"","S2","","html-keyboard-response","576","209692","0.0-1.0-922.0","0","0","11942","","108","","","75","102","","k","7","102","test","non_adjacent","EG","5","7","M.jpg","P.jpg","0","1","0","",""
"","feedback","","html-keyboard-response","577","209797","0.0-1.0-924.0-0.0","0","0","11942","","null","","","null","102","","","","","","","","","","","","","","","",""
"","time_out","","html-keyboard-response","578","209908","0.0-1.0-926.0-0.0","0","0","11942","","null","","","null","102","","","","","","","","","","","","","","","",""
"","ITI","","html-keyboard-response","579","210411","0.0-1.0-927.0","0","0","11942","","194","","","75","102","","","","","","","","","","","","","","","k",""
"","S1","","html-keyboard-response","580","210672","0.0-1.0-929.0","0","0","11942","","null","","","null","103","","","","","","","","","","","","","","","",""
"","ISI","","html-keyboard-response","581","210779","0.0-1.0-930.0","0","0","11942","","34","","","75","103","k","","","","","","","","","","","","","","",""
"","S2","","html-keyboard-response","582","210920","0.0-1.0-931.0","0","0","11942","","139","","","75","103","","k","7","103","test","non_adjacent","DG","4","7","Q.jpg","P.jpg","0","1","0","",""
"","feedback","","html-keyboard-response","583","211028","0.0-1.0-933.0-0.0","0","0","11942","","null","","","null","103","","","","","","","","","","","","","","","",""
"","time_out","","html-keyboard-response","584","211137","0.0-1.0-935.0-0.0","0","0","11942","","null","","","null","103","","","","","","","","","","","","","","","",""
"","ITI","","html-keyboard-response","585","211638","0.0-1.0-936.0","0","0","11942","","157","","","75","103","","","","","","","","","","","","","","","k",""
"","S1","","html-keyboard-response","586","211895","0.0-1.0-938.0","0","0","11942","","null","","","null","104","","","","","","","","","","","","","","","",""
"","ISI","","html-keyboard-response","587","212000","0.0-1.0-939.0","0","0","11942","","1","","","75","104","k","","","","","","","","","","","","","","",""
"","S2","","html-keyboard-response","588","212081","0.0-1.0-940.0","0","0","11942","","79","","","75","104","","k","7","104","test","adjacent","DE","4","5","Q.jpg","M.jpg","0","1","0","",""
"","feedback","","html-keyboard-response","589","212195","0.0-1.0-942.0-0.0","0","0","11942","","null","","","null","104","","","","","","","","","","","","","","","",""
"","time_out","","html-keyboard-response","590","212306","0.0-1.0-944.0-0.0","0","0","11942","","null","","","null","104","","","","","","","","","","","","","","","",""
"","ITI","","html-keyboard-response","591","212815","0.0-1.0-945.0","0","0","11942","","134","","","75","104","","","","","","","","","","","","","","","k",""
