"success","ttype","start_time","trial_type","trial_index","time_elapsed","internal_node_id","warning","missed_checkup","PID","view_history","rt","responses","repeat_instructions","key_press","index","keypress_isi","keypress_S2","block","trial_num","phase","group_type","pair_type","S1_stim","S2_stim","S1_img","S2_img","S1_chosen","S1_higher","accuracy","keypress_iti","total_bonus_tally"
"true","full_screen","d03072023hr1745","fullscreen","0","12629","0.0-0.0","0","0","18765","","","","","","","","","","","","","","","","","","","","","",""
"","instructions","","instructions","1","53030","0.0-1.0-0.0-0.0","0","0","18765","[{""page_index"":0,""viewing_time"":5074},{""page_index"":1,""viewing_time"":24778},{""page_index"":2,""viewing_time"":7706},{""page_index"":3,""viewing_time"":2843}]","40401","","","","","","","","","","","","","","","","","","","",""
"","comprehension_check","","survey-multi-choice","2","81905","0.0-1.0-0.0-1.0","0","0","18765","","28872","{""Q0"":""True"",""Q1"":""K"",""Q2"":""Once the second image appears and while the screen 'MAKE A CHOICE' is shown"",""Q3"":""Green mark"",""Q4"":""either D or K""}","0","","","","","","","","","","","","","","","","","",""
"","start_exp","","html-keyboard-response","3","83863","0.0-1.0-1.0","0","0","18765","","1955","","","32","","","","","","","","","","","","","","","","",""
"","S1","","html-keyboard-response","4","84118","0.0-1.0-2.0","0","0","18765","","null","","","null","0","","","","","","","","","","","","","","","",""
"","ISI","","html-keyboard-response","5","85122","0.0-1.0-3.0","0","0","18765","","null","","","null","0","NaN","","","","","","","","","","","","","","",""
"","S2","","html-keyboard-response","6","85378","0.0-1.0-4.0","0","0","18765","","null","","","null","0","","NaN","","","","","","","","","","","","","",""
"","response","","html-keyboard-response","7","85816","0.0-1.0-5.0-0.0","0","0","18765","","436","","","68","0","","","1","0","training","adjacent","EF","5","6","M.jpg","O.jpg","0","1","0","",""
"","feedback","","html-keyboard-response","8","86818","0.0-1.0-6.0-0.0","0","0","18765","","null","","","null","0","","","","","","","","","","","","","","","",""
"","time_out","","html-keyboard-response","9","88823","0.0-1.0-8.0-0.0","0","0","18765","","null","","","null","0","","","","","","","","","","","","","","","",""
"","ITI","","html-keyboard-response","10","89825","0.0-1.0-9.0","0","0","18765","","null","","","null","0","","","","","","","","","","","","","","","NaN",""
"","S1","","html-keyboard-response","11","90078","0.0-1.0-11.0","0","0","18765","","null","","","null","1","","","","","","","","","","","","","","","",""
"","ISI","","html-keyboard-response","12","91080","0.0-1.0-12.0","0","0","18765","","null","","","null","1","NaN","","","","","","","","","","","","","","",""
"","S2","","html-keyboard-response","13","91334","0.0-1.0-13.0","0","0","18765","","null","","","null","1","","NaN","","","","","","","","","","","","","",""
"","response","","html-keyboard-response","14","91591","0.0-1.0-14.0-0.0","0","0","18765","","255","","","68","1","","","1","1","training","adjacent","FG","6","7","O.jpg","Q.jpg","0","1","0","",""
"","feedback","","html-keyboard-response","15","92594","0.0-1.0-15.0-0.0","0","0","18765","","null","","","null","1","","","","","","","","","","","","","","","",""
"","time_out","","html-keyboard-response","16","94596","0.0-1.0-17.0-0.0","0","0","18765","","null","","","null","1","","","","","","","","","","","","","","","",""
"","ITI","","html-keyboard-response","17","95599","0.0-1.0-18.0","0","0","18765","","null","","","null","1","","","","","","","","","","","","","","","NaN",""
"","S1","","html-keyboard-response","18","95861","0.0-1.0-20.0","0","0","18765","","null","","","null","2","","","","","","","","","","","","","","","",""
"","ISI","","html-keyboard-response","19","96865","0.0-1.0-21.0","0","0","18765","","null","","","null","2","NaN","","","","","","","","","","","","","","",""
"","S2","","html-keyboard-response","20","97118","0.0-1.0-22.0","0","0","18765","","null","","","null","2","","NaN","","","","","","","","","","","","","",""
"","response","","html-keyboard-response","21","97348","0.0-1.0-23.0-0.0","0","0","18765","","229","","","75","2","","","1","2","training","adjacent","DC","4","3","P.jpg","N.jpg","1","0","0","",""
"","feedback","","html-keyboard-response","22","98351","0.0-1.0-24.0-0.0","0","0","18765","","null","","","null","2","","","","","","","","","","","","","","","",""
"","time_out","","html-keyboard-response","23","100355","0.0-1.0-26.0-0.0","0","0","18765","","null","","","null","2","","","","","","","","","","","","","","","",""
"","ITI","","html-keyboard-response","24","101358","0.0-1.0-27.0","0","0","18765","","null","","","null","2","","","","","","","","","","","","","","","NaN",""
"","S1","","html-keyboard-response","25","101610","0.0-1.0-29.0","0","0","18765","","null","","","null","3","","","","","","","","","","","","","","","",""
"","ISI","","html-keyboard-response","26","102613","0.0-1.0-30.0","0","0","18765","","null","","","null","3","NaN","","","","","","","","","","","","","","",""
"","S2","","html-keyboard-response","27","102867","0.0-1.0-31.0","0","0","18765","","null","","","null","3","","NaN","","","","","","","","","","","","","",""
"","response","","html-keyboard-response","28","103059","0.0-1.0-32.0-0.0","0","0","18765","","191","","","75","3","","","1","3","training","adjacent","FE","6","5","O.jpg","M.jpg","1","0","0","",""
"","feedback","","html-keyboard-response","29","104069","0.0-1.0-33.0-0.0","0","0","18765","","null","","","null","3","","","","","","","","","","","","","","","",""
"","time_out","","html-keyboard-response","30","106073","0.0-1.0-35.0-0.0","0","0","18765","","null","","","null","3","","","","","","","","","","","","","","","",""
"","ITI","","html-keyboard-response","31","107076","0.0-1.0-36.0","0","0","18765","","null","","","null","3","","","","","","","","","","","","","","","NaN",""
"","S1","","html-keyboard-response","32","107329","0.0-1.0-38.0","0","0","18765","","null","","","null","4","","","","","","","","","","","","","","","",""
"","ISI","","html-keyboard-response","33","108332","0.0-1.0-39.0","0","0","18765","","null","","","null","4","NaN","","","","","","","","","","","","","","",""
"","S2","","html-keyboard-response","34","108585","0.0-1.0-40.0","0","0","18765","","null","","","null","4","","NaN","","","","","","","","","","","","","",""
"","response","","html-keyboard-response","35","108932","0.0-1.0-41.0-0.0","0","0","18765","","346","","","75","4","","","1","4","training","adjacent","ED","5","4","M.jpg","P.jpg","1","0","0","",""
"","feedback","","html-keyboard-response","36","109936","0.0-1.0-42.0-0.0","0","0","18765","","null","","","null","4","","","","","","","","","","","","","","","",""
"","time_out","","html-keyboard-response","37","111940","0.0-1.0-44.0-0.0","0","0","18765","","null","","","null","4","","","","","","","","","","","","","","","",""
"","ITI","","html-keyboard-response","38","112943","0.0-1.0-45.0","0","0","18765","","null","","","null","4","","","","","","","","","","","","","","","NaN",""
"","S1","","html-keyboard-response","39","113196","0.0-1.0-47.0","0","0","18765","","null","","","null","5","","","","","","","","","","","","","","","",""
"","ISI","","html-keyboard-response","40","114198","0.0-1.0-48.0","0","0","18765","","null","","","null","5","NaN","","","","","","","","","","","","","","",""
"","S2","","html-keyboard-response","41","114451","0.0-1.0-49.0","0","0","18765","","null","","","null","5","","NaN","","","","","","","","","","","","","",""
"","response","","html-keyboard-response","42","114683","0.0-1.0-50.0-0.0","0","0","18765","","230","","","68","5","","","1","5","training","adjacent","FG","6","7","O.jpg","Q.jpg","0","1","0","",""
"","feedback","","html-keyboard-response","43","115684","0.0-1.0-51.0-0.0","0","0","18765","","null","","","null","5","","","","","","","","","","","","","","","",""
"","time_out","","html-keyboard-response","44","117686","0.0-1.0-53.0-0.0","0","0","18765","","null","","","null","5","","","","","","","","","","","","","","","",""
"","ITI","","html-keyboard-response","45","118688","0.0-1.0-54.0","0","0","18765","","null","","","null","5","","","","","","","","","","","","","","","NaN",""
"","S1","","html-keyboard-response","46","118940","0.0-1.0-56.0","0","0","18765","","null","","","null","6","","","","","","","","","","","","","","","",""
"","ISI","","html-keyboard-response","47","119944","0.0-1.0-57.0","0","0","18765","","null","","","null","6","NaN","","","","","","","","","","","","","","",""
"","S2","","html-keyboard-response","48","120197","0.0-1.0-58.0","0","0","18765","","null","","","null","6","","NaN","","","","","","","","","","","","","",""
"","response","","html-keyboard-response","49","120454","0.0-1.0-59.0-0.0","0","0","18765","","256","","","75","6","","","1","6","training","adjacent","FG","6","7","O.jpg","Q.jpg","1","1","1","",""
"","feedback","","html-keyboard-response","50","121457","0.0-1.0-60.0-0.0","0","0","18765","","null","","","null","6","","","","","","","","","","","","","","","",""
"","ITI","","html-keyboard-response","51","122461","0.0-1.0-63.0","0","0","18765","","null","","","null","6","","","","","","","","","","","","","","","NaN",""
"","S1","","html-keyboard-response","52","122715","0.0-1.0-65.0","0","0","18765","","null","","","null","7","","","","","","","","","","","","","","","",""
"","ISI","","html-keyboard-response","53","123722","0.0-1.0-66.0","0","0","18765","","null","","","null","7","NaN","","","","","","","","","","","","","","",""
"","S2","","html-keyboard-response","54","123976","0.0-1.0-67.0","0","0","18765","","null","","","null","7","","NaN","","","","","","","","","","","","","",""
"","response","","html-keyboard-response","55","124455","0.0-1.0-68.0-0.0","0","0","18765","","477","","","75","7","","","1","7","training","adjacent","CB","3","2","N.jpg","R.jpg","1","0","0","",""
"","feedback","","html-keyboard-response","56","125458","0.0-1.0-69.0-0.0","0","0","18765","","null","","","null","7","","","","","","","","","","","","","","","",""
"","time_out","","html-keyboard-response","57","127462","0.0-1.0-71.0-0.0","0","0","18765","","null","","","null","7","","","","","","","","","","","","","","","",""
"","ITI","","html-keyboard-response","58","128475","0.0-1.0-72.0","0","0","18765","","null","","","null","7","","","","","","","","","","","","","","","NaN",""
"","S1","","html-keyboard-response","59","128729","0.0-1.0-74.0","0","0","18765","","null","","","null","8","","","","","","","","","","","","","","","",""
"","ISI","","html-keyboard-response","60","129733","0.0-1.0-75.0","0","0","18765","","null","","","null","8","NaN","","","","","","","","","","","","","","",""
"","S2","","html-keyboard-response","61","129985","0.0-1.0-76.0","0","0","18765","","null","","","null","8","","NaN","","","","","","","","","","","","","",""
"","response","","html-keyboard-response","62","130285","0.0-1.0-77.0-0.0","0","0","18765","","298","","","75","8","","","1","8","training","adjacent","CB","3","2","N.jpg","R.jpg","1","0","0","",""
"","feedback","","html-keyboard-response","63","131289","0.0-1.0-78.0-0.0","0","0","18765","","null","","","null","8","","","","","","","","","","","","","","","",""
"","time_out","","html-keyboard-response","64","133292","0.0-1.0-80.0-0.0","0","0","18765","","null","","","null","8","","","","","","","","","","","","","","","",""
"","ITI","","html-keyboard-response","65","134294","0.0-1.0-81.0","0","0","18765","","null","","","null","8","","","","","","","","","","","","","","","NaN",""
"","S1","","html-keyboard-response","66","134548","0.0-1.0-83.0","0","0","18765","","null","","","null","9","","","","","","","","","","","","","","","",""
"","ISI","","html-keyboard-response","67","135553","0.0-1.0-84.0","0","0","18765","","null","","","null","9","NaN","","","","","","","","","","","","","","",""
"","S2","","html-keyboard-response","68","135808","0.0-1.0-85.0","0","0","18765","","null","","","null","9","","NaN","","","","","","","","","","","","","",""
"","response","","html-keyboard-response","69","136073","0.0-1.0-86.0-0.0","0","0","18765","","263","","","68","9","","","1","9","training","adjacent","DC","4","3","P.jpg","N.jpg","0","0","1","",""
"","feedback","","html-keyboard-response","70","137076","0.0-1.0-87.0-0.0","0","0","18765","","null","","","null","9","","","","","","","","","","","","","","","",""
"","ITI","","html-keyboard-response","71","138079","0.0-1.0-90.0","0","0","18765","","null","","","null","9","","","","","","","","","","","","","","","NaN",""
"","S1","","html-keyboard-response","72","138331","0.0-1.0-92.0","0","0","18765","","null","","","null","10","","","","","","","","","","","","","","","",""
"","ISI","","html-keyboard-response","73","139334","0.0-1.0-93.0","0","0","18765","","null","","","null","10","NaN","","","","","","","","","","","","","","",""
"","S2","","html-keyboard-response","74","139586","0.0-1.0-94.0","0","0","18765","","null","","","null","10","","NaN","","","","","","","","","","","","","",""
"","response","","html-keyboard-response","75","139745","0.0-1.0-95.0-0.0","0","0","18765","","157","","","68","10","","","1","10","training","adjacent","BC","2","3","R.jpg","N.jpg","0","1","0","",""
"","feedback","","html-keyboard-response","76","140748","0.0-1.0-96.0-0.0","0","0","18765","","null","","","null","10","","","","","","","","","","","","","","","",""
"","time_out","","html-keyboard-response","77","142750","0.0-1.0-98.0-0.0","0","0","18765","","null","","","null","10","","","","","","","","","","","","","","","",""
"","ITI","","html-keyboard-response","78","143753","0.0-1.0-99.0","0","0","18765","","null","","","null","10","","","","","","","","","","","","","","","NaN",""
"","S1","","html-keyboard-response","79","144006","0.0-1.0-101.0","0","0","18765","","null","","","null","11","","","","","","","","","","","","","","","",""
"","ISI","","html-keyboard-response","80","145009","0.0-1.0-102.0","0","0","18765","","273","","","75","11","k","","","","","","","","","","","","","","",""
"","S2","","html-keyboard-response","81","145245","0.0-1.0-103.0","0","0","18765","","234","","","75","11","","k","1","11","training","adjacent","CD","3","4","N.jpg","P.jpg","1","1","1","",""
"","feedback","","html-keyboard-response","82","146248","0.0-1.0-105.0-0.0","0","0","18765","","null","","","null","11","","","","","","","","","","","","","","","",""
"","ITI","","html-keyboard-response","83","147250","0.0-1.0-108.0","0","0","18765","","null","","","null","11","","","","","","","","","","","","","","","NaN",""
"","S1","","html-keyboard-response","84","147505","0.0-1.0-110.0","0","0","18765","","null","","","null","12","","","","","","","","","","","","","","","",""
"","ISI","","html-keyboard-response","85","148509","0.0-1.0-111.0","0","0","18765","","null","","","null","12","NaN","","","","","","","","","","","","","","",""
"","S2","","html-keyboard-response","86","148772","0.0-1.0-112.0","0","0","18765","","null","","","null","12","","NaN","","","","","","","","","","","","","",""
"","response","","html-keyboard-response","87","149244","0.0-1.0-113.0-0.0","0","0","18765","","470","","","75","12","","","1","12","training","adjacent","AB","1","2","L.jpg","R.jpg","1","1","1","",""
"","feedback","","html-keyboard-response","88","150246","0.0-1.0-114.0-0.0","0","0","18765","","null","","","null","12","","","","","","","","","","","","","","","",""
"","ITI","","html-keyboard-response","89","151248","0.0-1.0-117.0","0","0","18765","","null","","","null","12","","","","","","","","","","","","","","","NaN",""
"","S1","","html-keyboard-response","90","151500","0.0-1.0-119.0","0","0","18765","","null","","","null","13","","","","","","","","","","","","","","","",""
"","ISI","","html-keyboard-response","91","152503","0.0-1.0-120.0","0","0","18765","","null","","","null","13","NaN","","","","","","","","","","","","","","",""
"","S2","","html-keyboard-response","92","152755","0.0-1.0-121.0","0","0","18765","","null","","","null","13","","NaN","","","","","","","","","","","","","",""
"","response","","html-keyboard-response","93","152937","0.0-1.0-122.0-0.0","0","0","18765","","181","","","75","13","","","1","13","training","adjacent","CB","3","2","N.jpg","R.jpg","1","0","0","",""
"","feedback","","html-keyboard-response","94","153941","0.0-1.0-123.0-0.0","0","0","18765","","null","","","null","13","","","","","","","","","","","","","","","",""
"","time_out","","html-keyboard-response","95","155946","0.0-1.0-125.0-0.0","0","0","18765","","null","","","null","13","","","","","","","","","","","","","","","",""
"","ITI","","html-keyboard-response","96","156948","0.0-1.0-126.0","0","0","18765","","null","","","null","13","","","","","","","","","","","","","","","NaN",""
"","S1","","html-keyboard-response","97","157201","0.0-1.0-128.0","0","0","18765","","null","","","null","14","","","","","","","","","","","","","","","",""
"","ISI","","html-keyboard-response","98","158204","0.0-1.0-129.0","0","0","18765","","null","","","null","14","NaN","","","","","","","","","","","","","","",""
"","S2","","html-keyboard-response","99","158456","0.0-1.0-130.0","0","0","18765","","null","","","null","14","","NaN","","","","","","","","","","","","","",""
"","response","","html-keyboard-response","100","158750","0.0-1.0-131.0-0.0","0","0","18765","","293","","","75","14","","","1","14","training","adjacent","DE","4","5","P.jpg","M.jpg","1","1","1","",""
"","feedback","","html-keyboard-response","101","159754","0.0-1.0-132.0-0.0","0","0","18765","","null","","","null","14","","","","","","","","","","","","","","","",""
"","ITI","","html-keyboard-response","102","160758","0.0-1.0-135.0","0","0","18765","","null","","","null","14","","","","","","","","","","","","","","","NaN",""
"","S1","","html-keyboard-response","103","161011","0.0-1.0-137.0","0","0","18765","","null","","","null","15","","","","","","","","","","","","","","","",""
"","ISI","","html-keyboard-response","104","162014","0.0-1.0-138.0","0","0","18765","","null","","","null","15","NaN","","","","","","","","","","","","","","",""
"","S2","","html-keyboard-response","105","162267","0.0-1.0-139.0","0","0","18765","","null","","","null","15","","NaN","","","","","","","","","","","","","",""
"","response","","html-keyboard-response","106","162541","0.0-1.0-140.0-0.0","0","0","18765","","273","","","75","15","","","1","15","training","adjacent","AB","1","2","L.jpg","R.jpg","1","1","1","",""
"","feedback","","html-keyboard-response","107","163543","0.0-1.0-141.0-0.0","0","0","18765","","null","","","null","15","","","","","","","","","","","","","","","",""
"","ITI","","html-keyboard-response","108","164547","0.0-1.0-144.0","0","0","18765","","null","","","null","15","","","","","","","","","","","","","","","NaN",""
"","S1","","html-keyboard-response","109","164801","0.0-1.0-146.0","0","0","18765","","null","","","null","16","","","","","","","","","","","","","","","",""
"","ISI","","html-keyboard-response","110","165803","0.0-1.0-147.0","0","0","18765","","null","","","null","16","NaN","","","","","","","","","","","","","","",""
"","S2","","html-keyboard-response","111","166057","0.0-1.0-148.0","0","0","18765","","null","","","null","16","","NaN","","","","","","","","","","","","","",""
"","response","","html-keyboard-response","112","166477","0.0-1.0-149.0-0.0","0","0","18765","","419","","","68","16","","","1","16","training","adjacent","BA","2","1","R.jpg","L.jpg","0","0","1","",""
"","feedback","","html-keyboard-response","113","167481","0.0-1.0-150.0-0.0","0","0","18765","","null","","","null","16","","","","","","","","","","","","","","","",""
"","ITI","","html-keyboard-response","114","168485","0.0-1.0-153.0","0","0","18765","","null","","","null","16","","","","","","","","","","","","","","","NaN",""
"","S1","","html-keyboard-response","115","168740","0.0-1.0-155.0","0","0","18765","","null","","","null","17","","","","","","","","","","","","","","","",""
"","ISI","","html-keyboard-response","116","169742","0.0-1.0-156.0","0","0","18765","","null","","","null","17","NaN","","","","","","","","","","","","","","",""
"","S2","","html-keyboard-response","117","169994","0.0-1.0-157.0","0","0","18765","","null","","","null","17","","NaN","","","","","","","","","","","","","",""
"","response","","html-keyboard-response","118","170202","0.0-1.0-158.0-0.0","0","0","18765","","205","","","68","17","","","1","17","training","adjacent","BA","2","1","R.jpg","L.jpg","0","0","1","",""
"","feedback","","html-keyboard-response","119","171207","0.0-1.0-159.0-0.0","0","0","18765","","null","","","null","17","","","","","","","","","","","","","","","",""
"","ITI","","html-keyboard-response","120","172212","0.0-1.0-162.0","0","0","18765","","null","","","null","17","","","","","","","","","","","","","","","NaN",""
"","S1","","html-keyboard-response","121","172474","0.0-1.0-164.0","0","0","18765","","null","","","null","18","","","","","","","","","","","","","","","",""
"","ISI","","html-keyboard-response","122","173476","0.0-1.0-165.0","0","0","18765","","null","","","null","18","NaN","","","","","","","","","","","","","","",""
"","S2","","html-keyboard-response","123","173730","0.0-1.0-166.0","0","0","18765","","null","","","null","18","","NaN","","","","","","","","","","","","","",""
"","response","","html-keyboard-response","124","174160","0.0-1.0-167.0-0.0","0","0","18765","","429","","","68","18","","","1","18","training","adjacent","GF","7","6","Q.jpg","O.jpg","0","0","1","",""
"","feedback","","html-keyboard-response","125","175165","0.0-1.0-168.0-0.0","0","0","18765","","null","","","null","18","","","","","","","","","","","","","","","",""
"","ITI","","html-keyboard-response","126","176167","0.0-1.0-171.0","0","0","18765","","null","","","null","18","","","","","","","","","","","","","","","NaN",""
"","S1","","html-keyboard-response","127","176420","0.0-1.0-173.0","0","0","18765","","null","","","null","19","","","","","","","","","","","","","","","",""
"","ISI","","html-keyboard-response","128","177424","0.0-1.0-174.0","0","0","18765","","null","","","null","19","NaN","","","","","","","","","","","","","","",""
"","S2","","html-keyboard-response","129","177679","0.0-1.0-175.0","0","0","18765","","null","","","null","19","","NaN","","","","","","","","","","","","","",""
"","response","","html-keyboard-response","130","178086","0.0-1.0-176.0-0.0","0","0","18765","","405","","","75","19","","","1","19","training","adjacent","ED","5","4","M.jpg","P.jpg","1","0","0","",""
"","feedback","","html-keyboard-response","131","179099","0.0-1.0-177.0-0.0","0","0","18765","","null","","","null","19","","","","","","","","","","","","","","","",""
"","time_out","","html-keyboard-response","132","181104","0.0-1.0-179.0-0.0","0","0","18765","","null","","","null","19","","","","","","","","","","","","","","","",""
"","ITI","","html-keyboard-response","133","182107","0.0-1.0-180.0","0","0","18765","","null","","","null","19","","","","","","","","","","","","","","","NaN",""
"","S1","","html-keyboard-response","134","182360","0.0-1.0-182.0","0","0","18765","","null","","","null","20","","","","","","","","","","","","","","","",""
"","ISI","","html-keyboard-response","135","183363","0.0-1.0-183.0","0","0","18765","","null","","","null","20","NaN","","","","","","","","","","","","","","",""
"","S2","","html-keyboard-response","136","183615","0.0-1.0-184.0","0","0","18765","","null","","","null","20","","NaN","","","","","","","","","","","","","",""
"","response","","html-keyboard-response","137","183888","0.0-1.0-185.0-0.0","0","0","18765","","273","","","68","20","","","1","20","training","adjacent","EF","5","6","M.jpg","O.jpg","0","1","0","",""
"","feedback","","html-keyboard-response","138","184892","0.0-1.0-186.0-0.0","0","0","18765","","null","","","null","20","","","","","","","","","","","","","","","",""
"","time_out","","html-keyboard-response","139","186894","0.0-1.0-188.0-0.0","0","0","18765","","null","","","null","20","","","","","","","","","","","","","","","",""
"","ITI","","html-keyboard-response","140","187898","0.0-1.0-189.0","0","0","18765","","null","","","null","20","","","","","","","","","","","","","","","NaN",""
"","S1","","html-keyboard-response","141","188152","0.0-1.0-191.0","0","0","18765","","null","","","null","21","","","","","","","","","","","","","","","",""
"","ISI","","html-keyboard-response","142","189166","0.0-1.0-192.0","0","0","18765","","null","","","null","21","NaN","","","","","","","","","","","","","","",""
"","S2","","html-keyboard-response","143","189419","0.0-1.0-193.0","0","0","18765","","null","","","null","21","","NaN","","","","","","","","","","","","","",""
"","response","","html-keyboard-response","144","189640","0.0-1.0-194.0-0.0","0","0","18765","","220","","","75","21","","","1","21","training","adjacent","AB","1","2","L.jpg","R.jpg","1","1","1","",""
"","feedback","","html-keyboard-response","145","190643","0.0-1.0-195.0-0.0","0","0","18765","","null","","","null","21","","","","","","","","","","","","","","","",""
"","ITI","","html-keyboard-response","146","191647","0.0-1.0-198.0","0","0","18765","","null","","","null","21","","","","","","","","","","","","","","","NaN",""
"","S1","","html-keyboard-response","147","191902","0.0-1.0-200.0","0","0","18765","","null","","","null","22","","","","","","","","","","","","","","","",""
"","ISI","","html-keyboard-response","148","192904","0.0-1.0-201.0","0","0","18765","","null","","","null","22","NaN","","","","","","","","","","","","","","",""
"","S2","","html-keyboard-response","149","193157","0.0-1.0-202.0","0","0","18765","","null","","","null","22","","NaN","","","","","","","","","","","","","",""
"","response","","html-keyboard-response","150","193698","0.0-1.0-203.0-0.0","0","0","18765","","539","","","75","22","","","1","22","training","adjacent","ED","5","4","M.jpg","P.jpg","1","0","0","",""
"","feedback","","html-keyboard-response","151","194701","0.0-1.0-204.0-0.0","0","0","18765","","null","","","null","22","","","","","","","","","","","","","","","",""
"","time_out","","html-keyboard-response","152","196704","0.0-1.0-206.0-0.0","0","0","18765","","null","","","null","22","","","","","","","","","","","","","","","",""
"","ITI","","html-keyboard-response","153","197708","0.0-1.0-207.0","0","0","18765","","null","","","null","22","","","","","","","","","","","","","","","NaN",""
"","S1","","html-keyboard-response","154","197961","0.0-1.0-209.0","0","0","18765","","null","","","null","23","","","","","","","","","","","","","","","",""
"","ISI","","html-keyboard-response","155","198965","0.0-1.0-210.0","0","0","18765","","null","","","null","23","NaN","","","","","","","","","","","","","","",""
"","S2","","html-keyboard-response","156","199218","0.0-1.0-211.0","0","0","18765","","null","","","null","23","","NaN","","","","","","","","","","","","","",""
"","response","","html-keyboard-response","157","199554","0.0-1.0-212.0-0.0","0","0","18765","","334","","","75","23","","","1","23","training","adjacent","BC","2","3","R.jpg","N.jpg","1","1","1","",""
"","feedback","","html-keyboard-response","158","200558","0.0-1.0-213.0-0.0","0","0","18765","","null","","","null","23","","","","","","","","","","","","","","","",""
"","ITI","","html-keyboard-response","159","201561","0.0-1.0-216.0","0","0","18765","","null","","","null","23","","","","","","","","","","","","","","","NaN",""
"","S1","","html-keyboard-response","160","201815","0.0-1.0-218.0","0","0","18765","","null","","","null","24","","","","","","","","","","","","","","","",""
"","ISI","","html-keyboard-response","161","202831","0.0-1.0-219.0","0","0","18765","","null","","","null","24","NaN","","","","","","","","","","","","","","",""
"","S2","","html-keyboard-response","162","203094","0.0-1.0-220.0","0","0","18765","","null","","","null","24","","NaN","","","","","","","","","","","","","",""
"","response","","html-keyboard-response","163","203519","0.0-1.0-221.0-0.0","0","0","18765","","423","","","68","24","","","1","24","training","adjacent","EF","5","6","M.jpg","O.jpg","0","1","0","",""
"","feedback","","html-keyboard-response","164","204523","0.0-1.0-222.0-0.0","0","0","18765","","null","","","null","24","","","","","","","","","","","","","","","",""
"","time_out","","html-keyboard-response","165","206526","0.0-1.0-224.0-0.0","0","0","18765","","null","","","null","24","","","","","","","","","","","","","","","",""
"","ITI","","html-keyboard-response","166","207529","0.0-1.0-225.0","0","0","18765","","null","","","null","24","","","","","","","","","","","","","","","NaN",""
"","S1","","html-keyboard-response","167","207784","0.0-1.0-227.0","0","0","18765","","null","","","null","25","","","","","","","","","","","","","","","",""
"","ISI","","html-keyboard-response","168","208787","0.0-1.0-228.0","0","0","18765","","null","","","null","25","NaN","","","","","","","","","","","","","","",""
"","S2","","html-keyboard-response","169","209041","0.0-1.0-229.0","0","0","18765","","null","","","null","25","","NaN","","","","","","","","","","","","","",""
"","response","","html-keyboard-response","170","209351","0.0-1.0-230.0-0.0","0","0","18765","","309","","","75","25","","","1","25","training","adjacent","FG","6","7","O.jpg","Q.jpg","1","1","1","",""
"","feedback","","html-keyboard-response","171","210355","0.0-1.0-231.0-0.0","0","0","18765","","null","","","null","25","","","","","","","","","","","","","","","",""
"","ITI","","html-keyboard-response","172","211357","0.0-1.0-234.0","0","0","18765","","null","","","null","25","","","","","","","","","","","","","","","NaN",""
"","S1","","html-keyboard-response","173","211611","0.0-1.0-236.0","0","0","18765","","null","","","null","26","","","","","","","","","","","","","","","",""
"","ISI","","html-keyboard-response","174","212615","0.0-1.0-237.0","0","0","18765","","null","","","null","26","NaN","","","","","","","","","","","","","","",""
"","S2","","html-keyboard-response","175","212869","0.0-1.0-238.0","0","0","18765","","null","","","null","26","","NaN","","","","","","","","","","","","","",""
"","response","","html-keyboard-response","176","213282","0.0-1.0-239.0-0.0","0","0","18765","","412","","","75","26","","","1","26","training","adjacent","FE","6","5","O.jpg","M.jpg","1","0","0","",""
"","feedback","","html-keyboard-response","177","214286","0.0-1.0-240.0-0.0","0","0","18765","","null","","","null","26","","","","","","","","","","","","","","","",""
"","time_out","","html-keyboard-response","178","216288","0.0-1.0-242.0-0.0","0","0","18765","","null","","","null","26","","","","","","","","","","","","","","","",""
"","ITI","","html-keyboard-response","179","217291","0.0-1.0-243.0","0","0","18765","","null","","","null","26","","","","","","","","","","","","","","","NaN",""
"","S1","","html-keyboard-response","180","217550","0.0-1.0-245.0","0","0","18765","","null","","","null","27","","","","","","","","","","","","","","","",""
"","ISI","","html-keyboard-response","181","218554","0.0-1.0-246.0","0","0","18765","","null","","","null","27","NaN","","","","","","","","","","","","","","",""
"","S2","","html-keyboard-response","182","218807","0.0-1.0-247.0","0","0","18765","","null","","","null","27","","NaN","","","","","","","","","","","","","",""
"","response","","html-keyboard-response","183","219030","0.0-1.0-248.0-0.0","0","0","18765","","222","","","68","27","","","1","27","training","adjacent","GF","7","6","Q.jpg","O.jpg","0","0","1","",""
"","feedback","","html-keyboard-response","184","220047","0.0-1.0-249.0-0.0","0","0","18765","","null","","","null","27","","","","","","","","","","","","","","","",""
"","ITI","","html-keyboard-response","185","221050","0.0-1.0-252.0","0","0","18765","","null","","","null","27","","","","","","","","","","","","","","","NaN",""
"","S1","","html-keyboard-response","186","221304","0.0-1.0-254.0","0","0","18765","","null","","","null","28","","","","","","","","","","","","","","","",""
"","ISI","","html-keyboard-response","187","222305","0.0-1.0-255.0","0","0","18765","","null","","","null","28","NaN","","","","","","","","","","","","","","",""
"","S2","","html-keyboard-response","188","222559","0.0-1.0-256.0","0","0","18765","","null","","","null","28","","NaN","","","","","","","","","","","","","",""
"","response","","html-keyboard-response","189","223397","0.0-1.0-257.0-0.0","0","0","18765","","837","","","68","28","","","1","28","training","adjacent","FE","6","5","O.jpg","M.jpg","0","0","1","",""
"","feedback","","html-keyboard-response","190","224401","0.0-1.0-258.0-0.0","0","0","18765","","null","","","null","28","","","","","","","","","","","","","","","",""
"","ITI","","html-keyboard-response","191","225405","0.0-1.0-261.0","0","0","18765","","null","","","null","28","","","","","","","","","","","","","","","NaN",""
"","S1","","html-keyboard-response","192","225658","0.0-1.0-263.0","0","0","18765","","null","","","null","29","","","","","","","","","","","","","","","",""
"","ISI","","html-keyboard-response","193","226661","0.0-1.0-264.0","0","0","18765","","null","","","null","29","NaN","","","","","","","","","","","","","","",""
"","S2","","html-keyboard-response","194","226914","0.0-1.0-265.0","0","0","18765","","null","","","null","29","","NaN","","","","","","","","","","","","","",""
"","response","","html-keyboard-response","195","227644","0.0-1.0-266.0-0.0","0","0","18765","","729","","","68","29","","","1","29","training","adjacent","BA","2","1","R.jpg","L.jpg","0","0","1","",""
"","feedback","","html-keyboard-response","196","228645","0.0-1.0-267.0-0.0","0","0","18765","","null","","","null","29","","","","","","","","","","","","","","","",""
"","ITI","","html-keyboard-response","197","229649","0.0-1.0-270.0","0","0","18765","","null","","","null","29","","","","","","","","","","","","","","","NaN",""
"","S1","","html-keyboard-response","198","229903","0.0-1.0-272.0","0","0","18765","","null","","","null","30","","","","","","","","","","","","","","","",""
"","ISI","","html-keyboard-response","199","230905","0.0-1.0-273.0","0","0","18765","","null","","","null","30","NaN","","","","","","","","","","","","","","",""
"","S2","","html-keyboard-response","200","231159","0.0-1.0-274.0","0","0","18765","","null","","","null","30","","NaN","","","","","","","","","","","","","",""
"","response","","html-keyboard-response","201","231348","0.0-1.0-275.0-0.0","0","0","18765","","187","","","68","30","","","1","30","training","adjacent","GF","7","6","Q.jpg","O.jpg","0","0","1","",""
"","feedback","","html-keyboard-response","202","232352","0.0-1.0-276.0-0.0","0","0","18765","","null","","","null","30","","","","","","","","","","","","","","","",""
"","ITI","","html-keyboard-response","203","233357","0.0-1.0-279.0","0","0","18765","","null","","","null","30","","","","","","","","","","","","","","","NaN",""
"","S1","","html-keyboard-response","204","233609","0.0-1.0-281.0","0","0","18765","","null","","","null","31","","","","","","","","","","","","","","","",""
"","ISI","","html-keyboard-response","205","234612","0.0-1.0-282.0","0","0","18765","","null","","","null","31","NaN","","","","","","","","","","","","","","",""
"","S2","","html-keyboard-response","206","234867","0.0-1.0-283.0","0","0","18765","","null","","","null","31","","NaN","","","","","","","","","","","","","",""
"","response","","html-keyboard-response","207","235324","0.0-1.0-284.0-0.0","0","0","18765","","456","","","75","31","","","1","31","training","adjacent","DE","4","5","P.jpg","M.jpg","1","1","1","",""
"","feedback","","html-keyboard-response","208","236327","0.0-1.0-285.0-0.0","0","0","18765","","null","","","null","31","","","","","","","","","","","","","","","",""
"","ITI","","html-keyboard-response","209","237332","0.0-1.0-288.0","0","0","18765","","null","","","null","31","","","","","","","","","","","","","","","NaN",""
"","S1","","html-keyboard-response","210","237586","0.0-1.0-290.0","0","0","18765","","null","","","null","32","","","","","","","","","","","","","","","",""
"","ISI","","html-keyboard-response","211","238590","0.0-1.0-291.0","0","0","18765","","null","","","null","32","NaN","","","","","","","","","","","","","","",""
"","S2","","html-keyboard-response","212","238845","0.0-1.0-292.0","0","0","18765","","null","","","null","32","","NaN","","","","","","","","","","","","","",""
"","response","","html-keyboard-response","213","239166","0.0-1.0-293.0-0.0","0","0","18765","","319","","","75","32","","","1","32","training","adjacent","CD","3","4","N.jpg","P.jpg","1","1","1","",""
"","feedback","","html-keyboard-response","214","240178","0.0-1.0-294.0-0.0","0","0","18765","","null","","","null","32","","","","","","","","","","","","","","","",""
"","ITI","","html-keyboard-response","215","241180","0.0-1.0-297.0","0","0","18765","","null","","","null","32","","","","","","","","","","","","","","","NaN",""
"","S1","","html-keyboard-response","216","241432","0.0-1.0-299.0","0","0","18765","","null","","","null","33","","","","","","","","","","","","","","","",""
"","ISI","","html-keyboard-response","217","242434","0.0-1.0-300.0","0","0","18765","","null","","","null","33","NaN","","","","","","","","","","","","","","",""
"","S2","","html-keyboard-response","218","242687","0.0-1.0-301.0","0","0","18765","","null","","","null","33","","NaN","","","","","","","","","","","","","",""
"","response","","html-keyboard-response","219","243025","0.0-1.0-302.0-0.0","0","0","18765","","337","","","75","33","","","1","33","training","adjacent","CD","3","4","N.jpg","P.jpg","1","1","1","",""
"","feedback","","html-keyboard-response","220","244028","0.0-1.0-303.0-0.0","0","0","18765","","null","","","null","33","","","","","","","","","","","","","","","",""
"","ITI","","html-keyboard-response","221","245032","0.0-1.0-306.0","0","0","18765","","null","","","null","33","","","","","","","","","","","","","","","NaN",""
"","S1","","html-keyboard-response","222","245285","0.0-1.0-308.0","0","0","18765","","null","","","null","34","","","","","","","","","","","","","","","",""
"","ISI","","html-keyboard-response","223","246290","0.0-1.0-309.0","0","0","18765","","null","","","null","34","NaN","","","","","","","","","","","","","","",""
"","S2","","html-keyboard-response","224","246545","0.0-1.0-310.0","0","0","18765","","null","","","null","34","","NaN","","","","","","","","","","","","","",""
"","response","","html-keyboard-response","225","246763","0.0-1.0-311.0-0.0","0","0","18765","","215","","","75","34","","","1","34","training","adjacent","CD","3","4","N.jpg","P.jpg","1","1","1","",""
"","feedback","","html-keyboard-response","226","247768","0.0-1.0-312.0-0.0","0","0","18765","","null","","","null","34","","","","","","","","","","","","","","","",""
"","ITI","","html-keyboard-response","227","248771","0.0-1.0-315.0","0","0","18765","","null","","","null","34","","","","","","","","","","","","","","","NaN",""
"","S1","","html-keyboard-response","228","249027","0.0-1.0-317.0","0","0","18765","","null","","","null","35","","","","","","","","","","","","","","","",""
"","ISI","","html-keyboard-response","229","250028","0.0-1.0-318.0","0","0","18765","","null","","","null","35","NaN","","","","","","","","","","","","","","",""
"","S2","","html-keyboard-response","230","250280","0.0-1.0-319.0","0","0","18765","","null","","","null","35","","NaN","","","","","","","","","","","","","",""
"","response","","html-keyboard-response","231","250623","0.0-1.0-320.0-0.0","0","0","18765","","342","","","75","35","","","1","35","training","adjacent","BC","2","3","R.jpg","N.jpg","1","1","1","",""
"","feedback","","html-keyboard-response","232","251625","0.0-1.0-321.0-0.0","0","0","18765","","null","","","null","35","","","","","","","","","","","","","","","",""
"","ITI","","html-keyboard-response","233","252629","0.0-1.0-324.0","0","0","18765","","null","","","null","35","","","","","","","","","","","","","","","NaN",""
"","S1","","html-keyboard-response","234","252881","0.0-1.0-326.0","0","0","18765","","null","","","null","36","","","","","","","","","","","","","","","",""
"","ISI","","html-keyboard-response","235","253882","0.0-1.0-327.0","0","0","18765","","null","","","null","36","NaN","","","","","","","","","","","","","","",""
"","S2","","html-keyboard-response","236","254134","0.0-1.0-328.0","0","0","18765","","null","","","null","36","","NaN","","","","","","","","","","","","","",""
"","response","","html-keyboard-response","237","254452","0.0-1.0-329.0-0.0","0","0","18765","","317","","","68","36","","","1","36","training","adjacent","AB","1","2","L.jpg","R.jpg","0","1","0","",""
"","feedback","","html-keyboard-response","238","255456","0.0-1.0-330.0-0.0","0","0","18765","","null","","","null","36","","","","","","","","","","","","","","","",""
"","time_out","","html-keyboard-response","239","257460","0.0-1.0-332.0-0.0","0","0","18765","","null","","","null","36","","","","","","","","","","","","","","","",""
"","ITI","","html-keyboard-response","240","258477","0.0-1.0-333.0","0","0","18765","","null","","","null","36","","","","","","","","","","","","","","","NaN",""
"","S1","","html-keyboard-response","241","258729","0.0-1.0-335.0","0","0","18765","","null","","","null","37","","","","","","","","","","","","","","","",""
"","ISI","","html-keyboard-response","242","259733","0.0-1.0-336.0","0","0","18765","","null","","","null","37","NaN","","","","","","","","","","","","","","",""
"","S2","","html-keyboard-response","243","259988","0.0-1.0-337.0","0","0","18765","","null","","","null","37","","NaN","","","","","","","","","","","","","",""
"","response","","html-keyboard-response","244","260224","0.0-1.0-338.0-0.0","0","0","18765","","235","","","68","37","","","1","37","training","adjacent","DC","4","3","P.jpg","N.jpg","0","0","1","",""
"","feedback","","html-keyboard-response","245","261227","0.0-1.0-339.0-0.0","0","0","18765","","null","","","null","37","","","","","","","","","","","","","","","",""
"","ITI","","html-keyboard-response","246","262230","0.0-1.0-342.0","0","0","18765","","null","","","null","37","","","","","","","","","","","","","","","NaN",""
"","S1","","html-keyboard-response","247","262490","0.0-1.0-344.0","0","0","18765","","null","","","null","38","","","","","","","","","","","","","","","",""
"","ISI","","html-keyboard-response","248","263494","0.0-1.0-345.0","0","0","18765","","null","","","null","38","NaN","","","","","","","","","","","","","","",""
"","S2","","html-keyboard-response","249","263749","0.0-1.0-346.0","0","0","18765","","null","","","null","38","","NaN","","","","","","","","","","","","","",""
"","response","","html-keyboard-response","250","264047","0.0-1.0-347.0-0.0","0","0","18765","","296","","","68","38","","","1","38","training","adjacent","EF","5","6","M.jpg","O.jpg","0","1","0","",""
"","feedback","","html-keyboard-response","251","265051","0.0-1.0-348.0-0.0","0","0","18765","","null","","","null","38","","","","","","","","","","","","","","","",""
"","time_out","","html-keyboard-response","252","267054","0.0-1.0-350.0-0.0","0","0","18765","","null","","","null","38","","","","","","","","","","","","","","","",""
"","ITI","","html-keyboard-response","253","268057","0.0-1.0-351.0","0","0","18765","","null","","","null","38","","","","","","","","","","","","","","","NaN",""
"","S1","","html-keyboard-response","254","268312","0.0-1.0-353.0","0","0","18765","","null","","","null","39","","","","","","","","","","","","","","","",""
"","ISI","","html-keyboard-response","255","269314","0.0-1.0-354.0","0","0","18765","","null","","","null","39","NaN","","","","","","","","","","","","","","",""
"","S2","","html-keyboard-response","256","269567","0.0-1.0-355.0","0","0","18765","","null","","","null","39","","NaN","","","","","","","","","","","","","",""
"","response","","html-keyboard-response","257","269897","0.0-1.0-356.0-0.0","0","0","18765","","327","","","75","39","","","1","39","training","adjacent","ED","5","4","M.jpg","P.jpg","1","0","0","",""
"","feedback","","html-keyboard-response","258","270900","0.0-1.0-357.0-0.0","0","0","18765","","null","","","null","39","","","","","","","","","","","","","","","",""
"","time_out","","html-keyboard-response","259","272903","0.0-1.0-359.0-0.0","0","0","18765","","null","","","null","39","","","","","","","","","","","","","","","",""
"","ITI","","html-keyboard-response","260","273906","0.0-1.0-360.0","0","0","18765","","null","","","null","39","","","","","","","","","","","","","","","NaN",""
"","S1","","html-keyboard-response","261","274159","0.0-1.0-362.0","0","0","18765","","null","","","null","40","","","","","","","","","","","","","","","",""
"","ISI","","html-keyboard-response","262","275163","0.0-1.0-363.0","0","0","18765","","null","","","null","40","NaN","","","","","","","","","","","","","","",""
"","S2","","html-keyboard-response","263","275417","0.0-1.0-364.0","0","0","18765","","null","","","null","40","","NaN","","","","","","","","","","","","","",""
"","response","","html-keyboard-response","264","275793","0.0-1.0-365.0-0.0","0","0","18765","","375","","","68","40","","","1","40","training","adjacent","FE","6","5","O.jpg","M.jpg","0","0","1","",""
"","feedback","","html-keyboard-response","265","276794","0.0-1.0-366.0-0.0","0","0","18765","","null","","","null","40","","","","","","","","","","","","","","","",""
"","ITI","","html-keyboard-response","266","277797","0.0-1.0-369.0","0","0","18765","","null","","","null","40","","","","","","","","","","","","","","","NaN",""
"","S1","","html-keyboard-response","267","278051","0.0-1.0-371.0","0","0","18765","","null","","","null","41","","","","","","","","","","","","","","","",""
"","ISI","","html-keyboard-response","268","279055","0.0-1.0-372.0","0","0","18765","","null","","","null","41","NaN","","","","","","","","","","","","","","",""
"","S2","","html-keyboard-response","269","279309","0.0-1.0-373.0","0","0","18765","","null","","","null","41","","NaN","","","","","","","","","","","","","",""
"","response","","html-keyboard-response","270","279507","0.0-1.0-374.0-0.0","0","0","18765","","196","","","68","41","","","1","41","training","adjacent","DC","4","3","P.jpg","N.jpg","0","0","1","",""
"","feedback","","html-keyboard-response","271","280510","0.0-1.0-375.0-0.0","0","0","18765","","null","","","null","41","","","","","","","","","","","","","","","",""
"","ITI","","html-keyboard-response","272","281526","0.0-1.0-378.0","0","0","18765","","null","","","null","41","","","","","","","","","","","","","","","NaN",""
"","S1","","html-keyboard-response","273","281779","0.0-1.0-380.0","0","0","18765","","null","","","null","42","","","","","","","","","","","","","","","",""
"","ISI","","html-keyboard-response","274","282782","0.0-1.0-381.0","0","0","18765","","null","","","null","42","NaN","","","","","","","","","","","","","","",""
"","S2","","html-keyboard-response","275","283037","0.0-1.0-382.0","0","0","18765","","null","","","null","42","","NaN","","","","","","","","","","","","","",""
"","response","","html-keyboard-response","276","283197","0.0-1.0-383.0-0.0","0","0","18765","","158","","","68","42","","","1","42","training","adjacent","GF","7","6","Q.jpg","O.jpg","0","0","1","",""
"","feedback","","html-keyboard-response","277","284200","0.0-1.0-384.0-0.0","0","0","18765","","null","","","null","42","","","","","","","","","","","","","","","",""
"","ITI","","html-keyboard-response","278","285205","0.0-1.0-387.0","0","0","18765","","null","","","null","42","","","","","","","","","","","","","","","NaN",""
"","S1","","html-keyboard-response","279","285460","0.0-1.0-389.0","0","0","18765","","null","","","null","43","","","","","","","","","","","","","","","",""
"","ISI","","html-keyboard-response","280","286464","0.0-1.0-390.0","0","0","18765","","null","","","null","43","NaN","","","","","","","","","","","","","","",""
"","S2","","html-keyboard-response","281","286718","0.0-1.0-391.0","0","0","18765","","null","","","null","43","","NaN","","","","","","","","","","","","","",""
"","response","","html-keyboard-response","282","287073","0.0-1.0-392.0-0.0","0","0","18765","","353","","","68","43","","","1","43","training","adjacent","CB","3","2","N.jpg","R.jpg","0","0","1","",""
"","feedback","","html-keyboard-response","283","288077","0.0-1.0-393.0-0.0","0","0","18765","","null","","","null","43","","","","","","","","","","","","","","","",""
"","ITI","","html-keyboard-response","284","289081","0.0-1.0-396.0","0","0","18765","","null","","","null","43","","","","","","","","","","","","","","","NaN",""
"","S1","","html-keyboard-response","285","289334","0.0-1.0-398.0","0","0","18765","","null","","","null","44","","","","","","","","","","","","","","","",""
"","ISI","","html-keyboard-response","286","290338","0.0-1.0-399.0","0","0","18765","","null","","","null","44","NaN","","","","","","","","","","","","","","",""
"","S2","","html-keyboard-response","287","290590","0.0-1.0-400.0","0","0","18765","","null","","","null","44","","NaN","","","","","","","","","","","","","",""
"","response","","html-keyboard-response","288","290685","0.0-1.0-401.0-0.0","0","0","18765","","93","","","68","44","","","1","44","training","adjacent","DE","4","5","P.jpg","M.jpg","0","1","0","",""
"","feedback","","html-keyboard-response","289","291689","0.0-1.0-402.0-0.0","0","0","18765","","null","","","null","44","","","","","","","","","","","","","","","",""
"","time_out","","html-keyboard-response","290","293692","0.0-1.0-404.0-0.0","0","0","18765","","null","","","null","44","","","","","","","","","","","","","","","",""
"","ITI","","html-keyboard-response","291","294695","0.0-1.0-405.0","0","0","18765","","null","","","null","44","","","","","","","","","","","","","","","NaN",""
"","S1","","html-keyboard-response","292","294950","0.0-1.0-407.0","0","0","18765","","null","","","null","45","","","","","","","","","","","","","","","",""
"","ISI","","html-keyboard-response","293","295954","0.0-1.0-408.0","0","0","18765","","null","","","null","45","NaN","","","","","","","","","","","","","","",""
"","S2","","html-keyboard-response","294","296207","0.0-1.0-409.0","0","0","18765","","null","","","null","45","","NaN","","","","","","","","","","","","","",""
"","response","","html-keyboard-response","295","296424","0.0-1.0-410.0-0.0","0","0","18765","","216","","","75","45","","","1","45","training","adjacent","BC","2","3","R.jpg","N.jpg","1","1","1","",""
"","feedback","","html-keyboard-response","296","297429","0.0-1.0-411.0-0.0","0","0","18765","","null","","","null","45","","","","","","","","","","","","","","","",""
"","ITI","","html-keyboard-response","297","298432","0.0-1.0-414.0","0","0","18765","","null","","","null","45","","","","","","","","","","","","","","","NaN",""
"","S1","","html-keyboard-response","298","298686","0.0-1.0-416.0","0","0","18765","","null","","","null","46","","","","","","","","","","","","","","","",""
"","ISI","","html-keyboard-response","299","299689","0.0-1.0-417.0","0","0","18765","","null","","","null","46","NaN","","","","","","","","","","","","","","",""
"","S2","","html-keyboard-response","300","299942","0.0-1.0-418.0","0","0","18765","","null","","","null","46","","NaN","","","","","","","","","","","","","",""
"","response","","html-keyboard-response","301","300289","0.0-1.0-419.0-0.0","0","0","18765","","345","","","75","46","","","1","46","training","adjacent","BA","2","1","R.jpg","L.jpg","1","0","0","",""
"","feedback","","html-keyboard-response","302","301294","0.0-1.0-420.0-0.0","0","0","18765","","null","","","null","46","","","","","","","","","","","","","","","",""
"","time_out","","html-keyboard-response","303","303298","0.0-1.0-422.0-0.0","0","0","18765","","null","","","null","46","","","","","","","","","","","","","","","",""
"","ITI","","html-keyboard-response","304","304300","0.0-1.0-423.0","0","0","18765","","null","","","null","46","","","","","","","","","","","","","","","NaN",""
"","S1","","html-keyboard-response","305","304552","0.0-1.0-425.0","0","0","18765","","null","","","null","47","","","","","","","","","","","","","","","",""
"","ISI","","html-keyboard-response","306","305554","0.0-1.0-426.0","0","0","18765","","null","","","null","47","NaN","","","","","","","","","","","","","","",""
"","S2","","html-keyboard-response","307","305807","0.0-1.0-427.0","0","0","18765","","null","","","null","47","","NaN","","","","","","","","","","","","","",""
"","response","","html-keyboard-response","308","305953","0.0-1.0-428.0-0.0","0","0","18765","","144","","","68","47","","","1","47","training","adjacent","DE","4","5","P.jpg","M.jpg","0","1","0","",""
"","feedback","","html-keyboard-response","309","306957","0.0-1.0-429.0-0.0","0","0","18765","","null","","","null","47","","","","","","","","","","","","","","","",""
"","time_out","","html-keyboard-response","310","308962","0.0-1.0-431.0-0.0","0","0","18765","","null","","","null","47","","","","","","","","","","","","","","","",""
"","ITI","","html-keyboard-response","311","309965","0.0-1.0-432.0","0","0","18765","","null","","","null","47","","","","","","","","","","","","","","","NaN",""
"","block_over","","html-keyboard-response","312","313495","0.0-1.0-433.0-0.0","0","0","18765","","3528","","","32","47","","","","","","","","","","","","","","","",""
"","S1","","html-keyboard-response","313","313749","0.0-1.0-434.0","0","0","18765","","null","","","null","48","","","","","","","","","","","","","","","",""
"","ISI","","html-keyboard-response","314","314753","0.0-1.0-435.0","0","0","18765","","null","","","null","48","NaN","","","","","","","","","","","","","","",""
"","S2","","html-keyboard-response","315","315008","0.0-1.0-436.0","0","0","18765","","null","","","null","48","","NaN","","","","","","","","","","","","","",""
"","response","","html-keyboard-response","316","315239","0.0-1.0-437.0-0.0","0","0","18765","","228","","","75","48","","","2","48","training","adjacent","CD","3","4","N.jpg","P.jpg","1","1","1","",""
"","feedback","","html-keyboard-response","317","316243","0.0-1.0-438.0-0.0","0","0","18765","","null","","","null","48","","","","","","","","","","","","","","","",""
"","ITI","","html-keyboard-response","318","317246","0.0-1.0-441.0","0","0","18765","","null","","","null","48","","","","","","","","","","","","","","","NaN",""
"","S1","","html-keyboard-response","319","317498","0.0-1.0-443.0","0","0","18765","","null","","","null","49","","","","","","","","","","","","","","","",""
"","ISI","","html-keyboard-response","320","318501","0.0-1.0-444.0","0","0","18765","","null","","","null","49","NaN","","","","","","","","","","","","","","",""
"","S2","","html-keyboard-response","321","318757","0.0-1.0-445.0","0","0","18765","","null","","","null","49","","NaN","","","","","","","","","","","","","",""
"","response","","html-keyboard-response","322","318989","0.0-1.0-446.0-0.0","0","0","18765","","230","","","75","49","","","2","49","training","adjacent","CB","3","2","N.jpg","R.jpg","1","0","0","",""
"","feedback","","html-keyboard-response","323","319993","0.0-1.0-447.0-0.0","0","0","18765","","null","","","null","49","","","","","","","","","","","","","","","",""
"","time_out","","html-keyboard-response","324","321996","0.0-1.0-449.0-0.0","0","0","18765","","null","","","null","49","","","","","","","","","","","","","","","",""
"","ITI","","html-keyboard-response","325","322999","0.0-1.0-450.0","0","0","18765","","null","","","null","49","","","","","","","","","","","","","","","NaN",""
"","S1","","html-keyboard-response","326","323253","0.0-1.0-452.0","0","0","18765","","null","","","null","50","","","","","","","","","","","","","","","",""
"","ISI","","html-keyboard-response","327","324258","0.0-1.0-453.0","0","0","18765","","null","","","null","50","NaN","","","","","","","","","","","","","","",""
"","S2","","html-keyboard-response","328","324513","0.0-1.0-454.0","0","0","18765","","null","","","null","50","","NaN","","","","","","","","","","","","","",""
"","response","","html-keyboard-response","329","324847","0.0-1.0-455.0-0.0","0","0","18765","","330","","","75","50","","","2","50","training","adjacent","FG","6","7","O.jpg","Q.jpg","1","1","1","",""
"","feedback","","html-keyboard-response","330","325853","0.0-1.0-456.0-0.0","0","0","18765","","null","","","null","50","","","","","","","","","","","","","","","",""
"","ITI","","html-keyboard-response","331","326856","0.0-1.0-459.0","0","0","18765","","null","","","null","50","","","","","","","","","","","","","","","NaN",""
"","S1","","html-keyboard-response","332","327109","0.0-1.0-461.0","0","0","18765","","null","","","null","51","","","","","","","","","","","","","","","",""
"","ISI","","html-keyboard-response","333","328113","0.0-1.0-462.0","0","0","18765","","null","","","null","51","NaN","","","","","","","","","","","","","","",""
"","S2","","html-keyboard-response","334","328368","0.0-1.0-463.0","0","0","18765","","null","","","null","51","","NaN","","","","","","","","","","","","","",""
"","response","","html-keyboard-response","335","328729","0.0-1.0-464.0-0.0","0","0","18765","","359","","","75","51","","","2","51","training","adjacent","ED","5","4","M.jpg","P.jpg","1","0","0","",""
"","feedback","","html-keyboard-response","336","329731","0.0-1.0-465.0-0.0","0","0","18765","","null","","","null","51","","","","","","","","","","","","","","","",""
"","time_out","","html-keyboard-response","337","331735","0.0-1.0-467.0-0.0","0","0","18765","","null","","","null","51","","","","","","","","","","","","","","","",""
"","ITI","","html-keyboard-response","338","332736","0.0-1.0-468.0","0","0","18765","","null","","","null","51","","","","","","","","","","","","","","","NaN",""
"","S1","","html-keyboard-response","339","332990","0.0-1.0-470.0","0","0","18765","","null","","","null","52","","","","","","","","","","","","","","","",""
"","ISI","","html-keyboard-response","340","333991","0.0-1.0-471.0","0","0","18765","","null","","","null","52","NaN","","","","","","","","","","","","","","",""
"","S2","","html-keyboard-response","341","334243","0.0-1.0-472.0","0","0","18765","","null","","","null","52","","NaN","","","","","","","","","","","","","",""
"","response","","html-keyboard-response","342","334430","0.0-1.0-473.0-0.0","0","0","18765","","186","","","68","52","","","2","52","training","adjacent","GF","7","6","Q.jpg","O.jpg","0","0","1","",""
"","feedback","","html-keyboard-response","343","335432","0.0-1.0-474.0-0.0","0","0","18765","","null","","","null","52","","","","","","","","","","","","","","","",""
"","ITI","","html-keyboard-response","344","336435","0.0-1.0-477.0","0","0","18765","","null","","","null","52","","","","","","","","","","","","","","","NaN",""
"","S1","","html-keyboard-response","345","336687","0.0-1.0-479.0","0","0","18765","","null","","","null","53","","","","","","","","","","","","","","","",""
"","ISI","","html-keyboard-response","346","337689","0.0-1.0-480.0","0","0","18765","","null","","","null","53","NaN","","","","","","","","","","","","","","",""
"","S2","","html-keyboard-response","347","337943","0.0-1.0-481.0","0","0","18765","","null","","","null","53","","NaN","","","","","","","","","","","","","",""
"","response","","html-keyboard-response","348","338383","0.0-1.0-482.0-0.0","0","0","18765","","438","","","75","53","","","2","53","training","adjacent","BC","2","3","R.jpg","N.jpg","1","1","1","",""
"","feedback","","html-keyboard-response","349","339388","0.0-1.0-483.0-0.0","0","0","18765","","null","","","null","53","","","","","","","","","","","","","","","",""
"","ITI","","html-keyboard-response","350","340393","0.0-1.0-486.0","0","0","18765","","null","","","null","53","","","","","","","","","","","","","","","NaN",""
"","S1","","html-keyboard-response","351","340646","0.0-1.0-488.0","0","0","18765","","null","","","null","54","","","","","","","","","","","","","","","",""
"","ISI","","html-keyboard-response","352","341649","0.0-1.0-489.0","0","0","18765","","null","","","null","54","NaN","","","","","","","","","","","","","","",""
"","S2","","html-keyboard-response","353","341901","0.0-1.0-490.0","0","0","18765","","null","","","null","54","","NaN","","","","","","","","","","","","","",""
"","response","","html-keyboard-response","354","342244","0.0-1.0-491.0-0.0","0","0","18765","","342","","","75","54","","","2","54","training","adjacent","FG","6","7","O.jpg","Q.jpg","1","1","1","",""
"","feedback","","html-keyboard-response","355","343261","0.0-1.0-492.0-0.0","0","0","18765","","null","","","null","54","","","","","","","","","","","","","","","",""
"","ITI","","html-keyboard-response","356","344263","0.0-1.0-495.0","0","0","18765","","null","","","null","54","","","","","","","","","","","","","","","NaN",""
"","S1","","html-keyboard-response","357","344517","0.0-1.0-497.0","0","0","18765","","null","","","null","55","","","","","","","","","","","","","","","",""
"","ISI","","html-keyboard-response","358","345522","0.0-1.0-498.0","0","0","18765","","null","","","null","55","NaN","","","","","","","","","","","","","","",""
"","S2","","html-keyboard-response","359","345776","0.0-1.0-499.0","0","0","18765","","null","","","null","55","","NaN","","","","","","","","","","","","","",""
"","response","","html-keyboard-response","360","346038","0.0-1.0-500.0-0.0","0","0","18765","","261","","","75","55","","","2","55","training","adjacent","FG","6","7","O.jpg","Q.jpg","1","1","1","",""
"","feedback","","html-keyboard-response","361","347043","0.0-1.0-501.0-0.0","0","0","18765","","null","","","null","55","","","","","","","","","","","","","","","",""
"","ITI","","html-keyboard-response","362","348046","0.0-1.0-504.0","0","0","18765","","null","","","null","55","","","","","","","","","","","","","","","NaN",""
"","S1","","html-keyboard-response","363","348300","0.0-1.0-506.0","0","0","18765","","null","","","null","56","","","","","","","","","","","","","","","",""
"","ISI","","html-keyboard-response","364","349302","0.0-1.0-507.0","0","0","18765","","566","","","75","56","k","","","","","","","","","","","","","","",""
"","S2","","html-keyboard-response","365","349555","0.0-1.0-508.0","0","0","18765","","null","","","null","56","","NaN","","","","","","","","","","","","","",""
"","response","","html-keyboard-response","366","350077","0.0-1.0-509.0-0.0","0","0","18765","","521","","","68","56","","","2","56","training","adjacent","GF","7","6","Q.jpg","O.jpg","0","0","1","",""
"","feedback","","html-keyboard-response","367","351079","0.0-1.0-510.0-0.0","0","0","18765","","null","","","null","56","","","","","","","","","","","","","","","",""
"","ITI","","html-keyboard-response","368","352083","0.0-1.0-513.0","0","0","18765","","null","","","null","56","","","","","","","","","","","","","","","NaN",""
"","S1","","html-keyboard-response","369","352335","0.0-1.0-515.0","0","0","18765","","null","","","null","57","","","","","","","","","","","","","","","",""
"","ISI","","html-keyboard-response","370","353339","0.0-1.0-516.0","0","0","18765","","null","","","null","57","NaN","","","","","","","","","","","","","","",""
"","S2","","html-keyboard-response","371","353591","0.0-1.0-517.0","0","0","18765","","null","","","null","57","","NaN","","","","","","","","","","","","","",""
"","response","","html-keyboard-response","372","354046","0.0-1.0-518.0-0.0","0","0","18765","","454","","","68","57","","","2","57","training","adjacent","CB","3","2","N.jpg","R.jpg","0","0","1","",""
"","feedback","","html-keyboard-response","373","355049","0.0-1.0-519.0-0.0","0","0","18765","","null","","","null","57","","","","","","","","","","","","","","","",""
"","ITI","","html-keyboard-response","374","356052","0.0-1.0-522.0","0","0","18765","","null","","","null","57","","","","","","","","","","","","","","","NaN",""
"","S1","","html-keyboard-response","375","356306","0.0-1.0-524.0","0","0","18765","","null","","","null","58","","","","","","","","","","","","","","","",""
"","ISI","","html-keyboard-response","376","357310","0.0-1.0-525.0","0","0","18765","","null","","","null","58","NaN","","","","","","","","","","","","","","",""
"","S2","","html-keyboard-response","377","357565","0.0-1.0-526.0","0","0","18765","","null","","","null","58","","NaN","","","","","","","","","","","","","",""
"","response","","html-keyboard-response","378","358010","0.0-1.0-527.0-0.0","0","0","18765","","443","","","75","58","","","2","58","training","adjacent","DE","4","5","P.jpg","M.jpg","1","1","1","",""
"","feedback","","html-keyboard-response","379","359012","0.0-1.0-528.0-0.0","0","0","18765","","null","","","null","58","","","","","","","","","","","","","","","",""
"","ITI","","html-keyboard-response","380","360014","0.0-1.0-531.0","0","0","18765","","null","","","null","58","","","","","","","","","","","","","","","NaN",""
"","S1","","html-keyboard-response","381","360268","0.0-1.0-533.0","0","0","18765","","null","","","null","59","","","","","","","","","","","","","","","",""
"","ISI","","html-keyboard-response","382","361270","0.0-1.0-534.0","0","0","18765","","null","","","null","59","NaN","","","","","","","","","","","","","","",""
"","S2","","html-keyboard-response","383","361522","0.0-1.0-535.0","0","0","18765","","null","","","null","59","","NaN","","","","","","","","","","","","","",""
"","response","","html-keyboard-response","384","361742","0.0-1.0-536.0-0.0","0","0","18765","","220","","","75","59","","","2","59","training","adjacent","AB","1","2","L.jpg","R.jpg","1","1","1","",""
"","feedback","","html-keyboard-response","385","362745","0.0-1.0-537.0-0.0","0","0","18765","","null","","","null","59","","","","","","","","","","","","","","","",""
"","ITI","","html-keyboard-response","386","363747","0.0-1.0-540.0","0","0","18765","","null","","","null","59","","","","","","","","","","","","","","","NaN",""
"","S1","","html-keyboard-response","387","364001","0.0-1.0-542.0","0","0","18765","","null","","","null","60","","","","","","","","","","","","","","","",""
"","ISI","","html-keyboard-response","388","365003","0.0-1.0-543.0","0","0","18765","","null","","","null","60","NaN","","","","","","","","","","","","","","",""
"","S2","","html-keyboard-response","389","365255","0.0-1.0-544.0","0","0","18765","","null","","","null","60","","NaN","","","","","","","","","","","","","",""
"","response","","html-keyboard-response","390","365691","0.0-1.0-545.0-0.0","0","0","18765","","434","","","68","60","","","2","60","training","adjacent","CD","3","4","N.jpg","P.jpg","0","1","0","",""
"","feedback","","html-keyboard-response","391","366693","0.0-1.0-546.0-0.0","0","0","18765","","null","","","null","60","","","","","","","","","","","","","","","",""
"","time_out","","html-keyboard-response","392","368697","0.0-1.0-548.0-0.0","0","0","18765","","null","","","null","60","","","","","","","","","","","","","","","",""
"","ITI","","html-keyboard-response","393","369700","0.0-1.0-549.0","0","0","18765","","null","","","null","60","","","","","","","","","","","","","","","NaN",""
"","S1","","html-keyboard-response","394","369956","0.0-1.0-551.0","0","0","18765","","null","","","null","61","","","","","","","","","","","","","","","",""
"","ISI","","html-keyboard-response","395","370960","0.0-1.0-552.0","0","0","18765","","null","","","null","61","NaN","","","","","","","","","","","","","","",""
"","S2","","html-keyboard-response","396","371219","0.0-1.0-553.0","0","0","18765","","null","","","null","61","","NaN","","","","","","","","","","","","","",""
"","response","","html-keyboard-response","397","371433","0.0-1.0-554.0-0.0","0","0","18765","","212","","","68","61","","","2","61","training","adjacent","GF","7","6","Q.jpg","O.jpg","0","0","1","",""
"","feedback","","html-keyboard-response","398","372436","0.0-1.0-555.0-0.0","0","0","18765","","null","","","null","61","","","","","","","","","","","","","","","",""
"","ITI","","html-keyboard-response","399","373439","0.0-1.0-558.0","0","0","18765","","null","","","null","61","","","","","","","","","","","","","","","NaN",""
"","S1","","html-keyboard-response","400","373691","0.0-1.0-560.0","0","0","18765","","null","","","null","62","","","","","","","","","","","","","","","",""
"","ISI","","html-keyboard-response","401","374693","0.0-1.0-561.0","0","0","18765","","null","","","null","62","NaN","","","","","","","","","","","","","","",""
"","S2","","html-keyboard-response","402","374945","0.0-1.0-562.0","0","0","18765","","null","","","null","62","","NaN","","","","","","","","","","","","","",""
"","response","","html-keyboard-response","403","375171","0.0-1.0-563.0-0.0","0","0","18765","","224","","","68","62","","","2","62","training","adjacent","CB","3","2","N.jpg","R.jpg","0","0","1","",""
"","feedback","","html-keyboard-response","404","376175","0.0-1.0-564.0-0.0","0","0","18765","","null","","","null","62","","","","","","","","","","","","","","","",""
"","ITI","","html-keyboard-response","405","377179","0.0-1.0-567.0","0","0","18765","","null","","","null","62","","","","","","","","","","","","","","","NaN",""
"","S1","","html-keyboard-response","406","377433","0.0-1.0-569.0","0","0","18765","","null","","","null","63","","","","","","","","","","","","","","","",""
"","ISI","","html-keyboard-response","407","378437","0.0-1.0-570.0","0","0","18765","","null","","","null","63","NaN","","","","","","","","","","","","","","",""
"","S2","","html-keyboard-response","408","378691","0.0-1.0-571.0","0","0","18765","","null","","","null","63","","NaN","","","","","","","","","","","","","",""
"","response","","html-keyboard-response","409","379117","0.0-1.0-572.0-0.0","0","0","18765","","424","","","75","63","","","2","63","training","adjacent","BC","2","3","R.jpg","N.jpg","1","1","1","",""
"","feedback","","html-keyboard-response","410","380121","0.0-1.0-573.0-0.0","0","0","18765","","null","","","null","63","","","","","","","","","","","","","","","",""
"","ITI","","html-keyboard-response","411","381136","0.0-1.0-576.0","0","0","18765","","null","","","null","63","","","","","","","","","","","","","","","NaN",""
"","S1","","html-keyboard-response","412","381389","0.0-1.0-578.0","0","0","18765","","null","","","null","64","","","","","","","","","","","","","","","",""
"","ISI","","html-keyboard-response","413","382392","0.0-1.0-579.0","0","0","18765","","null","","","null","64","NaN","","","","","","","","","","","","","","",""
"","S2","","html-keyboard-response","414","382646","0.0-1.0-580.0","0","0","18765","","null","","","null","64","","NaN","","","","","","","","","","","","","",""
"","response","","html-keyboard-response","415","382977","0.0-1.0-581.0-0.0","0","0","18765","","329","","","75","64","","","2","64","training","adjacent","DC","4","3","P.jpg","N.jpg","1","0","0","",""
"","feedback","","html-keyboard-response","416","383980","0.0-1.0-582.0-0.0","0","0","18765","","null","","","null","64","","","","","","","","","","","","","","","",""
"","time_out","","html-keyboard-response","417","385984","0.0-1.0-584.0-0.0","0","0","18765","","null","","","null","64","","","","","","","","","","","","","","","",""
"","ITI","","html-keyboard-response","418","386987","0.0-1.0-585.0","0","0","18765","","null","","","null","64","","","","","","","","","","","","","","","NaN",""
"","S1","","html-keyboard-response","419","387240","0.0-1.0-587.0","0","0","18765","","null","","","null","65","","","","","","","","","","","","","","","",""
"","ISI","","html-keyboard-response","420","388242","0.0-1.0-588.0","0","0","18765","","null","","","null","65","NaN","","","","","","","","","","","","","","",""
"","S2","","html-keyboard-response","421","388496","0.0-1.0-589.0","0","0","18765","","null","","","null","65","","NaN","","","","","","","","","","","","","",""
"","response","","html-keyboard-response","422","388792","0.0-1.0-590.0-0.0","0","0","18765","","294","","","75","65","","","2","65","training","adjacent","ED","5","4","M.jpg","P.jpg","1","0","0","",""
"","feedback","","html-keyboard-response","423","389795","0.0-1.0-591.0-0.0","0","0","18765","","null","","","null","65","","","","","","","","","","","","","","","",""
"","time_out","","html-keyboard-response","424","391799","0.0-1.0-593.0-0.0","0","0","18765","","null","","","null","65","","","","","","","","","","","","","","","",""
"","ITI","","html-keyboard-response","425","392802","0.0-1.0-594.0","0","0","18765","","null","","","null","65","","","","","","","","","","","","","","","NaN",""
"","S1","","html-keyboard-response","426","393055","0.0-1.0-596.0","0","0","18765","","null","","","null","66","","","","","","","","","","","","","","","",""
"","ISI","","html-keyboard-response","427","394057","0.0-1.0-597.0","0","0","18765","","null","","","null","66","NaN","","","","","","","","","","","","","","",""
"","S2","","html-keyboard-response","428","394309","0.0-1.0-598.0","0","0","18765","","null","","","null","66","","NaN","","","","","","","","","","","","","",""
"","response","","html-keyboard-response","429","394683","0.0-1.0-599.0-0.0","0","0","18765","","372","","","68","66","","","2","66","training","adjacent","BA","2","1","R.jpg","L.jpg","0","0","1","",""
"","feedback","","html-keyboard-response","430","395686","0.0-1.0-600.0-0.0","0","0","18765","","null","","","null","66","","","","","","","","","","","","","","","",""
"","ITI","","html-keyboard-response","431","396689","0.0-1.0-603.0","0","0","18765","","null","","","null","66","","","","","","","","","","","","","","","NaN",""
"","S1","","html-keyboard-response","432","396943","0.0-1.0-605.0","0","0","18765","","null","","","null","67","","","","","","","","","","","","","","","",""
"","ISI","","html-keyboard-response","433","397947","0.0-1.0-606.0","0","0","18765","","null","","","null","67","NaN","","","","","","","","","","","","","","",""
"","S2","","html-keyboard-response","434","398201","0.0-1.0-607.0","0","0","18765","","null","","","null","67","","NaN","","","","","","","","","","","","","",""
"","response","","html-keyboard-response","435","398557","0.0-1.0-608.0-0.0","0","0","18765","","354","","","75","67","","","2","67","training","adjacent","EF","5","6","M.jpg","O.jpg","1","1","1","",""
"","feedback","","html-keyboard-response","436","399560","0.0-1.0-609.0-0.0","0","0","18765","","null","","","null","67","","","","","","","","","","","","","","","",""
"","ITI","","html-keyboard-response","437","400565","0.0-1.0-612.0","0","0","18765","","null","","","null","67","","","","","","","","","","","","","","","NaN",""
"","S1","","html-keyboard-response","438","400819","0.0-1.0-614.0","0","0","18765","","null","","","null","68","","","","","","","","","","","","","","","",""
"","ISI","","html-keyboard-response","439","401822","0.0-1.0-615.0","0","0","18765","","null","","","null","68","NaN","","","","","","","","","","","","","","",""
"","S2","","html-keyboard-response","440","402075","0.0-1.0-616.0","0","0","18765","","null","","","null","68","","NaN","","","","","","","","","","","","","",""
"","response","","html-keyboard-response","441","402077","0.0-1.0-617.0-0.0","0","0","18765","","0","","","68","68","","","2","68","training","adjacent","GF","7","6","Q.jpg","O.jpg","0","0","1","",""
"","feedback","","html-keyboard-response","442","403080","0.0-1.0-618.0-0.0","0","0","18765","","null","","","null","68","","","","","","","","","","","","","","","",""
"","ITI","","html-keyboard-response","443","404085","0.0-1.0-621.0","0","0","18765","","null","","","null","68","","","","","","","","","","","","","","","NaN",""
"","S1","","html-keyboard-response","444","404337","0.0-1.0-623.0","0","0","18765","","null","","","null","69","","","","","","","","","","","","","","","",""
"","ISI","","html-keyboard-response","445","405341","0.0-1.0-624.0","0","0","18765","","null","","","null","69","NaN","","","","","","","","","","","","","","",""
"","S2","","html-keyboard-response","446","405596","0.0-1.0-625.0","0","0","18765","","null","","","null","69","","NaN","","","","","","","","","","","","","",""
"","response","","html-keyboard-response","447","405905","0.0-1.0-626.0-0.0","0","0","18765","","307","","","68","69","","","2","69","training","adjacent","DE","4","5","P.jpg","M.jpg","0","1","0","",""
"","feedback","","html-keyboard-response","448","406907","0.0-1.0-627.0-0.0","0","0","18765","","null","","","null","69","","","","","","","","","","","","","","","",""
"","time_out","","html-keyboard-response","449","408911","0.0-1.0-629.0-0.0","0","0","18765","","null","","","null","69","","","","","","","","","","","","","","","",""
"","ITI","","html-keyboard-response","450","409915","0.0-1.0-630.0","0","0","18765","","null","","","null","69","","","","","","","","","","","","","","","NaN",""
"","S1","","html-keyboard-response","451","410169","0.0-1.0-632.0","0","0","18765","","null","","","null","70","","","","","","","","","","","","","","","",""
"","ISI","","html-keyboard-response","452","411171","0.0-1.0-633.0","0","0","18765","","null","","","null","70","NaN","","","","","","","","","","","","","","",""
"","S2","","html-keyboard-response","453","411424","0.0-1.0-634.0","0","0","18765","","null","","","null","70","","NaN","","","","","","","","","","","","","",""
"","response","","html-keyboard-response","454","411569","0.0-1.0-635.0-0.0","0","0","18765","","144","","","68","70","","","2","70","training","adjacent","CB","3","2","N.jpg","R.jpg","0","0","1","",""
"","feedback","","html-keyboard-response","455","412571","0.0-1.0-636.0-0.0","0","0","18765","","null","","","null","70","","","","","","","","","","","","","","","",""
"","ITI","","html-keyboard-response","456","413576","0.0-1.0-639.0","0","0","18765","","null","","","null","70","","","","","","","","","","","","","","","NaN",""
"","S1","","html-keyboard-response","457","413830","0.0-1.0-641.0","0","0","18765","","null","","","null","71","","","","","","","","","","","","","","","",""
"","ISI","","html-keyboard-response","458","414833","0.0-1.0-642.0","0","0","18765","","null","","","null","71","NaN","","","","","","","","","","","","","","",""
"","S2","","html-keyboard-response","459","415087","0.0-1.0-643.0","0","0","18765","","null","","","null","71","","NaN","","","","","","","","","","","","","",""
"","response","","html-keyboard-response","460","415480","0.0-1.0-644.0-0.0","0","0","18765","","391","","","75","71","","","2","71","training","adjacent","AB","1","2","L.jpg","R.jpg","1","1","1","",""
"","feedback","","html-keyboard-response","461","416483","0.0-1.0-645.0-0.0","0","0","18765","","null","","","null","71","","","","","","","","","","","","","","","",""
"","ITI","","html-keyboard-response","462","417486","0.0-1.0-648.0","0","0","18765","","null","","","null","71","","","","","","","","","","","","","","","NaN",""
"","S1","","html-keyboard-response","463","417739","0.0-1.0-650.0","0","0","18765","","null","","","null","72","","","","","","","","","","","","","","","",""
"","ISI","","html-keyboard-response","464","418742","0.0-1.0-651.0","0","0","18765","","null","","","null","72","NaN","","","","","","","","","","","","","","",""
"","S2","","html-keyboard-response","465","418996","0.0-1.0-652.0","0","0","18765","","null","","","null","72","","NaN","","","","","","","","","","","","","",""
"","response","","html-keyboard-response","466","419247","0.0-1.0-653.0-0.0","0","0","18765","","249","","","75","72","","","2","72","training","adjacent","DC","4","3","P.jpg","N.jpg","1","0","0","",""
"","feedback","","html-keyboard-response","467","420249","0.0-1.0-654.0-0.0","0","0","18765","","null","","","null","72","","","","","","","","","","","","","","","",""
"","time_out","","html-keyboard-response","468","422252","0.0-1.0-656.0-0.0","0","0","18765","","null","","","null","72","","","","","","","","","","","","","","","",""
"","ITI","","html-keyboard-response","469","423254","0.0-1.0-657.0","0","0","18765","","null","","","null","72","","","","","","","","","","","","","","","NaN",""
"","S1","","html-keyboard-response","470","423507","0.0-1.0-659.0","0","0","18765","","null","","","null","73","","","","","","","","","","","","","","","",""
"","ISI","","html-keyboard-response","471","424510","0.0-1.0-660.0","0","0","18765","","null","","","null","73","NaN","","","","","","","","","","","","","","",""
"","S2","","html-keyboard-response","472","424765","0.0-1.0-661.0","0","0","18765","","null","","","null","73","","NaN","","","","","","","","","","","","","",""
"","response","","html-keyboard-response","473","424970","0.0-1.0-662.0-0.0","0","0","18765","","203","","","75","73","","","2","73","training","adjacent","FE","6","5","O.jpg","M.jpg","1","0","0","",""
"","feedback","","html-keyboard-response","474","425973","0.0-1.0-663.0-0.0","0","0","18765","","null","","","null","73","","","","","","","","","","","","","","","",""
"","time_out","","html-keyboard-response","475","427975","0.0-1.0-665.0-0.0","0","0","18765","","null","","","null","73","","","","","","","","","","","","","","","",""
"","ITI","","html-keyboard-response","476","428977","0.0-1.0-666.0","0","0","18765","","null","","","null","73","","","","","","","","","","","","","","","NaN",""
"","S1","","html-keyboard-response","477","429231","0.0-1.0-668.0","0","0","18765","","null","","","null","74","","","","","","","","","","","","","","","",""
"","ISI","","html-keyboard-response","478","430236","0.0-1.0-669.0","0","0","18765","","null","","","null","74","NaN","","","","","","","","","","","","","","",""
"","S2","","html-keyboard-response","479","430488","0.0-1.0-670.0","0","0","18765","","null","","","null","74","","NaN","","","","","","","","","","","","","",""
"","response","","html-keyboard-response","480","430742","0.0-1.0-671.0-0.0","0","0","18765","","252","","","75","74","","","2","74","training","adjacent","BC","2","3","R.jpg","N.jpg","1","1","1","",""
"","feedback","","html-keyboard-response","481","431745","0.0-1.0-672.0-0.0","0","0","18765","","null","","","null","74","","","","","","","","","","","","","","","",""
"","ITI","","html-keyboard-response","482","432748","0.0-1.0-675.0","0","0","18765","","null","","","null","74","","","","","","","","","","","","","","","NaN",""
"","S1","","html-keyboard-response","483","433000","0.0-1.0-677.0","0","0","18765","","null","","","null","75","","","","","","","","","","","","","","","",""
"","ISI","","html-keyboard-response","484","434002","0.0-1.0-678.0","0","0","18765","","null","","","null","75","NaN","","","","","","","","","","","","","","",""
"","S2","","html-keyboard-response","485","434254","0.0-1.0-679.0","0","0","18765","","null","","","null","75","","NaN","","","","","","","","","","","","","",""
"","response","","html-keyboard-response","486","434486","0.0-1.0-680.0-0.0","0","0","18765","","230","","","68","75","","","2","75","training","adjacent","AB","1","2","L.jpg","R.jpg","0","1","0","",""
"","feedback","","html-keyboard-response","487","435489","0.0-1.0-681.0-0.0","0","0","18765","","null","","","null","75","","","","","","","","","","","","","","","",""
"","time_out","","html-keyboard-response","488","437493","0.0-1.0-683.0-0.0","0","0","18765","","null","","","null","75","","","","","","","","","","","","","","","",""
"","ITI","","html-keyboard-response","489","438496","0.0-1.0-684.0","0","0","18765","","null","","","null","75","","","","","","","","","","","","","","","NaN",""
"","S1","","html-keyboard-response","490","438747","0.0-1.0-686.0","0","0","18765","","null","","","null","76","","","","","","","","","","","","","","","",""
"","ISI","","html-keyboard-response","491","439750","0.0-1.0-687.0","0","0","18765","","null","","","null","76","NaN","","","","","","","","","","","","","","",""
"","S2","","html-keyboard-response","492","440004","0.0-1.0-688.0","0","0","18765","","null","","","null","76","","NaN","","","","","","","","","","","","","",""
"","response","","html-keyboard-response","493","440543","0.0-1.0-689.0-0.0","0","0","18765","","537","","","68","76","","","2","76","training","adjacent","ED","5","4","M.jpg","P.jpg","0","0","1","",""
"","feedback","","html-keyboard-response","494","441544","0.0-1.0-690.0-0.0","0","0","18765","","null","","","null","76","","","","","","","","","","","","","","","",""
"","ITI","","html-keyboard-response","495","442547","0.0-1.0-693.0","0","0","18765","","null","","","null","76","","","","","","","","","","","","","","","NaN",""
"","S1","","html-keyboard-response","496","442800","0.0-1.0-695.0","0","0","18765","","null","","","null","77","","","","","","","","","","","","","","","",""
"","ISI","","html-keyboard-response","497","443804","0.0-1.0-696.0","0","0","18765","","null","","","null","77","NaN","","","","","","","","","","","","","","",""
"","S2","","html-keyboard-response","498","444058","0.0-1.0-697.0","0","0","18765","","null","","","null","77","","NaN","","","","","","","","","","","","","",""
"","response","","html-keyboard-response","499","444244","0.0-1.0-698.0-0.0","0","0","18765","","184","","","75","77","","","2","77","training","adjacent","AB","1","2","L.jpg","R.jpg","1","1","1","",""
"","feedback","","html-keyboard-response","500","445247","0.0-1.0-699.0-0.0","0","0","18765","","null","","","null","77","","","","","","","","","","","","","","","",""
"","ITI","","html-keyboard-response","501","446250","0.0-1.0-702.0","0","0","18765","","null","","","null","77","","","","","","","","","","","","","","","NaN",""
"","S1","","html-keyboard-response","502","446503","0.0-1.0-704.0","0","0","18765","","null","","","null","78","","","","","","","","","","","","","","","",""
"","ISI","","html-keyboard-response","503","447507","0.0-1.0-705.0","0","0","18765","","null","","","null","78","NaN","","","","","","","","","","","","","","",""
"","S2","","html-keyboard-response","504","447761","0.0-1.0-706.0","0","0","18765","","null","","","null","78","","NaN","","","","","","","","","","","","","",""
"","response","","html-keyboard-response","505","448183","0.0-1.0-707.0-0.0","0","0","18765","","419","","","68","78","","","2","78","training","adjacent","FE","6","5","O.jpg","M.jpg","0","0","1","",""
"","feedback","","html-keyboard-response","506","449188","0.0-1.0-708.0-0.0","0","0","18765","","null","","","null","78","","","","","","","","","","","","","","","",""
"","ITI","","html-keyboard-response","507","450193","0.0-1.0-711.0","0","0","18765","","null","","","null","78","","","","","","","","","","","","","","","NaN",""
"","S1","","html-keyboard-response","508","450448","0.0-1.0-713.0","0","0","18765","","null","","","null","79","","","","","","","","","","","","","","","",""
"","ISI","","html-keyboard-response","509","451450","0.0-1.0-714.0","0","0","18765","","null","","","null","79","NaN","","","","","","","","","","","","","","",""
"","S2","","html-keyboard-response","510","451703","0.0-1.0-715.0","0","0","18765","","null","","","null","79","","NaN","","","","","","","","","","","","","",""
"","response","","html-keyboard-response","511","451946","0.0-1.0-716.0-0.0","0","0","18765","","242","","","68","79","","","2","79","training","adjacent","DE","4","5","P.jpg","M.jpg","0","1","0","",""
"","feedback","","html-keyboard-response","512","452951","0.0-1.0-717.0-0.0","0","0","18765","","null","","","null","79","","","","","","","","","","","","","","","",""
"","time_out","","html-keyboard-response","513","454954","0.0-1.0-719.0-0.0","0","0","18765","","null","","","null","79","","","","","","","","","","","","","","","",""
"","ITI","","html-keyboard-response","514","455957","0.0-1.0-720.0","0","0","18765","","null","","","null","79","","","","","","","","","","","","","","","NaN",""
"","S1","","html-keyboard-response","515","456211","0.0-1.0-722.0","0","0","18765","","null","","","null","80","","","","","","","","","","","","","","","",""
"","ISI","","html-keyboard-response","516","457215","0.0-1.0-723.0","0","0","18765","","null","","","null","80","NaN","","","","","","","","","","","","","","",""
"","S2","","html-keyboard-response","517","457467","0.0-1.0-724.0","0","0","18765","","null","","","null","80","","NaN","","","","","","","","","","","","","",""
"","response","","html-keyboard-response","518","457955","0.0-1.0-725.0-0.0","0","0","18765","","486","","","75","80","","","2","80","training","adjacent","EF","5","6","M.jpg","O.jpg","1","1","1","",""
"","feedback","","html-keyboard-response","519","458960","0.0-1.0-726.0-0.0","0","0","18765","","null","","","null","80","","","","","","","","","","","","","","","",""
"","ITI","","html-keyboard-response","520","459965","0.0-1.0-729.0","0","0","18765","","null","","","null","80","","","","","","","","","","","","","","","NaN",""
"","S1","","html-keyboard-response","521","460220","0.0-1.0-731.0","0","0","18765","","null","","","null","81","","","","","","","","","","","","","","","",""
"","ISI","","html-keyboard-response","522","461223","0.0-1.0-732.0","0","0","18765","","null","","","null","81","NaN","","","","","","","","","","","","","","",""
"","S2","","html-keyboard-response","523","461475","0.0-1.0-733.0","0","0","18765","","null","","","null","81","","NaN","","","","","","","","","","","","","",""
"","response","","html-keyboard-response","524","461950","0.0-1.0-734.0-0.0","0","0","18765","","474","","","75","81","","","2","81","training","adjacent","BC","2","3","R.jpg","N.jpg","1","1","1","",""
"","feedback","","html-keyboard-response","525","462955","0.0-1.0-735.0-0.0","0","0","18765","","null","","","null","81","","","","","","","","","","","","","","","",""
"","ITI","","html-keyboard-response","526","463959","0.0-1.0-738.0","0","0","18765","","null","","","null","81","","","","","","","","","","","","","","","NaN",""
"","S1","","html-keyboard-response","527","464214","0.0-1.0-740.0","0","0","18765","","null","","","null","82","","","","","","","","","","","","","","","",""
"","ISI","","html-keyboard-response","528","465217","0.0-1.0-741.0","0","0","18765","","null","","","null","82","NaN","","","","","","","","","","","","","","",""
"","S2","","html-keyboard-response","529","465470","0.0-1.0-742.0","0","0","18765","","null","","","null","82","","NaN","","","","","","","","","","","","","",""
"","response","","html-keyboard-response","530","465823","0.0-1.0-743.0-0.0","0","0","18765","","351","","","68","82","","","2","82","training","adjacent","BA","2","1","R.jpg","L.jpg","0","0","1","",""
"","feedback","","html-keyboard-response","531","466827","0.0-1.0-744.0-0.0","0","0","18765","","null","","","null","82","","","","","","","","","","","","","","","",""
"","ITI","","html-keyboard-response","532","467830","0.0-1.0-747.0","0","0","18765","","null","","","null","82","","","","","","","","","","","","","","","NaN",""
"","S1","","html-keyboard-response","533","468084","0.0-1.0-749.0","0","0","18765","","null","","","null","83","","","","","","","","","","","","","","","",""
"","ISI","","html-keyboard-response","534","469087","0.0-1.0-750.0","0","0","18765","","null","","","null","83","NaN","","","","","","","","","","","","","","",""
"","S2","","html-keyboard-response","535","469339","0.0-1.0-751.0","0","0","18765","","null","","","null","83","","NaN","","","","","","","","","","","","","",""
"","response","","html-keyboard-response","536","469887","0.0-1.0-752.0-0.0","0","0","18765","","544","","","75","83","","","2","83","training","adjacent","FE","6","5","O.jpg","M.jpg","1","0","0","",""
"","feedback","","html-keyboard-response","537","470889","0.0-1.0-753.0-0.0","0","0","18765","","null","","","null","83","","","","","","","","","","","","","","","",""
"","time_out","","html-keyboard-response","538","472892","0.0-1.0-755.0-0.0","0","0","18765","","null","","","null","83","","","","","","","","","","","","","","","",""
"","ITI","","html-keyboard-response","539","473896","0.0-1.0-756.0","0","0","18765","","null","","","null","83","","","","","","","","","","","","","","","NaN",""
"","S1","","html-keyboard-response","540","474149","0.0-1.0-758.0","0","0","18765","","null","","","null","84","","","","","","","","","","","","","","","",""
"","ISI","","html-keyboard-response","541","475152","0.0-1.0-759.0","0","0","18765","","null","","","null","84","NaN","","","","","","","","","","","","","","",""
"","S2","","html-keyboard-response","542","475405","0.0-1.0-760.0","0","0","18765","","null","","","null","84","","NaN","","","","","","","","","","","","","",""
"","response","","html-keyboard-response","543","475618","0.0-1.0-761.0-0.0","0","0","18765","","210","","","68","84","","","2","84","training","adjacent","CD","3","4","N.jpg","P.jpg","0","1","0","",""
"","feedback","","html-keyboard-response","544","476624","0.0-1.0-762.0-0.0","0","0","18765","","null","","","null","84","","","","","","","","","","","","","","","",""
"","time_out","","html-keyboard-response","545","478628","0.0-1.0-764.0-0.0","0","0","18765","","null","","","null","84","","","","","","","","","","","","","","","",""
"","ITI","","html-keyboard-response","546","479632","0.0-1.0-765.0","0","0","18765","","null","","","null","84","","","","","","","","","","","","","","","NaN",""
"","S1","","html-keyboard-response","547","479887","0.0-1.0-767.0","0","0","18765","","null","","","null","85","","","","","","","","","","","","","","","",""
"","ISI","","html-keyboard-response","548","480892","0.0-1.0-768.0","0","0","18765","","null","","","null","85","NaN","","","","","","","","","","","","","","",""
"","S2","","html-keyboard-response","549","481146","0.0-1.0-769.0","0","0","18765","","null","","","null","85","","NaN","","","","","","","","","","","","","",""
"","response","","html-keyboard-response","550","481603","0.0-1.0-770.0-0.0","0","0","18765","","455","","","68","85","","","2","85","training","adjacent","BA","2","1","R.jpg","L.jpg","0","0","1","",""
"","feedback","","html-keyboard-response","551","482606","0.0-1.0-771.0-0.0","0","0","18765","","null","","","null","85","","","","","","","","","","","","","","","",""
"","ITI","","html-keyboard-response","552","483611","0.0-1.0-774.0","0","0","18765","","null","","","null","85","","","","","","","","","","","","","","","NaN",""
"","S1","","html-keyboard-response","553","483865","0.0-1.0-776.0","0","0","18765","","null","","","null","86","","","","","","","","","","","","","","","",""
"","ISI","","html-keyboard-response","554","484868","0.0-1.0-777.0","0","0","18765","","null","","","null","86","NaN","","","","","","","","","","","","","","",""
"","S2","","html-keyboard-response","555","485121","0.0-1.0-778.0","0","0","18765","","null","","","null","86","","NaN","","","","","","","","","","","","","",""
"","response","","html-keyboard-response","556","485378","0.0-1.0-779.0-0.0","0","0","18765","","256","","","68","86","","","2","86","training","adjacent","CD","3","4","N.jpg","P.jpg","0","1","0","",""
"","feedback","","html-keyboard-response","557","486381","0.0-1.0-780.0-0.0","0","0","18765","","null","","","null","86","","","","","","","","","","","","","","","",""
"","time_out","","html-keyboard-response","558","488384","0.0-1.0-782.0-0.0","0","0","18765","","null","","","null","86","","","","","","","","","","","","","","","",""
"","ITI","","html-keyboard-response","559","489388","0.0-1.0-783.0","0","0","18765","","null","","","null","86","","","","","","","","","","","","","","","NaN",""
"","S1","","html-keyboard-response","560","489641","0.0-1.0-785.0","0","0","18765","","null","","","null","87","","","","","","","","","","","","","","","",""
"","ISI","","html-keyboard-response","561","490646","0.0-1.0-786.0","0","0","18765","","null","","","null","87","NaN","","","","","","","","","","","","","","",""
"","S2","","html-keyboard-response","562","490899","0.0-1.0-787.0","0","0","18765","","null","","","null","87","","NaN","","","","","","","","","","","","","",""
"","response","","html-keyboard-response","563","491302","0.0-1.0-788.0-0.0","0","0","18765","","402","","","75","87","","","2","87","training","adjacent","DC","4","3","P.jpg","N.jpg","1","0","0","",""
"","feedback","","html-keyboard-response","564","492304","0.0-1.0-789.0-0.0","0","0","18765","","null","","","null","87","","","","","","","","","","","","","","","",""
"","time_out","","html-keyboard-response","565","494308","0.0-1.0-791.0-0.0","0","0","18765","","null","","","null","87","","","","","","","","","","","","","","","",""
"","ITI","","html-keyboard-response","566","495312","0.0-1.0-792.0","0","0","18765","","null","","","null","87","","","","","","","","","","","","","","","NaN",""
"","S1","","html-keyboard-response","567","495566","0.0-1.0-794.0","0","0","18765","","null","","","null","88","","","","","","","","","","","","","","","",""
"","ISI","","html-keyboard-response","568","496570","0.0-1.0-795.0","0","0","18765","","null","","","null","88","NaN","","","","","","","","","","","","","","",""
"","S2","","html-keyboard-response","569","496824","0.0-1.0-796.0","0","0","18765","","null","","","null","88","","NaN","","","","","","","","","","","","","",""
"","response","","html-keyboard-response","570","497036","0.0-1.0-797.0-0.0","0","0","18765","","211","","","68","88","","","2","88","training","adjacent","FE","6","5","O.jpg","M.jpg","0","0","1","",""
"","feedback","","html-keyboard-response","571","498038","0.0-1.0-798.0-0.0","0","0","18765","","null","","","null","88","","","","","","","","","","","","","","","",""
"","ITI","","html-keyboard-response","572","499041","0.0-1.0-801.0","0","0","18765","","null","","","null","88","","","","","","","","","","","","","","","NaN",""
"","S1","","html-keyboard-response","573","499293","0.0-1.0-803.0","0","0","18765","","null","","","null","89","","","","","","","","","","","","","","","",""
"","ISI","","html-keyboard-response","574","500296","0.0-1.0-804.0","0","0","18765","","null","","","null","89","NaN","","","","","","","","","","","","","","",""
"","S2","","html-keyboard-response","575","500549","0.0-1.0-805.0","0","0","18765","","null","","","null","89","","NaN","","","","","","","","","","","","","",""
"","response","","html-keyboard-response","576","500911","0.0-1.0-806.0-0.0","0","0","18765","","361","","","75","89","","","2","89","training","adjacent","FG","6","7","O.jpg","Q.jpg","1","1","1","",""
"","feedback","","html-keyboard-response","577","501915","0.0-1.0-807.0-0.0","0","0","18765","","null","","","null","89","","","","","","","","","","","","","","","",""
"","ITI","","html-keyboard-response","578","502932","0.0-1.0-810.0","0","0","18765","","null","","","null","89","","","","","","","","","","","","","","","NaN",""
"","S1","","html-keyboard-response","579","503198","0.0-1.0-812.0","0","0","18765","","null","","","null","90","","","","","","","","","","","","","","","",""
"","ISI","","html-keyboard-response","580","504200","0.0-1.0-813.0","0","0","18765","","null","","","null","90","NaN","","","","","","","","","","","","","","",""
"","S2","","html-keyboard-response","581","504452","0.0-1.0-814.0","0","0","18765","","null","","","null","90","","NaN","","","","","","","","","","","","","",""
"","response","","html-keyboard-response","582","504759","0.0-1.0-815.0-0.0","0","0","18765","","305","","","68","90","","","2","90","training","adjacent","BA","2","1","R.jpg","L.jpg","0","0","1","",""
