"success","ttype","start_time","trial_type","trial_index","time_elapsed","internal_node_id","warning","missed_checkup","PID","view_history","rt","responses","repeat_instructions","key_press","index","keypress_isi","keypress_S2","block","trial_num","phase","group_type","pair_type","S1_stim","S2_stim","S1_img","S2_img","S1_chosen","S1_higher","accuracy","keypress_iti","total_bonus_tally"
"true","full_screen","d08012022hr1645","fullscreen","0","11415","0.0-0.0","0","0","47755","","","","","","","","","","","","","","","","","","","","","",""
"","instructions","","instructions","1","90529","0.0-1.0-0.0-0.0","0","0","47755","[{""page_index"":0,""viewing_time"":6629},{""page_index"":1,""viewing_time"":42735},{""page_index"":2,""viewing_time"":27884},{""page_index"":3,""viewing_time"":1864}]","79112","","","","","","","","","","","","","","","","","","","",""
"","comprehension_check","","survey-multi-choice","2","106519","0.0-1.0-0.0-1.0","0","0","47755","","15985","{""Q0"":""True"",""Q1"":""D"",""Q2"":""When you see the prompt 'MAKE A CHOICE' after the second image was presented"",""Q3"":""Green mark"",""Q4"":""either D or K""}","1","","","","","","","","","","","","","","","","","",""
"","missed_instruction_checkup","","html-keyboard-response","3","109867","0.0-1.0-0.0-2.0-0.0","0","1","47755","","3345","","","32","","","","","","","","","","","","","","","","",""
"","instructions","","instructions","4","129703","0.0-1.0-0.1-0.1","0","0","47755","[{""page_index"":0,""viewing_time"":1291},{""page_index"":1,""viewing_time"":13856},{""page_index"":2,""viewing_time"":3726},{""page_index"":3,""viewing_time"":962}]","19835","","","","","","","","","","","","","","","","","","","",""
"","comprehension_check","","survey-multi-choice","5","141859","0.0-1.0-0.1-1.1","0","0","47755","","12152","{""Q0"":""True"",""Q1"":""K"",""Q2"":""When you see the prompt 'MAKE A CHOICE' after the second image was presented"",""Q3"":""Green mark"",""Q4"":""either D or K""}","0","","","","","","","","","","","","","","","","","",""
"","start_exp","","html-keyboard-response","6","144063","0.0-1.0-1.0","0","0","47755","","2199","","","32","","","","","","","","","","","","","","","","",""
"","S1","","html-keyboard-response","7","144318","0.0-1.0-2.0","0","0","47755","","null","","","null","0","","","","","","","","","","","","","","","",""
"","ISI","","html-keyboard-response","8","146322","0.0-1.0-3.0","0","0","47755","","null","","","null","0","NaN","","","","","","","","","","","","","","",""
"","S2","","html-keyboard-response","9","146574","0.0-1.0-4.0","0","0","47755","","null","","","null","0","","NaN","","","","","","","","","","","","","",""
"","response","","html-keyboard-response","10","147294","0.0-1.0-5.0","0","0","47755","","716","","","75","0","","","1","0","training","adjacent","CB","3","2","L.jpg","P.jpg","1","0","0","",""
"","feedback","","html-keyboard-response","11","148298","0.0-1.0-6.0-0.0","0","0","47755","","null","","","null","0","","","","","","","","","","","","","","","",""
"","time_out","","html-keyboard-response","12","150304","0.0-1.0-8.0-0.0","0","0","47755","","null","","","null","0","","","","","","","","","","","","","","","",""
"","ITI","","html-keyboard-response","13","151307","0.0-1.0-9.0","0","0","47755","","null","","","null","0","","","","","","","","","","","","","","","NaN",""
"","S1","","html-keyboard-response","14","151563","0.0-1.0-11.0","0","0","47755","","null","","","null","1","","","","","","","","","","","","","","","",""
"","ISI","","html-keyboard-response","15","153568","0.0-1.0-12.0","0","0","47755","","null","","","null","1","NaN","","","","","","","","","","","","","","",""
"","S2","","html-keyboard-response","16","153821","0.0-1.0-13.0","0","0","47755","","null","","","null","1","","NaN","","","","","","","","","","","","","",""
"","response","","html-keyboard-response","17","154723","0.0-1.0-14.0","0","0","47755","","901","","","68","1","","","1","1","training","adjacent","EF","5","6","M.jpg","O.jpg","0","1","0","",""
"","feedback","","html-keyboard-response","18","155726","0.0-1.0-15.0-0.0","0","0","47755","","null","","","null","1","","","","","","","","","","","","","","","",""
"","time_out","","html-keyboard-response","19","157731","0.0-1.0-17.0-0.0","0","0","47755","","null","","","null","1","","","","","","","","","","","","","","","",""
"","ITI","","html-keyboard-response","20","158733","0.0-1.0-18.0","0","0","47755","","null","","","null","1","","","","","","","","","","","","","","","NaN",""
"","S1","","html-keyboard-response","21","158986","0.0-1.0-20.0","0","0","47755","","null","","","null","2","","","","","","","","","","","","","","","",""
"","ISI","","html-keyboard-response","22","160989","0.0-1.0-21.0","0","0","47755","","null","","","null","2","NaN","","","","","","","","","","","","","","",""
"","S2","","html-keyboard-response","23","161246","0.0-1.0-22.0","0","0","47755","","null","","","null","2","","NaN","","","","","","","","","","","","","",""
"","response","","html-keyboard-response","24","161899","0.0-1.0-23.0","0","0","47755","","651","","","75","2","","","1","2","training","adjacent","DC","4","3","Q.jpg","L.jpg","1","0","0","",""
"","feedback","","html-keyboard-response","25","162902","0.0-1.0-24.0-0.0","0","0","47755","","null","","","null","2","","","","","","","","","","","","","","","",""
"","time_out","","html-keyboard-response","26","164906","0.0-1.0-26.0-0.0","0","0","47755","","null","","","null","2","","","","","","","","","","","","","","","",""
"","ITI","","html-keyboard-response","27","165910","0.0-1.0-27.0","0","0","47755","","null","","","null","2","","","","","","","","","","","","","","","NaN",""
"","S1","","html-keyboard-response","28","166165","0.0-1.0-29.0","0","0","47755","","null","","","null","3","","","","","","","","","","","","","","","",""
"","ISI","","html-keyboard-response","29","168169","0.0-1.0-30.0","0","0","47755","","null","","","null","3","NaN","","","","","","","","","","","","","","",""
"","S2","","html-keyboard-response","30","168422","0.0-1.0-31.0","0","0","47755","","null","","","null","3","","NaN","","","","","","","","","","","","","",""
"","response","","html-keyboard-response","31","168981","0.0-1.0-32.0","0","0","47755","","555","","","68","3","","","1","3","training","adjacent","AB","1","2","N.jpg","P.jpg","0","1","0","",""
"","feedback","","html-keyboard-response","32","169984","0.0-1.0-33.0-0.0","0","0","47755","","null","","","null","3","","","","","","","","","","","","","","","",""
"","time_out","","html-keyboard-response","33","171988","0.0-1.0-35.0-0.0","0","0","47755","","null","","","null","3","","","","","","","","","","","","","","","",""
"","ITI","","html-keyboard-response","34","172991","0.0-1.0-36.0","0","0","47755","","null","","","null","3","","","","","","","","","","","","","","","NaN",""
"","S1","","html-keyboard-response","35","173244","0.0-1.0-38.0","0","0","47755","","null","","","null","4","","","","","","","","","","","","","","","",""
"","ISI","","html-keyboard-response","36","175271","0.0-1.0-39.0","0","0","47755","","null","","","null","4","NaN","","","","","","","","","","","","","","",""
"","S2","","html-keyboard-response","37","175525","0.0-1.0-40.0","0","0","47755","","null","","","null","4","","NaN","","","","","","","","","","","","","",""
"","response","","html-keyboard-response","38","175805","0.0-1.0-41.0","0","0","47755","","277","","","68","4","","","1","4","training","adjacent","EF","5","6","M.jpg","O.jpg","0","1","0","",""
"","feedback","","html-keyboard-response","39","176810","0.0-1.0-42.0-0.0","0","0","47755","","null","","","null","4","","","","","","","","","","","","","","","",""
"","time_out","","html-keyboard-response","40","178815","0.0-1.0-44.0-0.0","0","0","47755","","null","","","null","4","","","","","","","","","","","","","","","",""
"","ITI","","html-keyboard-response","41","179817","0.0-1.0-45.0","0","0","47755","","null","","","null","4","","","","","","","","","","","","","","","NaN",""
"","S1","","html-keyboard-response","42","180069","0.0-1.0-47.0","0","0","47755","","null","","","null","5","","","","","","","","","","","","","","","",""
"","ISI","","html-keyboard-response","43","182072","0.0-1.0-48.0","0","0","47755","","null","","","null","5","NaN","","","","","","","","","","","","","","",""
"","S2","","html-keyboard-response","44","182330","0.0-1.0-49.0","0","0","47755","","null","","","null","5","","NaN","","","","","","","","","","","","","",""
"","response","","html-keyboard-response","45","182883","0.0-1.0-50.0","0","0","47755","","548","","","75","5","","","1","5","training","adjacent","CD","3","4","L.jpg","Q.jpg","1","1","1","",""
"","feedback","","html-keyboard-response","46","183885","0.0-1.0-51.0-0.0","0","0","47755","","null","","","null","5","","","","","","","","","","","","","","","",""
"","ITI","","html-keyboard-response","47","184888","0.0-1.0-54.0","0","0","47755","","null","","","null","5","","","","","","","","","","","","","","","NaN",""
"","S1","","html-keyboard-response","48","185140","0.0-1.0-56.0","0","0","47755","","null","","","null","6","","","","","","","","","","","","","","","",""
"","ISI","","html-keyboard-response","49","187146","0.0-1.0-57.0","0","0","47755","","null","","","null","6","NaN","","","","","","","","","","","","","","",""
"","S2","","html-keyboard-response","50","187399","0.0-1.0-58.0","0","0","47755","","null","","","null","6","","NaN","","","","","","","","","","","","","",""
"","response","","html-keyboard-response","51","187973","0.0-1.0-59.0","0","0","47755","","572","","","75","6","","","1","6","training","adjacent","DE","4","5","Q.jpg","M.jpg","1","1","1","",""
"","feedback","","html-keyboard-response","52","188979","0.0-1.0-60.0-0.0","0","0","47755","","null","","","null","6","","","","","","","","","","","","","","","",""
"","ITI","","html-keyboard-response","53","189983","0.0-1.0-63.0","0","0","47755","","null","","","null","6","","","","","","","","","","","","","","","NaN",""
"","S1","","html-keyboard-response","54","190237","0.0-1.0-65.0","0","0","47755","","null","","","null","7","","","","","","","","","","","","","","","",""
"","ISI","","html-keyboard-response","55","192239","0.0-1.0-66.0","0","0","47755","","null","","","null","7","NaN","","","","","","","","","","","","","","",""
"","S2","","html-keyboard-response","56","192493","0.0-1.0-67.0","0","0","47755","","null","","","null","7","","NaN","","","","","","","","","","","","","",""
"","response","","html-keyboard-response","57","193013","0.0-1.0-68.0","0","0","47755","","518","","","75","7","","","1","7","training","adjacent","CD","3","4","L.jpg","Q.jpg","1","1","1","",""
"","feedback","","html-keyboard-response","58","194017","0.0-1.0-69.0-0.0","0","0","47755","","null","","","null","7","","","","","","","","","","","","","","","",""
"","ITI","","html-keyboard-response","59","195021","0.0-1.0-72.0","0","0","47755","","null","","","null","7","","","","","","","","","","","","","","","NaN",""
"","S1","","html-keyboard-response","60","195275","0.0-1.0-74.0","0","0","47755","","null","","","null","8","","","","","","","","","","","","","","","",""
"","ISI","","html-keyboard-response","61","197278","0.0-1.0-75.0","0","0","47755","","null","","","null","8","NaN","","","","","","","","","","","","","","",""
"","S2","","html-keyboard-response","62","197530","0.0-1.0-76.0","0","0","47755","","null","","","null","8","","NaN","","","","","","","","","","","","","",""
"","response","","html-keyboard-response","63","198476","0.0-1.0-77.0","0","0","47755","","944","","","75","8","","","1","8","training","adjacent","CB","3","2","L.jpg","P.jpg","1","0","0","",""
"","feedback","","html-keyboard-response","64","199480","0.0-1.0-78.0-0.0","0","0","47755","","null","","","null","8","","","","","","","","","","","","","","","",""
"","time_out","","html-keyboard-response","65","201482","0.0-1.0-80.0-0.0","0","0","47755","","null","","","null","8","","","","","","","","","","","","","","","",""
"","ITI","","html-keyboard-response","66","202485","0.0-1.0-81.0","0","0","47755","","null","","","null","8","","","","","","","","","","","","","","","NaN",""
"","S1","","html-keyboard-response","67","202737","0.0-1.0-83.0","0","0","47755","","null","","","null","9","","","","","","","","","","","","","","","",""
"","ISI","","html-keyboard-response","68","204740","0.0-1.0-84.0","0","0","47755","","null","","","null","9","NaN","","","","","","","","","","","","","","",""
"","S2","","html-keyboard-response","69","204993","0.0-1.0-85.0","0","0","47755","","null","","","null","9","","NaN","","","","","","","","","","","","","",""
"","response","","html-keyboard-response","70","205469","0.0-1.0-86.0","0","0","47755","","474","","","68","9","","","1","9","training","adjacent","FE","6","5","O.jpg","M.jpg","0","0","1","",""
"","feedback","","html-keyboard-response","71","206471","0.0-1.0-87.0-0.0","0","0","47755","","null","","","null","9","","","","","","","","","","","","","","","",""
"","ITI","","html-keyboard-response","72","207474","0.0-1.0-90.0","0","0","47755","","null","","","null","9","","","","","","","","","","","","","","","NaN",""
"","S1","","html-keyboard-response","73","207729","0.0-1.0-92.0","0","0","47755","","null","","","null","10","","","","","","","","","","","","","","","",""
"","ISI","","html-keyboard-response","74","209732","0.0-1.0-93.0","0","0","47755","","null","","","null","10","NaN","","","","","","","","","","","","","","",""
"","S2","","html-keyboard-response","75","209986","0.0-1.0-94.0","0","0","47755","","null","","","null","10","","NaN","","","","","","","","","","","","","",""
"","response","","html-keyboard-response","76","210443","0.0-1.0-95.0","0","0","47755","","455","","","68","10","","","1","10","training","adjacent","CB","3","2","L.jpg","P.jpg","0","0","1","",""
"","feedback","","html-keyboard-response","77","211445","0.0-1.0-96.0-0.0","0","0","47755","","null","","","null","10","","","","","","","","","","","","","","","",""
"","ITI","","html-keyboard-response","78","212447","0.0-1.0-99.0","0","0","47755","","null","","","null","10","","","","","","","","","","","","","","","NaN",""
"","S1","","html-keyboard-response","79","212699","0.0-1.0-101.0","0","0","47755","","null","","","null","11","","","","","","","","","","","","","","","",""
"","ISI","","html-keyboard-response","80","214702","0.0-1.0-102.0","0","0","47755","","null","","","null","11","NaN","","","","","","","","","","","","","","",""
"","S2","","html-keyboard-response","81","214954","0.0-1.0-103.0","0","0","47755","","null","","","null","11","","NaN","","","","","","","","","","","","","",""
"","response","","html-keyboard-response","82","215310","0.0-1.0-104.0","0","0","47755","","351","","","68","11","","","1","11","training","adjacent","DC","4","3","Q.jpg","L.jpg","0","0","1","",""
"","feedback","","html-keyboard-response","83","216315","0.0-1.0-105.0-0.0","0","0","47755","","null","","","null","11","","","","","","","","","","","","","","","",""
"","ITI","","html-keyboard-response","84","217318","0.0-1.0-108.0","0","0","47755","","null","","","null","11","","","","","","","","","","","","","","","NaN",""
"","S1","","html-keyboard-response","85","217571","0.0-1.0-110.0","0","0","47755","","null","","","null","12","","","","","","","","","","","","","","","",""
"","ISI","","html-keyboard-response","86","219575","0.0-1.0-111.0","0","0","47755","","null","","","null","12","NaN","","","","","","","","","","","","","","",""
"","S2","","html-keyboard-response","87","219830","0.0-1.0-112.0","0","0","47755","","null","","","null","12","","NaN","","","","","","","","","","","","","",""
"","response","","html-keyboard-response","88","220340","0.0-1.0-113.0","0","0","47755","","507","","","75","12","","","1","12","training","adjacent","DE","4","5","Q.jpg","M.jpg","1","1","1","",""
"","feedback","","html-keyboard-response","89","221345","0.0-1.0-114.0-0.0","0","0","47755","","null","","","null","12","","","","","","","","","","","","","","","",""
"","ITI","","html-keyboard-response","90","222349","0.0-1.0-117.0","0","0","47755","","null","","","null","12","","","","","","","","","","","","","","","NaN",""
"","S1","","html-keyboard-response","91","222602","0.0-1.0-119.0","0","0","47755","","null","","","null","13","","","","","","","","","","","","","","","",""
"","ISI","","html-keyboard-response","92","224604","0.0-1.0-120.0","0","0","47755","","null","","","null","13","NaN","","","","","","","","","","","","","","",""
"","S2","","html-keyboard-response","93","224856","0.0-1.0-121.0","0","0","47755","","null","","","null","13","","NaN","","","","","","","","","","","","","",""
"","response","","html-keyboard-response","94","225629","0.0-1.0-122.0","0","0","47755","","770","","","75","13","","","1","13","training","adjacent","CD","3","4","L.jpg","Q.jpg","1","1","1","",""
"","feedback","","html-keyboard-response","95","226633","0.0-1.0-123.0-0.0","0","0","47755","","null","","","null","13","","","","","","","","","","","","","","","",""
"","ITI","","html-keyboard-response","96","227635","0.0-1.0-126.0","0","0","47755","","null","","","null","13","","","","","","","","","","","","","","","NaN",""
"","S1","","html-keyboard-response","97","227888","0.0-1.0-128.0","0","0","47755","","null","","","null","14","","","","","","","","","","","","","","","",""
"","ISI","","html-keyboard-response","98","229891","0.0-1.0-129.0","0","0","47755","","null","","","null","14","NaN","","","","","","","","","","","","","","",""
"","S2","","html-keyboard-response","99","230144","0.0-1.0-130.0","0","0","47755","","null","","","null","14","","NaN","","","","","","","","","","","","","",""
"","response","","html-keyboard-response","100","230804","0.0-1.0-131.0","0","0","47755","","658","","","75","14","","","1","14","training","adjacent","DC","4","3","Q.jpg","L.jpg","1","0","0","",""
"","feedback","","html-keyboard-response","101","231807","0.0-1.0-132.0-0.0","0","0","47755","","null","","","null","14","","","","","","","","","","","","","","","",""
"","time_out","","html-keyboard-response","102","233811","0.0-1.0-134.0-0.0","0","0","47755","","null","","","null","14","","","","","","","","","","","","","","","",""
"","ITI","","html-keyboard-response","103","234814","0.0-1.0-135.0","0","0","47755","","null","","","null","14","","","","","","","","","","","","","","","NaN",""
"","S1","","html-keyboard-response","104","235066","0.0-1.0-137.0","0","0","47755","","null","","","null","15","","","","","","","","","","","","","","","",""
"","ISI","","html-keyboard-response","105","237070","0.0-1.0-138.0","0","0","47755","","null","","","null","15","NaN","","","","","","","","","","","","","","",""
"","S2","","html-keyboard-response","106","237323","0.0-1.0-139.0","0","0","47755","","null","","","null","15","","NaN","","","","","","","","","","","","","",""
"","response","","html-keyboard-response","107","238165","0.0-1.0-140.0","0","0","47755","","839","","","68","15","","","1","15","training","adjacent","FG","6","7","O.jpg","R.jpg","0","1","0","",""
"","feedback","","html-keyboard-response","108","239171","0.0-1.0-141.0-0.0","0","0","47755","","null","","","null","15","","","","","","","","","","","","","","","",""
"","time_out","","html-keyboard-response","109","241175","0.0-1.0-143.0-0.0","0","0","47755","","null","","","null","15","","","","","","","","","","","","","","","",""
"","ITI","","html-keyboard-response","110","242178","0.0-1.0-144.0","0","0","47755","","null","","","null","15","","","","","","","","","","","","","","","NaN",""
"","S1","","html-keyboard-response","111","242436","0.0-1.0-146.0","0","0","47755","","null","","","null","16","","","","","","","","","","","","","","","",""
"","ISI","","html-keyboard-response","112","244439","0.0-1.0-147.0","0","0","47755","","null","","","null","16","NaN","","","","","","","","","","","","","","",""
"","S2","","html-keyboard-response","113","244692","0.0-1.0-148.0","0","0","47755","","null","","","null","16","","NaN","","","","","","","","","","","","","",""
"","response","","html-keyboard-response","114","245202","0.0-1.0-149.0","0","0","47755","","509","","","75","16","","","1","16","training","adjacent","BA","2","1","P.jpg","N.jpg","1","0","0","",""
"","feedback","","html-keyboard-response","115","246205","0.0-1.0-150.0-0.0","0","0","47755","","null","","","null","16","","","","","","","","","","","","","","","",""
"","time_out","","html-keyboard-response","116","248209","0.0-1.0-152.0-0.0","0","0","47755","","null","","","null","16","","","","","","","","","","","","","","","",""
"","ITI","","html-keyboard-response","117","249212","0.0-1.0-153.0","0","0","47755","","null","","","null","16","","","","","","","","","","","","","","","NaN",""
"","S1","","html-keyboard-response","118","249467","0.0-1.0-155.0","0","0","47755","","null","","","null","17","","","","","","","","","","","","","","","",""
"","ISI","","html-keyboard-response","119","251469","0.0-1.0-156.0","0","0","47755","","null","","","null","17","NaN","","","","","","","","","","","","","","",""
"","S2","","html-keyboard-response","120","251722","0.0-1.0-157.0","0","0","47755","","null","","","null","17","","NaN","","","","","","","","","","","","","",""
"","response","","html-keyboard-response","121","252114","0.0-1.0-158.0","0","0","47755","","391","","","68","17","","","1","17","training","adjacent","ED","5","4","M.jpg","Q.jpg","0","0","1","",""
"","feedback","","html-keyboard-response","122","253118","0.0-1.0-159.0-0.0","0","0","47755","","null","","","null","17","","","","","","","","","","","","","","","",""
"","ITI","","html-keyboard-response","123","254121","0.0-1.0-162.0","0","0","47755","","null","","","null","17","","","","","","","","","","","","","","","NaN",""
"","S1","","html-keyboard-response","124","254375","0.0-1.0-164.0","0","0","47755","","null","","","null","18","","","","","","","","","","","","","","","",""
"","ISI","","html-keyboard-response","125","256380","0.0-1.0-165.0","0","0","47755","","null","","","null","18","NaN","","","","","","","","","","","","","","",""
"","S2","","html-keyboard-response","126","256634","0.0-1.0-166.0","0","0","47755","","null","","","null","18","","NaN","","","","","","","","","","","","","",""
"","response","","html-keyboard-response","127","257411","0.0-1.0-167.0","0","0","47755","","774","","","75","18","","","1","18","training","adjacent","BA","2","1","P.jpg","N.jpg","1","0","0","",""
"","feedback","","html-keyboard-response","128","258415","0.0-1.0-168.0-0.0","0","0","47755","","null","","","null","18","","","","","","","","","","","","","","","",""
"","time_out","","html-keyboard-response","129","260418","0.0-1.0-170.0-0.0","0","0","47755","","null","","","null","18","","","","","","","","","","","","","","","",""
"","ITI","","html-keyboard-response","130","261421","0.0-1.0-171.0","0","0","47755","","null","","","null","18","","","","","","","","","","","","","","","NaN",""
"","S1","","html-keyboard-response","131","261673","0.0-1.0-173.0","0","0","47755","","null","","","null","19","","","","","","","","","","","","","","","",""
"","ISI","","html-keyboard-response","132","263678","0.0-1.0-174.0","0","0","47755","","193","","","68","19","d","","","","","","","","","","","","","","",""
"","S2","","html-keyboard-response","133","263932","0.0-1.0-175.0","0","0","47755","","null","","","null","19","","NaN","","","","","","","","","","","","","",""
"","response","","html-keyboard-response","134","264469","0.0-1.0-176.0","0","0","47755","","535","","","68","19","","","1","19","training","adjacent","FG","6","7","O.jpg","R.jpg","0","1","0","",""
"","feedback","","html-keyboard-response","135","265473","0.0-1.0-177.0-0.0","0","0","47755","","null","","","null","19","","","","","","","","","","","","","","","",""
"","time_out","","html-keyboard-response","136","267476","0.0-1.0-179.0-0.0","0","0","47755","","null","","","null","19","","","","","","","","","","","","","","","",""
"","ITI","","html-keyboard-response","137","268479","0.0-1.0-180.0","0","0","47755","","null","","","null","19","","","","","","","","","","","","","","","NaN",""
"","S1","","html-keyboard-response","138","268732","0.0-1.0-182.0","0","0","47755","","null","","","null","20","","","","","","","","","","","","","","","",""
"","ISI","","html-keyboard-response","139","270735","0.0-1.0-183.0","0","0","47755","","null","","","null","20","NaN","","","","","","","","","","","","","","",""
"","S2","","html-keyboard-response","140","270989","0.0-1.0-184.0","0","0","47755","","null","","","null","20","","NaN","","","","","","","","","","","","","",""
"","response","","html-keyboard-response","141","271562","0.0-1.0-185.0","0","0","47755","","571","","","75","20","","","1","20","training","adjacent","FE","6","5","O.jpg","M.jpg","1","0","0","",""
"","feedback","","html-keyboard-response","142","272564","0.0-1.0-186.0-0.0","0","0","47755","","null","","","null","20","","","","","","","","","","","","","","","",""
"","time_out","","html-keyboard-response","143","274566","0.0-1.0-188.0-0.0","0","0","47755","","null","","","null","20","","","","","","","","","","","","","","","",""
"","ITI","","html-keyboard-response","144","275569","0.0-1.0-189.0","0","0","47755","","null","","","null","20","","","","","","","","","","","","","","","NaN",""
"","S1","","html-keyboard-response","145","275822","0.0-1.0-191.0","0","0","47755","","null","","","null","21","","","","","","","","","","","","","","","",""
"","ISI","","html-keyboard-response","146","277826","0.0-1.0-192.0","0","0","47755","","null","","","null","21","NaN","","","","","","","","","","","","","","",""
"","S2","","html-keyboard-response","147","278080","0.0-1.0-193.0","0","0","47755","","null","","","null","21","","NaN","","","","","","","","","","","","","",""
"","response","","html-keyboard-response","148","278733","0.0-1.0-194.0","0","0","47755","","649","","","68","21","","","1","21","training","adjacent","ED","5","4","M.jpg","Q.jpg","0","0","1","",""
"","feedback","","html-keyboard-response","149","279738","0.0-1.0-195.0-0.0","0","0","47755","","null","","","null","21","","","","","","","","","","","","","","","",""
"","ITI","","html-keyboard-response","150","280744","0.0-1.0-198.0","0","0","47755","","null","","","null","21","","","","","","","","","","","","","","","NaN",""
"","S1","","html-keyboard-response","151","280997","0.0-1.0-200.0","0","0","47755","","null","","","null","22","","","","","","","","","","","","","","","",""
"","ISI","","html-keyboard-response","152","283000","0.0-1.0-201.0","0","0","47755","","null","","","null","22","NaN","","","","","","","","","","","","","","",""
"","S2","","html-keyboard-response","153","283254","0.0-1.0-202.0","0","0","47755","","null","","","null","22","","NaN","","","","","","","","","","","","","",""
"","response","","html-keyboard-response","154","284349","0.0-1.0-203.0","0","0","47755","","1091","","","75","22","","","1","22","training","adjacent","BC","2","3","P.jpg","L.jpg","1","1","1","",""
"","feedback","","html-keyboard-response","155","285353","0.0-1.0-204.0-0.0","0","0","47755","","null","","","null","22","","","","","","","","","","","","","","","",""
"","ITI","","html-keyboard-response","156","286357","0.0-1.0-207.0","0","0","47755","","null","","","null","22","","","","","","","","","","","","","","","NaN",""
"","S1","","html-keyboard-response","157","286611","0.0-1.0-209.0","0","0","47755","","null","","","null","23","","","","","","","","","","","","","","","",""
"","ISI","","html-keyboard-response","158","288614","0.0-1.0-210.0","0","0","47755","","null","","","null","23","NaN","","","","","","","","","","","","","","",""
"","S2","","html-keyboard-response","159","288867","0.0-1.0-211.0","0","0","47755","","null","","","null","23","","NaN","","","","","","","","","","","","","",""
"","response","","html-keyboard-response","160","289138","0.0-1.0-212.0","0","0","47755","","269","","","75","23","","","1","23","training","adjacent","DE","4","5","Q.jpg","M.jpg","1","1","1","",""
"","feedback","","html-keyboard-response","161","290142","0.0-1.0-213.0-0.0","0","0","47755","","null","","","null","23","","","","","","","","","","","","","","","",""
"","ITI","","html-keyboard-response","162","291147","0.0-1.0-216.0","0","0","47755","","null","","","null","23","","","","","","","","","","","","","","","NaN",""
"","S1","","html-keyboard-response","163","291401","0.0-1.0-218.0","0","0","47755","","null","","","null","24","","","","","","","","","","","","","","","",""
"","ISI","","html-keyboard-response","164","293403","0.0-1.0-219.0","0","0","47755","","null","","","null","24","NaN","","","","","","","","","","","","","","",""
"","S2","","html-keyboard-response","165","293657","0.0-1.0-220.0","0","0","47755","","null","","","null","24","","NaN","","","","","","","","","","","","","",""
"","response","","html-keyboard-response","166","293845","0.0-1.0-221.0","0","0","47755","","185","","","68","24","","","1","24","training","adjacent","BA","2","1","P.jpg","N.jpg","0","0","1","",""
"","feedback","","html-keyboard-response","167","294850","0.0-1.0-222.0-0.0","0","0","47755","","null","","","null","24","","","","","","","","","","","","","","","",""
"","ITI","","html-keyboard-response","168","295853","0.0-1.0-225.0","0","0","47755","","null","","","null","24","","","","","","","","","","","","","","","NaN",""
"","S1","","html-keyboard-response","169","296107","0.0-1.0-227.0","0","0","47755","","null","","","null","25","","","","","","","","","","","","","","","",""
"","ISI","","html-keyboard-response","170","298124","0.0-1.0-228.0","0","0","47755","","null","","","null","25","NaN","","","","","","","","","","","","","","",""
"","S2","","html-keyboard-response","171","298377","0.0-1.0-229.0","0","0","47755","","null","","","null","25","","NaN","","","","","","","","","","","","","",""
"","response","","html-keyboard-response","172","298710","0.0-1.0-230.0","0","0","47755","","329","","","75","25","","","1","25","training","adjacent","BC","2","3","P.jpg","L.jpg","1","1","1","",""
"","feedback","","html-keyboard-response","173","299714","0.0-1.0-231.0-0.0","0","0","47755","","null","","","null","25","","","","","","","","","","","","","","","",""
"","ITI","","html-keyboard-response","174","300716","0.0-1.0-234.0","0","0","47755","","null","","","null","25","","","","","","","","","","","","","","","NaN",""
"","S1","","html-keyboard-response","175","300970","0.0-1.0-236.0","0","0","47755","","null","","","null","26","","","","","","","","","","","","","","","",""
"","ISI","","html-keyboard-response","176","302974","0.0-1.0-237.0","0","0","47755","","null","","","null","26","NaN","","","","","","","","","","","","","","",""
"","S2","","html-keyboard-response","177","303227","0.0-1.0-238.0","0","0","47755","","null","","","null","26","","NaN","","","","","","","","","","","","","",""
"","response","","html-keyboard-response","178","303484","0.0-1.0-239.0","0","0","47755","","254","","","75","26","","","1","26","training","adjacent","EF","5","6","M.jpg","O.jpg","1","1","1","",""
"","feedback","","html-keyboard-response","179","304486","0.0-1.0-240.0-0.0","0","0","47755","","null","","","null","26","","","","","","","","","","","","","","","",""
"","ITI","","html-keyboard-response","180","305488","0.0-1.0-243.0","0","0","47755","","null","","","null","26","","","","","","","","","","","","","","","NaN",""
"","S1","","html-keyboard-response","181","305740","0.0-1.0-245.0","0","0","47755","","null","","","null","27","","","","","","","","","","","","","","","",""
"","ISI","","html-keyboard-response","182","307743","0.0-1.0-246.0","0","0","47755","","null","","","null","27","NaN","","","","","","","","","","","","","","",""
"","S2","","html-keyboard-response","183","307997","0.0-1.0-247.0","0","0","47755","","null","","","null","27","","NaN","","","","","","","","","","","","","",""
"","response","","html-keyboard-response","184","308244","0.0-1.0-248.0","0","0","47755","","244","","","75","27","","","1","27","training","adjacent","AB","1","2","N.jpg","P.jpg","1","1","1","",""
"","feedback","","html-keyboard-response","185","309248","0.0-1.0-249.0-0.0","0","0","47755","","null","","","null","27","","","","","","","","","","","","","","","",""
"","ITI","","html-keyboard-response","186","310252","0.0-1.0-252.0","0","0","47755","","null","","","null","27","","","","","","","","","","","","","","","NaN",""
"","S1","","html-keyboard-response","187","310506","0.0-1.0-254.0","0","0","47755","","null","","","null","28","","","","","","","","","","","","","","","",""
"","ISI","","html-keyboard-response","188","312511","0.0-1.0-255.0","0","0","47755","","null","","","null","28","NaN","","","","","","","","","","","","","","",""
"","S2","","html-keyboard-response","189","312764","0.0-1.0-256.0","0","0","47755","","null","","","null","28","","NaN","","","","","","","","","","","","","",""
"","response","","html-keyboard-response","190","313228","0.0-1.0-257.0","0","0","47755","","461","","","75","28","","","1","28","training","adjacent","FG","6","7","O.jpg","R.jpg","1","1","1","",""
"","feedback","","html-keyboard-response","191","314232","0.0-1.0-258.0-0.0","0","0","47755","","null","","","null","28","","","","","","","","","","","","","","","",""
"","ITI","","html-keyboard-response","192","315235","0.0-1.0-261.0","0","0","47755","","null","","","null","28","","","","","","","","","","","","","","","NaN",""
"","S1","","html-keyboard-response","193","315489","0.0-1.0-263.0","0","0","47755","","null","","","null","29","","","","","","","","","","","","","","","",""
"","ISI","","html-keyboard-response","194","317495","0.0-1.0-264.0","0","0","47755","","null","","","null","29","NaN","","","","","","","","","","","","","","",""
"","S2","","html-keyboard-response","195","317748","0.0-1.0-265.0","0","0","47755","","null","","","null","29","","NaN","","","","","","","","","","","","","",""
"","response","","html-keyboard-response","196","317996","0.0-1.0-266.0","0","0","47755","","246","","","75","29","","","1","29","training","adjacent","DC","4","3","Q.jpg","L.jpg","1","0","0","",""
"","feedback","","html-keyboard-response","197","318998","0.0-1.0-267.0-0.0","0","0","47755","","null","","","null","29","","","","","","","","","","","","","","","",""
"","time_out","","html-keyboard-response","198","321001","0.0-1.0-269.0-0.0","0","0","47755","","null","","","null","29","","","","","","","","","","","","","","","",""
"","ITI","","html-keyboard-response","199","322004","0.0-1.0-270.0","0","0","47755","","null","","","null","29","","","","","","","","","","","","","","","NaN",""
"","S1","","html-keyboard-response","200","322257","0.0-1.0-272.0","0","0","47755","","null","","","null","30","","","","","","","","","","","","","","","",""
"","ISI","","html-keyboard-response","201","324260","0.0-1.0-273.0","0","0","47755","","null","","","null","30","NaN","","","","","","","","","","","","","","",""
"","S2","","html-keyboard-response","202","324515","0.0-1.0-274.0","0","0","47755","","null","","","null","30","","NaN","","","","","","","","","","","","","",""
"","response","","html-keyboard-response","203","325306","0.0-1.0-275.0","0","0","47755","","790","","","68","30","","","1","30","training","adjacent","FE","6","5","O.jpg","M.jpg","0","0","1","",""
"","feedback","","html-keyboard-response","204","326311","0.0-1.0-276.0-0.0","0","0","47755","","null","","","null","30","","","","","","","","","","","","","","","",""
"","ITI","","html-keyboard-response","205","327316","0.0-1.0-279.0","0","0","47755","","null","","","null","30","","","","","","","","","","","","","","","NaN",""
"","S1","","html-keyboard-response","206","327569","0.0-1.0-281.0","0","0","47755","","null","","","null","31","","","","","","","","","","","","","","","",""
"","ISI","","html-keyboard-response","207","329572","0.0-1.0-282.0","0","0","47755","","null","","","null","31","NaN","","","","","","","","","","","","","","",""
"","S2","","html-keyboard-response","208","329826","0.0-1.0-283.0","0","0","47755","","null","","","null","31","","NaN","","","","","","","","","","","","","",""
"","response","","html-keyboard-response","209","330101","0.0-1.0-284.0","0","0","47755","","273","","","75","31","","","1","31","training","adjacent","AB","1","2","N.jpg","P.jpg","1","1","1","",""
"","feedback","","html-keyboard-response","210","331104","0.0-1.0-285.0-0.0","0","0","47755","","null","","","null","31","","","","","","","","","","","","","","","",""
"","ITI","","html-keyboard-response","211","332108","0.0-1.0-288.0","0","0","47755","","null","","","null","31","","","","","","","","","","","","","","","NaN",""
"","S1","","html-keyboard-response","212","332362","0.0-1.0-290.0","0","0","47755","","null","","","null","32","","","","","","","","","","","","","","","",""
"","ISI","","html-keyboard-response","213","334364","0.0-1.0-291.0","0","0","47755","","null","","","null","32","NaN","","","","","","","","","","","","","","",""
"","S2","","html-keyboard-response","214","334616","0.0-1.0-292.0","0","0","47755","","null","","","null","32","","NaN","","","","","","","","","","","","","",""
"","response","","html-keyboard-response","215","334995","0.0-1.0-293.0","0","0","47755","","378","","","75","32","","","1","32","training","adjacent","CD","3","4","L.jpg","Q.jpg","1","1","1","",""
"","feedback","","html-keyboard-response","216","335998","0.0-1.0-294.0-0.0","0","0","47755","","null","","","null","32","","","","","","","","","","","","","","","",""
"","ITI","","html-keyboard-response","217","337001","0.0-1.0-297.0","0","0","47755","","null","","","null","32","","","","","","","","","","","","","","","NaN",""
"","S1","","html-keyboard-response","218","337253","0.0-1.0-299.0","0","0","47755","","null","","","null","33","","","","","","","","","","","","","","","",""
"","ISI","","html-keyboard-response","219","339256","0.0-1.0-300.0","0","0","47755","","null","","","null","33","NaN","","","","","","","","","","","","","","",""
"","S2","","html-keyboard-response","220","339509","0.0-1.0-301.0","0","0","47755","","null","","","null","33","","NaN","","","","","","","","","","","","","",""
"","response","","html-keyboard-response","221","339829","0.0-1.0-302.0","0","0","47755","","316","","","75","33","","","1","33","training","adjacent","BC","2","3","P.jpg","L.jpg","1","1","1","",""
"","feedback","","html-keyboard-response","222","340832","0.0-1.0-303.0-0.0","0","0","47755","","null","","","null","33","","","","","","","","","","","","","","","",""
"","ITI","","html-keyboard-response","223","341835","0.0-1.0-306.0","0","0","47755","","null","","","null","33","","","","","","","","","","","","","","","NaN",""
"","S1","","html-keyboard-response","224","342088","0.0-1.0-308.0","0","0","47755","","null","","","null","34","","","","","","","","","","","","","","","",""
"","ISI","","html-keyboard-response","225","344092","0.0-1.0-309.0","0","0","47755","","null","","","null","34","NaN","","","","","","","","","","","","","","",""
"","S2","","html-keyboard-response","226","344345","0.0-1.0-310.0","0","0","47755","","null","","","null","34","","NaN","","","","","","","","","","","","","",""
"","response","","html-keyboard-response","227","344451","0.0-1.0-311.0","0","0","47755","","104","","","68","34","","","1","34","training","adjacent","AB","1","2","N.jpg","P.jpg","0","1","0","",""
"","feedback","","html-keyboard-response","228","345455","0.0-1.0-312.0-0.0","0","0","47755","","null","","","null","34","","","","","","","","","","","","","","","",""
"","time_out","","html-keyboard-response","229","347460","0.0-1.0-314.0-0.0","0","0","47755","","null","","","null","34","","","","","","","","","","","","","","","",""
"","ITI","","html-keyboard-response","230","348465","0.0-1.0-315.0","0","0","47755","","null","","","null","34","","","","","","","","","","","","","","","NaN",""
"","S1","","html-keyboard-response","231","348718","0.0-1.0-317.0","0","0","47755","","null","","","null","35","","","","","","","","","","","","","","","",""
"","ISI","","html-keyboard-response","232","350721","0.0-1.0-318.0","0","0","47755","","275","","","75","35","k","","","","","","","","","","","","","","",""
"","S2","","html-keyboard-response","233","350976","0.0-1.0-319.0","0","0","47755","","null","","","null","35","","NaN","","","","","","","","","","","","","",""
"","response","","html-keyboard-response","234","351236","0.0-1.0-320.0","0","0","47755","","258","","","75","35","","","1","35","training","adjacent","GF","7","6","R.jpg","O.jpg","1","0","0","",""
"","feedback","","html-keyboard-response","235","352241","0.0-1.0-321.0-0.0","0","0","47755","","null","","","null","35","","","","","","","","","","","","","","","",""
"","time_out","","html-keyboard-response","236","354245","0.0-1.0-323.0-0.0","0","0","47755","","null","","","null","35","","","","","","","","","","","","","","","",""
"","ITI","","html-keyboard-response","237","355249","0.0-1.0-324.0","0","0","47755","","null","","","null","35","","","","","","","","","","","","","","","NaN",""
"","S1","","html-keyboard-response","238","355503","0.0-1.0-326.0","0","0","47755","","null","","","null","36","","","","","","","","","","","","","","","",""
"","ISI","","html-keyboard-response","239","357506","0.0-1.0-327.0","0","0","47755","","null","","","null","36","NaN","","","","","","","","","","","","","","",""
"","S2","","html-keyboard-response","240","357760","0.0-1.0-328.0","0","0","47755","","null","","","null","36","","NaN","","","","","","","","","","","","","",""
"","response","","html-keyboard-response","241","358180","0.0-1.0-329.0","0","0","47755","","418","","","68","36","","","1","36","training","adjacent","CB","3","2","L.jpg","P.jpg","0","0","1","",""
"","feedback","","html-keyboard-response","242","359183","0.0-1.0-330.0-0.0","0","0","47755","","null","","","null","36","","","","","","","","","","","","","","","",""
"","ITI","","html-keyboard-response","243","360185","0.0-1.0-333.0","0","0","47755","","null","","","null","36","","","","","","","","","","","","","","","NaN",""
"","S1","","html-keyboard-response","244","360439","0.0-1.0-335.0","0","0","47755","","null","","","null","37","","","","","","","","","","","","","","","",""
"","ISI","","html-keyboard-response","245","362442","0.0-1.0-336.0","0","0","47755","","null","","","null","37","NaN","","","","","","","","","","","","","","",""
"","S2","","html-keyboard-response","246","362696","0.0-1.0-337.0","0","0","47755","","null","","","null","37","","NaN","","","","","","","","","","","","","",""
"","response","","html-keyboard-response","247","362957","0.0-1.0-338.0","0","0","47755","","259","","","68","37","","","1","37","training","adjacent","GF","7","6","R.jpg","O.jpg","0","0","1","",""
"","feedback","","html-keyboard-response","248","363962","0.0-1.0-339.0-0.0","0","0","47755","","null","","","null","37","","","","","","","","","","","","","","","",""
"","ITI","","html-keyboard-response","249","364964","0.0-1.0-342.0","0","0","47755","","null","","","null","37","","","","","","","","","","","","","","","NaN",""
"","S1","","html-keyboard-response","250","365218","0.0-1.0-344.0","0","0","47755","","null","","","null","38","","","","","","","","","","","","","","","",""
"","ISI","","html-keyboard-response","251","367221","0.0-1.0-345.0","0","0","47755","","null","","","null","38","NaN","","","","","","","","","","","","","","",""
"","S2","","html-keyboard-response","252","367476","0.0-1.0-346.0","0","0","47755","","null","","","null","38","","NaN","","","","","","","","","","","","","",""
"","response","","html-keyboard-response","253","367747","0.0-1.0-347.0","0","0","47755","","268","","","68","38","","","1","38","training","adjacent","GF","7","6","R.jpg","O.jpg","0","0","1","",""
"","feedback","","html-keyboard-response","254","368750","0.0-1.0-348.0-0.0","0","0","47755","","null","","","null","38","","","","","","","","","","","","","","","",""
"","ITI","","html-keyboard-response","255","369754","0.0-1.0-351.0","0","0","47755","","null","","","null","38","","","","","","","","","","","","","","","NaN",""
"","S1","","html-keyboard-response","256","370010","0.0-1.0-353.0","0","0","47755","","null","","","null","39","","","","","","","","","","","","","","","",""
"","ISI","","html-keyboard-response","257","372014","0.0-1.0-354.0","0","0","47755","","null","","","null","39","NaN","","","","","","","","","","","","","","",""
"","S2","","html-keyboard-response","258","372268","0.0-1.0-355.0","0","0","47755","","null","","","null","39","","NaN","","","","","","","","","","","","","",""
"","response","","html-keyboard-response","259","373060","0.0-1.0-356.0","0","0","47755","","790","","","68","39","","","1","39","training","adjacent","FE","6","5","O.jpg","M.jpg","0","0","1","",""
"","feedback","","html-keyboard-response","260","374063","0.0-1.0-357.0-0.0","0","0","47755","","null","","","null","39","","","","","","","","","","","","","","","",""
"","ITI","","html-keyboard-response","261","375065","0.0-1.0-360.0","0","0","47755","","null","","","null","39","","","","","","","","","","","","","","","NaN",""
"","S1","","html-keyboard-response","262","375318","0.0-1.0-362.0","0","0","47755","","null","","","null","40","","","","","","","","","","","","","","","",""
"","ISI","","html-keyboard-response","263","377319","0.0-1.0-363.0","0","0","47755","","null","","","null","40","NaN","","","","","","","","","","","","","","",""
"","S2","","html-keyboard-response","264","377573","0.0-1.0-364.0","0","0","47755","","null","","","null","40","","NaN","","","","","","","","","","","","","",""
"","response","","html-keyboard-response","265","377740","0.0-1.0-365.0","0","0","47755","","164","","","75","40","","","1","40","training","adjacent","ED","5","4","M.jpg","Q.jpg","1","0","0","",""
"","feedback","","html-keyboard-response","266","378744","0.0-1.0-366.0-0.0","0","0","47755","","null","","","null","40","","","","","","","","","","","","","","","",""
"","time_out","","html-keyboard-response","267","380748","0.0-1.0-368.0-0.0","0","0","47755","","null","","","null","40","","","","","","","","","","","","","","","",""
"","ITI","","html-keyboard-response","268","381750","0.0-1.0-369.0","0","0","47755","","null","","","null","40","","","","","","","","","","","","","","","NaN",""
"","S1","","html-keyboard-response","269","382002","0.0-1.0-371.0","0","0","47755","","null","","","null","41","","","","","","","","","","","","","","","",""
"","ISI","","html-keyboard-response","270","384006","0.0-1.0-372.0","0","0","47755","","null","","","null","41","NaN","","","","","","","","","","","","","","",""
"","S2","","html-keyboard-response","271","384261","0.0-1.0-373.0","0","0","47755","","null","","","null","41","","NaN","","","","","","","","","","","","","",""
"","response","","html-keyboard-response","272","384437","0.0-1.0-374.0","0","0","47755","","173","","","68","41","","","1","41","training","adjacent","FG","6","7","O.jpg","R.jpg","0","1","0","",""
"","feedback","","html-keyboard-response","273","385440","0.0-1.0-375.0-0.0","0","0","47755","","null","","","null","41","","","","","","","","","","","","","","","",""
"","time_out","","html-keyboard-response","274","387444","0.0-1.0-377.0-0.0","0","0","47755","","null","","","null","41","","","","","","","","","","","","","","","",""
"","ITI","","html-keyboard-response","275","388446","0.0-1.0-378.0","0","0","47755","","null","","","null","41","","","","","","","","","","","","","","","NaN",""
"","S1","","html-keyboard-response","276","388699","0.0-1.0-380.0","0","0","47755","","null","","","null","42","","","","","","","","","","","","","","","",""
"","ISI","","html-keyboard-response","277","390702","0.0-1.0-381.0","0","0","47755","","null","","","null","42","NaN","","","","","","","","","","","","","","",""
"","S2","","html-keyboard-response","278","390956","0.0-1.0-382.0","0","0","47755","","null","","","null","42","","NaN","","","","","","","","","","","","","",""
"","response","","html-keyboard-response","279","391148","0.0-1.0-383.0","0","0","47755","","189","","","75","42","","","1","42","training","adjacent","BA","2","1","P.jpg","N.jpg","1","0","0","",""
"","feedback","","html-keyboard-response","280","392151","0.0-1.0-384.0-0.0","0","0","47755","","null","","","null","42","","","","","","","","","","","","","","","",""
"","time_out","","html-keyboard-response","281","394154","0.0-1.0-386.0-0.0","0","0","47755","","null","","","null","42","","","","","","","","","","","","","","","",""
"","ITI","","html-keyboard-response","282","395156","0.0-1.0-387.0","0","0","47755","","null","","","null","42","","","","","","","","","","","","","","","NaN",""
"","S1","","html-keyboard-response","283","395409","0.0-1.0-389.0","0","0","47755","","null","","","null","43","","","","","","","","","","","","","","","",""
"","ISI","","html-keyboard-response","284","397411","0.0-1.0-390.0","0","0","47755","","null","","","null","43","NaN","","","","","","","","","","","","","","",""
"","S2","","html-keyboard-response","285","397665","0.0-1.0-391.0","0","0","47755","","null","","","null","43","","NaN","","","","","","","","","","","","","",""
"","response","","html-keyboard-response","286","397859","0.0-1.0-392.0","0","0","47755","","193","","","68","43","","","1","43","training","adjacent","ED","5","4","M.jpg","Q.jpg","0","0","1","",""
"","feedback","","html-keyboard-response","287","398861","0.0-1.0-393.0-0.0","0","0","47755","","null","","","null","43","","","","","","","","","","","","","","","",""
"","ITI","","html-keyboard-response","288","399862","0.0-1.0-396.0","0","0","47755","","null","","","null","43","","","","","","","","","","","","","","","NaN",""
"","S1","","html-keyboard-response","289","400115","0.0-1.0-398.0","0","0","47755","","null","","","null","44","","","","","","","","","","","","","","","",""
"","ISI","","html-keyboard-response","290","402118","0.0-1.0-399.0","0","0","47755","","null","","","null","44","NaN","","","","","","","","","","","","","","",""
"","S2","","html-keyboard-response","291","402371","0.0-1.0-400.0","0","0","47755","","null","","","null","44","","NaN","","","","","","","","","","","","","",""
"","response","","html-keyboard-response","292","402932","0.0-1.0-401.0","0","0","47755","","559","","","75","44","","","1","44","training","adjacent","BC","2","3","P.jpg","L.jpg","1","1","1","",""
"","feedback","","html-keyboard-response","293","403935","0.0-1.0-402.0-0.0","0","0","47755","","null","","","null","44","","","","","","","","","","","","","","","",""
"","ITI","","html-keyboard-response","294","404938","0.0-1.0-405.0","0","0","47755","","null","","","null","44","","","","","","","","","","","","","","","NaN",""
"","S1","","html-keyboard-response","295","405191","0.0-1.0-407.0","0","0","47755","","null","","","null","45","","","","","","","","","","","","","","","",""
"","ISI","","html-keyboard-response","296","407198","0.0-1.0-408.0","0","0","47755","","null","","","null","45","NaN","","","","","","","","","","","","","","",""
"","S2","","html-keyboard-response","297","407450","0.0-1.0-409.0","0","0","47755","","null","","","null","45","","NaN","","","","","","","","","","","","","",""
"","response","","html-keyboard-response","298","407620","0.0-1.0-410.0","0","0","47755","","167","","","75","45","","","1","45","training","adjacent","GF","7","6","R.jpg","O.jpg","1","0","0","",""
"","feedback","","html-keyboard-response","299","408623","0.0-1.0-411.0-0.0","0","0","47755","","null","","","null","45","","","","","","","","","","","","","","","",""
"","time_out","","html-keyboard-response","300","410625","0.0-1.0-413.0-0.0","0","0","47755","","null","","","null","45","","","","","","","","","","","","","","","",""
"","ITI","","html-keyboard-response","301","411628","0.0-1.0-414.0","0","0","47755","","null","","","null","45","","","","","","","","","","","","","","","NaN",""
"","S1","","html-keyboard-response","302","411881","0.0-1.0-416.0","0","0","47755","","null","","","null","46","","","","","","","","","","","","","","","",""
"","ISI","","html-keyboard-response","303","413884","0.0-1.0-417.0","0","0","47755","","211","","","68","46","d","","","","","","","","","","","","","","",""
"","S2","","html-keyboard-response","304","414136","0.0-1.0-418.0","0","0","47755","","null","","","null","46","","NaN","","","","","","","","","","","","","",""
"","response","","html-keyboard-response","305","414293","0.0-1.0-419.0","0","0","47755","","154","","","68","46","","","1","46","training","adjacent","DE","4","5","Q.jpg","M.jpg","0","1","0","",""
"","feedback","","html-keyboard-response","306","415297","0.0-1.0-420.0-0.0","0","0","47755","","null","","","null","46","","","","","","","","","","","","","","","",""
"","time_out","","html-keyboard-response","307","417300","0.0-1.0-422.0-0.0","0","0","47755","","null","","","null","46","","","","","","","","","","","","","","","",""
"","ITI","","html-keyboard-response","308","418303","0.0-1.0-423.0","0","0","47755","","null","","","null","46","","","","","","","","","","","","","","","NaN",""
"","S1","","html-keyboard-response","309","418556","0.0-1.0-425.0","0","0","47755","","null","","","null","47","","","","","","","","","","","","","","","",""
"","ISI","","html-keyboard-response","310","420560","0.0-1.0-426.0","0","0","47755","","238","","","75","47","k","","","","","","","","","","","","","","",""
"","S2","","html-keyboard-response","311","420814","0.0-1.0-427.0","0","0","47755","","null","","","null","47","","NaN","","","","","","","","","","","","","",""
"","response","","html-keyboard-response","312","420996","0.0-1.0-428.0","0","0","47755","","180","","","75","47","","","1","47","training","adjacent","EF","5","6","M.jpg","O.jpg","1","1","1","",""
"","feedback","","html-keyboard-response","313","422000","0.0-1.0-429.0-0.0","0","0","47755","","null","","","null","47","","","","","","","","","","","","","","","",""
"","ITI","","html-keyboard-response","314","423003","0.0-1.0-432.0","0","0","47755","","null","","","null","47","","","","","","","","","","","","","","","NaN",""
"","block_over","","html-keyboard-response","315","473164","0.0-1.0-433.0-0.0","0","0","47755","","50157","","","32","47","","","","","","","","","","","","","","","",""
"","S1","","html-keyboard-response","316","473416","0.0-1.0-434.0","0","0","47755","","null","","","null","48","","","","","","","","","","","","","","","",""
"","ISI","","html-keyboard-response","317","475419","0.0-1.0-435.0","0","0","47755","","null","","","null","48","NaN","","","","","","","","","","","","","","",""
"","S2","","html-keyboard-response","318","475672","0.0-1.0-436.0","0","0","47755","","null","","","null","48","","NaN","","","","","","","","","","","","","",""
"","response","","html-keyboard-response","319","476228","0.0-1.0-437.0","0","0","47755","","553","","","75","48","","","2","48","training","adjacent","BA","2","1","P.jpg","N.jpg","1","0","0","",""
"","feedback","","html-keyboard-response","320","477234","0.0-1.0-438.0-0.0","0","0","47755","","null","","","null","48","","","","","","","","","","","","","","","",""
"","time_out","","html-keyboard-response","321","479238","0.0-1.0-440.0-0.0","0","0","47755","","null","","","null","48","","","","","","","","","","","","","","","",""
"","ITI","","html-keyboard-response","322","480243","0.0-1.0-441.0","0","0","47755","","null","","","null","48","","","","","","","","","","","","","","","NaN",""
"","S1","","html-keyboard-response","323","480496","0.0-1.0-443.0","0","0","47755","","null","","","null","49","","","","","","","","","","","","","","","",""
"","ISI","","html-keyboard-response","324","482500","0.0-1.0-444.0","0","0","47755","","null","","","null","49","NaN","","","","","","","","","","","","","","",""
"","S2","","html-keyboard-response","325","482753","0.0-1.0-445.0","0","0","47755","","null","","","null","49","","NaN","","","","","","","","","","","","","",""
"","response","","html-keyboard-response","326","483836","0.0-1.0-446.0","0","0","47755","","1080","","","68","49","","","2","49","training","adjacent","ED","5","4","M.jpg","Q.jpg","0","0","1","",""
"","feedback","","html-keyboard-response","327","484840","0.0-1.0-447.0-0.0","0","0","47755","","null","","","null","49","","","","","","","","","","","","","","","",""
"","ITI","","html-keyboard-response","328","485847","0.0-1.0-450.0","0","0","47755","","null","","","null","49","","","","","","","","","","","","","","","NaN",""
"","S1","","html-keyboard-response","329","486099","0.0-1.0-452.0","0","0","47755","","null","","","null","50","","","","","","","","","","","","","","","",""
"","ISI","","html-keyboard-response","330","488102","0.0-1.0-453.0","0","0","47755","","null","","","null","50","NaN","","","","","","","","","","","","","","",""
"","S2","","html-keyboard-response","331","488355","0.0-1.0-454.0","0","0","47755","","null","","","null","50","","NaN","","","","","","","","","","","","","",""
"","response","","html-keyboard-response","332","488962","0.0-1.0-455.0","0","0","47755","","606","","","75","50","","","2","50","training","adjacent","BA","2","1","P.jpg","N.jpg","1","0","0","",""
"","feedback","","html-keyboard-response","333","489966","0.0-1.0-456.0-0.0","0","0","47755","","null","","","null","50","","","","","","","","","","","","","","","",""
"","time_out","","html-keyboard-response","334","491969","0.0-1.0-458.0-0.0","0","0","47755","","null","","","null","50","","","","","","","","","","","","","","","",""
"","ITI","","html-keyboard-response","335","492973","0.0-1.0-459.0","0","0","47755","","null","","","null","50","","","","","","","","","","","","","","","NaN",""
"","S1","","html-keyboard-response","336","493227","0.0-1.0-461.0","0","0","47755","","null","","","null","51","","","","","","","","","","","","","","","",""
"","ISI","","html-keyboard-response","337","495232","0.0-1.0-462.0","0","0","47755","","null","","","null","51","NaN","","","","","","","","","","","","","","",""
"","S2","","html-keyboard-response","338","495485","0.0-1.0-463.0","0","0","47755","","null","","","null","51","","NaN","","","","","","","","","","","","","",""
"","response","","html-keyboard-response","339","496029","0.0-1.0-464.0","0","0","47755","","541","","","68","51","","","2","51","training","adjacent","FG","6","7","O.jpg","R.jpg","0","1","0","",""
"","feedback","","html-keyboard-response","340","497033","0.0-1.0-465.0-0.0","0","0","47755","","null","","","null","51","","","","","","","","","","","","","","","",""
"","time_out","","html-keyboard-response","341","499037","0.0-1.0-467.0-0.0","0","0","47755","","null","","","null","51","","","","","","","","","","","","","","","",""
"","ITI","","html-keyboard-response","342","500040","0.0-1.0-468.0","0","0","47755","","null","","","null","51","","","","","","","","","","","","","","","NaN",""
"","S1","","html-keyboard-response","343","500296","0.0-1.0-470.0","0","0","47755","","null","","","null","52","","","","","","","","","","","","","","","",""
"","ISI","","html-keyboard-response","344","502299","0.0-1.0-471.0","0","0","47755","","null","","","null","52","NaN","","","","","","","","","","","","","","",""
"","S2","","html-keyboard-response","345","502554","0.0-1.0-472.0","0","0","47755","","null","","","null","52","","NaN","","","","","","","","","","","","","",""
"","response","","html-keyboard-response","346","502714","0.0-1.0-473.0","0","0","47755","","159","","","75","52","","","2","52","training","adjacent","BA","2","1","P.jpg","N.jpg","1","0","0","",""
"","feedback","","html-keyboard-response","347","503717","0.0-1.0-474.0-0.0","0","0","47755","","null","","","null","52","","","","","","","","","","","","","","","",""
"","time_out","","html-keyboard-response","348","505720","0.0-1.0-476.0-0.0","0","0","47755","","null","","","null","52","","","","","","","","","","","","","","","",""
"","ITI","","html-keyboard-response","349","506724","0.0-1.0-477.0","0","0","47755","","null","","","null","52","","","","","","","","","","","","","","","NaN",""
"","S1","","html-keyboard-response","350","506978","0.0-1.0-479.0","0","0","47755","","null","","","null","53","","","","","","","","","","","","","","","",""
"","ISI","","html-keyboard-response","351","508981","0.0-1.0-480.0","0","0","47755","","543","","","68","53","d","","","","","","","","","","","","","","",""
"","S2","","html-keyboard-response","352","509235","0.0-1.0-481.0","0","0","47755","","null","","","null","53","","NaN","","","","","","","","","","","","","",""
"","response","","html-keyboard-response","353","509618","0.0-1.0-482.0","0","0","47755","","381","","","68","53","","","2","53","training","adjacent","FE","6","5","O.jpg","M.jpg","0","0","1","",""
"","feedback","","html-keyboard-response","354","510621","0.0-1.0-483.0-0.0","0","0","47755","","null","","","null","53","","","","","","","","","","","","","","","",""
"","ITI","","html-keyboard-response","355","511624","0.0-1.0-486.0","0","0","47755","","null","","","null","53","","","","","","","","","","","","","","","NaN",""
"","S1","","html-keyboard-response","356","511877","0.0-1.0-488.0","0","0","47755","","null","","","null","54","","","","","","","","","","","","","","","",""
"","ISI","","html-keyboard-response","357","513882","0.0-1.0-489.0","0","0","47755","","null","","","null","54","NaN","","","","","","","","","","","","","","",""
"","S2","","html-keyboard-response","358","514134","0.0-1.0-490.0","0","0","47755","","null","","","null","54","","NaN","","","","","","","","","","","","","",""
"","response","","html-keyboard-response","359","514267","0.0-1.0-491.0","0","0","47755","","131","","","75","54","","","2","54","training","adjacent","BC","2","3","P.jpg","L.jpg","1","1","1","",""
"","feedback","","html-keyboard-response","360","515272","0.0-1.0-492.0-0.0","0","0","47755","","null","","","null","54","","","","","","","","","","","","","","","",""
"","ITI","","html-keyboard-response","361","516276","0.0-1.0-495.0","0","0","47755","","null","","","null","54","","","","","","","","","","","","","","","NaN",""
"","S1","","html-keyboard-response","362","516529","0.0-1.0-497.0","0","0","47755","","null","","","null","55","","","","","","","","","","","","","","","",""
"","ISI","","html-keyboard-response","363","518533","0.0-1.0-498.0","0","0","47755","","null","","","null","55","NaN","","","","","","","","","","","","","","",""
"","S2","","html-keyboard-response","364","518785","0.0-1.0-499.0","0","0","47755","","null","","","null","55","","NaN","","","","","","","","","","","","","",""
"","response","","html-keyboard-response","365","518914","0.0-1.0-500.0","0","0","47755","","127","","","75","55","","","2","55","training","adjacent","EF","5","6","M.jpg","O.jpg","1","1","1","",""
"","feedback","","html-keyboard-response","366","519917","0.0-1.0-501.0-0.0","0","0","47755","","null","","","null","55","","","","","","","","","","","","","","","",""
"","ITI","","html-keyboard-response","367","520919","0.0-1.0-504.0","0","0","47755","","null","","","null","55","","","","","","","","","","","","","","","NaN",""
"","S1","","html-keyboard-response","368","521172","0.0-1.0-506.0","0","0","47755","","null","","","null","56","","","","","","","","","","","","","","","",""
"","ISI","","html-keyboard-response","369","523175","0.0-1.0-507.0","0","0","47755","","null","","","null","56","NaN","","","","","","","","","","","","","","",""
"","S2","","html-keyboard-response","370","523428","0.0-1.0-508.0","0","0","47755","","null","","","null","56","","NaN","","","","","","","","","","","","","",""
"","response","","html-keyboard-response","371","523604","0.0-1.0-509.0","0","0","47755","","173","","","75","56","","","2","56","training","adjacent","FE","6","5","O.jpg","M.jpg","1","0","0","",""
"","feedback","","html-keyboard-response","372","524608","0.0-1.0-510.0-0.0","0","0","47755","","null","","","null","56","","","","","","","","","","","","","","","",""
"","time_out","","html-keyboard-response","373","526611","0.0-1.0-512.0-0.0","0","0","47755","","null","","","null","56","","","","","","","","","","","","","","","",""
"","ITI","","html-keyboard-response","374","527613","0.0-1.0-513.0","0","0","47755","","null","","","null","56","","","","","","","","","","","","","","","NaN",""
"","S1","","html-keyboard-response","375","527867","0.0-1.0-515.0","0","0","47755","","null","","","null","57","","","","","","","","","","","","","","","",""
"","ISI","","html-keyboard-response","376","529870","0.0-1.0-516.0","0","0","47755","","null","","","null","57","NaN","","","","","","","","","","","","","","",""
"","S2","","html-keyboard-response","377","530125","0.0-1.0-517.0","0","0","47755","","null","","","null","57","","NaN","","","","","","","","","","","","","",""
"","response","","html-keyboard-response","378","530309","0.0-1.0-518.0","0","0","47755","","181","","","68","57","","","2","57","training","adjacent","GF","7","6","R.jpg","O.jpg","0","0","1","",""
"","feedback","","html-keyboard-response","379","531314","0.0-1.0-519.0-0.0","0","0","47755","","null","","","null","57","","","","","","","","","","","","","","","",""
"","ITI","","html-keyboard-response","380","532318","0.0-1.0-522.0","0","0","47755","","null","","","null","57","","","","","","","","","","","","","","","NaN",""
"","S1","","html-keyboard-response","381","532574","0.0-1.0-524.0","0","0","47755","","null","","","null","58","","","","","","","","","","","","","","","",""
"","ISI","","html-keyboard-response","382","534579","0.0-1.0-525.0","0","0","47755","","null","","","null","58","NaN","","","","","","","","","","","","","","",""
"","S2","","html-keyboard-response","383","534833","0.0-1.0-526.0","0","0","47755","","null","","","null","58","","NaN","","","","","","","","","","","","","",""
"","response","","html-keyboard-response","384","535219","0.0-1.0-527.0","0","0","47755","","384","","","68","58","","","2","58","training","adjacent","BA","2","1","P.jpg","N.jpg","0","0","1","",""
"","feedback","","html-keyboard-response","385","536223","0.0-1.0-528.0-0.0","0","0","47755","","null","","","null","58","","","","","","","","","","","","","","","",""
"","ITI","","html-keyboard-response","386","537226","0.0-1.0-531.0","0","0","47755","","null","","","null","58","","","","","","","","","","","","","","","NaN",""
"","S1","","html-keyboard-response","387","537478","0.0-1.0-533.0","0","0","47755","","null","","","null","59","","","","","","","","","","","","","","","",""
"","ISI","","html-keyboard-response","388","539482","0.0-1.0-534.0","0","0","47755","","null","","","null","59","NaN","","","","","","","","","","","","","","",""
"","S2","","html-keyboard-response","389","539734","0.0-1.0-535.0","0","0","47755","","null","","","null","59","","NaN","","","","","","","","","","","","","",""
"","response","","html-keyboard-response","390","540123","0.0-1.0-536.0","0","0","47755","","386","","","68","59","","","2","59","training","adjacent","EF","5","6","M.jpg","O.jpg","0","1","0","",""
"","feedback","","html-keyboard-response","391","541127","0.0-1.0-537.0-0.0","0","0","47755","","null","","","null","59","","","","","","","","","","","","","","","",""
"","time_out","","html-keyboard-response","392","543131","0.0-1.0-539.0-0.0","0","0","47755","","null","","","null","59","","","","","","","","","","","","","","","",""
"","ITI","","html-keyboard-response","393","544133","0.0-1.0-540.0","0","0","47755","","null","","","null","59","","","","","","","","","","","","","","","NaN",""
"","S1","","html-keyboard-response","394","544386","0.0-1.0-542.0","0","0","47755","","null","","","null","60","","","","","","","","","","","","","","","",""
"","ISI","","html-keyboard-response","395","546388","0.0-1.0-543.0","0","0","47755","","null","","","null","60","NaN","","","","","","","","","","","","","","",""
"","S2","","html-keyboard-response","396","546642","0.0-1.0-544.0","0","0","47755","","null","","","null","60","","NaN","","","","","","","","","","","","","",""
"","response","","html-keyboard-response","397","546804","0.0-1.0-545.0","0","0","47755","","159","","","75","60","","","2","60","training","adjacent","CB","3","2","L.jpg","P.jpg","1","0","0","",""
"","feedback","","html-keyboard-response","398","547808","0.0-1.0-546.0-0.0","0","0","47755","","null","","","null","60","","","","","","","","","","","","","","","",""
"","time_out","","html-keyboard-response","399","549810","0.0-1.0-548.0-0.0","0","0","47755","","null","","","null","60","","","","","","","","","","","","","","","",""
"","ITI","","html-keyboard-response","400","550813","0.0-1.0-549.0","0","0","47755","","null","","","null","60","","","","","","","","","","","","","","","NaN",""
"","S1","","html-keyboard-response","401","551066","0.0-1.0-551.0","0","0","47755","","null","","","null","61","","","","","","","","","","","","","","","",""
"","ISI","","html-keyboard-response","402","553069","0.0-1.0-552.0","0","0","47755","","null","","","null","61","NaN","","","","","","","","","","","","","","",""
"","S2","","html-keyboard-response","403","553321","0.0-1.0-553.0","0","0","47755","","null","","","null","61","","NaN","","","","","","","","","","","","","",""
"","response","","html-keyboard-response","404","553659","0.0-1.0-554.0","0","0","47755","","336","","","68","61","","","2","61","training","adjacent","FG","6","7","O.jpg","R.jpg","0","1","0","",""
"","feedback","","html-keyboard-response","405","554663","0.0-1.0-555.0-0.0","0","0","47755","","null","","","null","61","","","","","","","","","","","","","","","",""
"","time_out","","html-keyboard-response","406","556668","0.0-1.0-557.0-0.0","0","0","47755","","null","","","null","61","","","","","","","","","","","","","","","",""
"","ITI","","html-keyboard-response","407","557672","0.0-1.0-558.0","0","0","47755","","null","","","null","61","","","","","","","","","","","","","","","NaN",""
"","S1","","html-keyboard-response","408","557926","0.0-1.0-560.0","0","0","47755","","null","","","null","62","","","","","","","","","","","","","","","",""
"","ISI","","html-keyboard-response","409","559930","0.0-1.0-561.0","0","0","47755","","null","","","null","62","NaN","","","","","","","","","","","","","","",""
"","S2","","html-keyboard-response","410","560183","0.0-1.0-562.0","0","0","47755","","null","","","null","62","","NaN","","","","","","","","","","","","","",""
"","response","","html-keyboard-response","411","560331","0.0-1.0-563.0","0","0","47755","","145","","","75","62","","","2","62","training","adjacent","CD","3","4","L.jpg","Q.jpg","1","1","1","",""
"","feedback","","html-keyboard-response","412","561335","0.0-1.0-564.0-0.0","0","0","47755","","null","","","null","62","","","","","","","","","","","","","","","",""
"","ITI","","html-keyboard-response","413","562338","0.0-1.0-567.0","0","0","47755","","null","","","null","62","","","","","","","","","","","","","","","NaN",""
"","S1","","html-keyboard-response","414","562591","0.0-1.0-569.0","0","0","47755","","null","","","null","63","","","","","","","","","","","","","","","",""
"","ISI","","html-keyboard-response","415","564595","0.0-1.0-570.0","0","0","47755","","null","","","null","63","NaN","","","","","","","","","","","","","","",""
"","S2","","html-keyboard-response","416","564848","0.0-1.0-571.0","0","0","47755","","null","","","null","63","","NaN","","","","","","","","","","","","","",""
"","response","","html-keyboard-response","417","565102","0.0-1.0-572.0","0","0","47755","","250","","","68","63","","","2","63","training","adjacent","GF","7","6","R.jpg","O.jpg","0","0","1","",""
"","feedback","","html-keyboard-response","418","566106","0.0-1.0-573.0-0.0","0","0","47755","","null","","","null","63","","","","","","","","","","","","","","","",""
"","ITI","","html-keyboard-response","419","567111","0.0-1.0-576.0","0","0","47755","","null","","","null","63","","","","","","","","","","","","","","","NaN",""
"","S1","","html-keyboard-response","420","567365","0.0-1.0-578.0","0","0","47755","","null","","","null","64","","","","","","","","","","","","","","","",""
"","ISI","","html-keyboard-response","421","569367","0.0-1.0-579.0","0","0","47755","","null","","","null","64","NaN","","","","","","","","","","","","","","",""
"","S2","","html-keyboard-response","422","569619","0.0-1.0-580.0","0","0","47755","","null","","","null","64","","NaN","","","","","","","","","","","","","",""
"","response","","html-keyboard-response","423","569930","0.0-1.0-581.0","0","0","47755","","310","","","75","64","","","2","64","training","adjacent","FE","6","5","O.jpg","M.jpg","1","0","0","",""
"","feedback","","html-keyboard-response","424","570935","0.0-1.0-582.0-0.0","0","0","47755","","null","","","null","64","","","","","","","","","","","","","","","",""
"","time_out","","html-keyboard-response","425","572939","0.0-1.0-584.0-0.0","0","0","47755","","null","","","null","64","","","","","","","","","","","","","","","",""
"","ITI","","html-keyboard-response","426","573941","0.0-1.0-585.0","0","0","47755","","null","","","null","64","","","","","","","","","","","","","","","NaN",""
"","S1","","html-keyboard-response","427","574193","0.0-1.0-587.0","0","0","47755","","null","","","null","65","","","","","","","","","","","","","","","",""
"","ISI","","html-keyboard-response","428","576196","0.0-1.0-588.0","0","0","47755","","null","","","null","65","NaN","","","","","","","","","","","","","","",""
"","S2","","html-keyboard-response","429","576447","0.0-1.0-589.0","0","0","47755","","null","","","null","65","","NaN","","","","","","","","","","","","","",""
"","response","","html-keyboard-response","430","577164","0.0-1.0-590.0","0","0","47755","","714","","","68","65","","","2","65","training","adjacent","BC","2","3","P.jpg","L.jpg","0","1","0","",""
"","feedback","","html-keyboard-response","431","578168","0.0-1.0-591.0-0.0","0","0","47755","","null","","","null","65","","","","","","","","","","","","","","","",""
"","time_out","","html-keyboard-response","432","580172","0.0-1.0-593.0-0.0","0","0","47755","","null","","","null","65","","","","","","","","","","","","","","","",""
"","ITI","","html-keyboard-response","433","581174","0.0-1.0-594.0","0","0","47755","","null","","","null","65","","","","","","","","","","","","","","","NaN",""
"","S1","","html-keyboard-response","434","581427","0.0-1.0-596.0","0","0","47755","","null","","","null","66","","","","","","","","","","","","","","","",""
"","ISI","","html-keyboard-response","435","583431","0.0-1.0-597.0","0","0","47755","","null","","","null","66","NaN","","","","","","","","","","","","","","",""
"","S2","","html-keyboard-response","436","583684","0.0-1.0-598.0","0","0","47755","","null","","","null","66","","NaN","","","","","","","","","","","","","",""
"","response","","html-keyboard-response","437","584348","0.0-1.0-599.0","0","0","47755","","662","","","75","66","","","2","66","training","adjacent","CB","3","2","L.jpg","P.jpg","1","0","0","",""
"","feedback","","html-keyboard-response","438","585353","0.0-1.0-600.0-0.0","0","0","47755","","null","","","null","66","","","","","","","","","","","","","","","",""
"","time_out","","html-keyboard-response","439","587355","0.0-1.0-602.0-0.0","0","0","47755","","null","","","null","66","","","","","","","","","","","","","","","",""
"","ITI","","html-keyboard-response","440","588358","0.0-1.0-603.0","0","0","47755","","null","","","null","66","","","","","","","","","","","","","","","NaN",""
"","S1","","html-keyboard-response","441","588611","0.0-1.0-605.0","0","0","47755","","null","","","null","67","","","","","","","","","","","","","","","",""
"","ISI","","html-keyboard-response","442","590616","0.0-1.0-606.0","0","0","47755","","null","","","null","67","NaN","","","","","","","","","","","","","","",""
"","S2","","html-keyboard-response","443","590869","0.0-1.0-607.0","0","0","47755","","null","","","null","67","","NaN","","","","","","","","","","","","","",""
"","response","","html-keyboard-response","444","591340","0.0-1.0-608.0","0","0","47755","","468","","","75","67","","","2","67","training","adjacent","DC","4","3","Q.jpg","L.jpg","1","0","0","",""
"","feedback","","html-keyboard-response","445","592346","0.0-1.0-609.0-0.0","0","0","47755","","null","","","null","67","","","","","","","","","","","","","","","",""
"","time_out","","html-keyboard-response","446","594350","0.0-1.0-611.0-0.0","0","0","47755","","null","","","null","67","","","","","","","","","","","","","","","",""
"","ITI","","html-keyboard-response","447","595356","0.0-1.0-612.0","0","0","47755","","null","","","null","67","","","","","","","","","","","","","","","NaN",""
"","S1","","html-keyboard-response","448","595611","0.0-1.0-614.0","0","0","47755","","null","","","null","68","","","","","","","","","","","","","","","",""
"","ISI","","html-keyboard-response","449","597613","0.0-1.0-615.0","0","0","47755","","null","","","null","68","NaN","","","","","","","","","","","","","","",""
"","S2","","html-keyboard-response","450","597866","0.0-1.0-616.0","0","0","47755","","null","","","null","68","","NaN","","","","","","","","","","","","","",""
"","response","","html-keyboard-response","451","598213","0.0-1.0-617.0","0","0","47755","","344","","","68","68","","","2","68","training","adjacent","AB","1","2","N.jpg","P.jpg","0","1","0","",""
"","feedback","","html-keyboard-response","452","599218","0.0-1.0-618.0-0.0","0","0","47755","","null","","","null","68","","","","","","","","","","","","","","","",""
"","time_out","","html-keyboard-response","453","601221","0.0-1.0-620.0-0.0","0","0","47755","","null","","","null","68","","","","","","","","","","","","","","","",""
"","ITI","","html-keyboard-response","454","602226","0.0-1.0-621.0","0","0","47755","","null","","","null","68","","","","","","","","","","","","","","","NaN",""
"","S1","","html-keyboard-response","455","602481","0.0-1.0-623.0","0","0","47755","","null","","","null","69","","","","","","","","","","","","","","","",""
"","ISI","","html-keyboard-response","456","604484","0.0-1.0-624.0","0","0","47755","","null","","","null","69","NaN","","","","","","","","","","","","","","",""
"","S2","","html-keyboard-response","457","604736","0.0-1.0-625.0","0","0","47755","","null","","","null","69","","NaN","","","","","","","","","","","","","",""
"","response","","html-keyboard-response","458","605125","0.0-1.0-626.0","0","0","47755","","386","","","75","69","","","2","69","training","adjacent","DC","4","3","Q.jpg","L.jpg","1","0","0","",""
"","feedback","","html-keyboard-response","459","606129","0.0-1.0-627.0-0.0","0","0","47755","","null","","","null","69","","","","","","","","","","","","","","","",""
"","time_out","","html-keyboard-response","460","608132","0.0-1.0-629.0-0.0","0","0","47755","","null","","","null","69","","","","","","","","","","","","","","","",""
"","ITI","","html-keyboard-response","461","609136","0.0-1.0-630.0","0","0","47755","","null","","","null","69","","","","","","","","","","","","","","","NaN",""
"","S1","","html-keyboard-response","462","609392","0.0-1.0-632.0","0","0","47755","","null","","","null","70","","","","","","","","","","","","","","","",""
"","ISI","","html-keyboard-response","463","611396","0.0-1.0-633.0","0","0","47755","","null","","","null","70","NaN","","","","","","","","","","","","","","",""
"","S2","","html-keyboard-response","464","611650","0.0-1.0-634.0","0","0","47755","","null","","","null","70","","NaN","","","","","","","","","","","","","",""
"","response","","html-keyboard-response","465","612067","0.0-1.0-635.0","0","0","47755","","415","","","68","70","","","2","70","training","adjacent","AB","1","2","N.jpg","P.jpg","0","1","0","",""
"","feedback","","html-keyboard-response","466","613072","0.0-1.0-636.0-0.0","0","0","47755","","null","","","null","70","","","","","","","","","","","","","","","",""
"","time_out","","html-keyboard-response","467","615075","0.0-1.0-638.0-0.0","0","0","47755","","null","","","null","70","","","","","","","","","","","","","","","",""
"","ITI","","html-keyboard-response","468","616080","0.0-1.0-639.0","0","0","47755","","null","","","null","70","","","","","","","","","","","","","","","NaN",""
"","S1","","html-keyboard-response","469","616334","0.0-1.0-641.0","0","0","47755","","null","","","null","71","","","","","","","","","","","","","","","",""
"","ISI","","html-keyboard-response","470","618337","0.0-1.0-642.0","0","0","47755","","null","","","null","71","NaN","","","","","","","","","","","","","","",""
"","S2","","html-keyboard-response","471","618590","0.0-1.0-643.0","0","0","47755","","null","","","null","71","","NaN","","","","","","","","","","","","","",""
"","response","","html-keyboard-response","472","618714","0.0-1.0-644.0","0","0","47755","","121","","","75","71","","","2","71","training","adjacent","AB","1","2","N.jpg","P.jpg","1","1","1","",""
"","feedback","","html-keyboard-response","473","619716","0.0-1.0-645.0-0.0","0","0","47755","","null","","","null","71","","","","","","","","","","","","","","","",""
"","ITI","","html-keyboard-response","474","620720","0.0-1.0-648.0","0","0","47755","","null","","","null","71","","","","","","","","","","","","","","","NaN",""
"","S1","","html-keyboard-response","475","620973","0.0-1.0-650.0","0","0","47755","","null","","","null","72","","","","","","","","","","","","","","","",""
"","ISI","","html-keyboard-response","476","622977","0.0-1.0-651.0","0","0","47755","","null","","","null","72","NaN","","","","","","","","","","","","","","",""
"","S2","","html-keyboard-response","477","623231","0.0-1.0-652.0","0","0","47755","","null","","","null","72","","NaN","","","","","","","","","","","","","",""
"","response","","html-keyboard-response","478","623794","0.0-1.0-653.0","0","0","47755","","561","","","75","72","","","2","72","training","adjacent","ED","5","4","M.jpg","Q.jpg","1","0","0","",""
"","feedback","","html-keyboard-response","479","624799","0.0-1.0-654.0-0.0","0","0","47755","","null","","","null","72","","","","","","","","","","","","","","","",""
"","time_out","","html-keyboard-response","480","626803","0.0-1.0-656.0-0.0","0","0","47755","","null","","","null","72","","","","","","","","","","","","","","","",""
"","ITI","","html-keyboard-response","481","627807","0.0-1.0-657.0","0","0","47755","","null","","","null","72","","","","","","","","","","","","","","","NaN",""
"","S1","","html-keyboard-response","482","628061","0.0-1.0-659.0","0","0","47755","","null","","","null","73","","","","","","","","","","","","","","","",""
"","ISI","","html-keyboard-response","483","630065","0.0-1.0-660.0","0","0","47755","","null","","","null","73","NaN","","","","","","","","","","","","","","",""
"","S2","","html-keyboard-response","484","630317","0.0-1.0-661.0","0","0","47755","","null","","","null","73","","NaN","","","","","","","","","","","","","",""
"","response","","html-keyboard-response","485","630541","0.0-1.0-662.0","0","0","47755","","221","","","75","73","","","2","73","training","adjacent","FG","6","7","O.jpg","R.jpg","1","1","1","",""
"","feedback","","html-keyboard-response","486","631545","0.0-1.0-663.0-0.0","0","0","47755","","null","","","null","73","","","","","","","","","","","","","","","",""
"","ITI","","html-keyboard-response","487","632549","0.0-1.0-666.0","0","0","47755","","null","","","null","73","","","","","","","","","","","","","","","NaN",""
"","S1","","html-keyboard-response","488","632802","0.0-1.0-668.0","0","0","47755","","null","","","null","74","","","","","","","","","","","","","","","",""
"","ISI","","html-keyboard-response","489","634805","0.0-1.0-669.0","0","0","47755","","null","","","null","74","NaN","","","","","","","","","","","","","","",""
"","S2","","html-keyboard-response","490","635058","0.0-1.0-670.0","0","0","47755","","null","","","null","74","","NaN","","","","","","","","","","","","","",""
"","response","","html-keyboard-response","491","635298","0.0-1.0-671.0","0","0","47755","","239","","","75","74","","","2","74","training","adjacent","AB","1","2","N.jpg","P.jpg","1","1","1","",""
"","feedback","","html-keyboard-response","492","636302","0.0-1.0-672.0-0.0","0","0","47755","","null","","","null","74","","","","","","","","","","","","","","","",""
"","ITI","","html-keyboard-response","493","637306","0.0-1.0-675.0","0","0","47755","","null","","","null","74","","","","","","","","","","","","","","","NaN",""
"","S1","","html-keyboard-response","494","637560","0.0-1.0-677.0","0","0","47755","","null","","","null","75","","","","","","","","","","","","","","","",""
"","ISI","","html-keyboard-response","495","639564","0.0-1.0-678.0","0","0","47755","","null","","","null","75","NaN","","","","","","","","","","","","","","",""
"","S2","","html-keyboard-response","496","639818","0.0-1.0-679.0","0","0","47755","","null","","","null","75","","NaN","","","","","","","","","","","","","",""
"","response","","html-keyboard-response","497","640325","0.0-1.0-680.0","0","0","47755","","503","","","75","75","","","2","75","training","adjacent","EF","5","6","M.jpg","O.jpg","1","1","1","",""
"","feedback","","html-keyboard-response","498","641332","0.0-1.0-681.0-0.0","0","0","47755","","null","","","null","75","","","","","","","","","","","","","","","",""
"","ITI","","html-keyboard-response","499","642337","0.0-1.0-684.0","0","0","47755","","null","","","null","75","","","","","","","","","","","","","","","NaN",""
"","S1","","html-keyboard-response","500","642592","0.0-1.0-686.0","0","0","47755","","null","","","null","76","","","","","","","","","","","","","","","",""
"","ISI","","html-keyboard-response","501","644595","0.0-1.0-687.0","0","0","47755","","null","","","null","76","NaN","","","","","","","","","","","","","","",""
"","S2","","html-keyboard-response","502","644849","0.0-1.0-688.0","0","0","47755","","null","","","null","76","","NaN","","","","","","","","","","","","","",""
"","response","","html-keyboard-response","503","645020","0.0-1.0-689.0","0","0","47755","","168","","","75","76","","","2","76","training","adjacent","GF","7","6","R.jpg","O.jpg","1","0","0","",""
"","feedback","","html-keyboard-response","504","646025","0.0-1.0-690.0-0.0","0","0","47755","","null","","","null","76","","","","","","","","","","","","","","","",""
"","time_out","","html-keyboard-response","505","648030","0.0-1.0-692.0-0.0","0","0","47755","","null","","","null","76","","","","","","","","","","","","","","","",""
"","ITI","","html-keyboard-response","506","649034","0.0-1.0-693.0","0","0","47755","","null","","","null","76","","","","","","","","","","","","","","","NaN",""
"","S1","","html-keyboard-response","507","649286","0.0-1.0-695.0","0","0","47755","","null","","","null","77","","","","","","","","","","","","","","","",""
"","ISI","","html-keyboard-response","508","651290","0.0-1.0-696.0","0","0","47755","","null","","","null","77","NaN","","","","","","","","","","","","","","",""
"","S2","","html-keyboard-response","509","651550","0.0-1.0-697.0","0","0","47755","","null","","","null","77","","NaN","","","","","","","","","","","","","",""
"","response","","html-keyboard-response","510","652547","0.0-1.0-698.0","0","0","47755","","993","","","75","77","","","2","77","training","adjacent","CD","3","4","L.jpg","Q.jpg","1","1","1","",""
"","feedback","","html-keyboard-response","511","653550","0.0-1.0-699.0-0.0","0","0","47755","","null","","","null","77","","","","","","","","","","","","","","","",""
"","ITI","","html-keyboard-response","512","654553","0.0-1.0-702.0","0","0","47755","","null","","","null","77","","","","","","","","","","","","","","","NaN",""
"","S1","","html-keyboard-response","513","654806","0.0-1.0-704.0","0","0","47755","","null","","","null","78","","","","","","","","","","","","","","","",""
"","ISI","","html-keyboard-response","514","656815","0.0-1.0-705.0","0","0","47755","","692","","","75","78","k","","","","","","","","","","","","","","",""
"","S2","","html-keyboard-response","515","657069","0.0-1.0-706.0","0","0","47755","","null","","","null","78","","NaN","","","","","","","","","","","","","",""
"","response","","html-keyboard-response","516","657189","0.0-1.0-707.0","0","0","47755","","117","","","75","78","","","2","78","training","adjacent","DE","4","5","Q.jpg","M.jpg","1","1","1","",""
"","feedback","","html-keyboard-response","517","658194","0.0-1.0-708.0-0.0","0","0","47755","","null","","","null","78","","","","","","","","","","","","","","","",""
"","ITI","","html-keyboard-response","518","659199","0.0-1.0-711.0","0","0","47755","","null","","","null","78","","","","","","","","","","","","","","","NaN",""
"","S1","","html-keyboard-response","519","659453","0.0-1.0-713.0","0","0","47755","","null","","","null","79","","","","","","","","","","","","","","","",""
"","ISI","","html-keyboard-response","520","661456","0.0-1.0-714.0","0","0","47755","","null","","","null","79","NaN","","","","","","","","","","","","","","",""
"","S2","","html-keyboard-response","521","661709","0.0-1.0-715.0","0","0","47755","","null","","","null","79","","NaN","","","","","","","","","","","","","",""
"","response","","html-keyboard-response","522","661916","0.0-1.0-716.0","0","0","47755","","204","","","75","79","","","2","79","training","adjacent","EF","5","6","M.jpg","O.jpg","1","1","1","",""
"","feedback","","html-keyboard-response","523","662919","0.0-1.0-717.0-0.0","0","0","47755","","null","","","null","79","","","","","","","","","","","","","","","",""
"","ITI","","html-keyboard-response","524","663922","0.0-1.0-720.0","0","0","47755","","null","","","null","79","","","","","","","","","","","","","","","NaN",""
"","S1","","html-keyboard-response","525","664177","0.0-1.0-722.0","0","0","47755","","null","","","null","80","","","","","","","","","","","","","","","",""
"","ISI","","html-keyboard-response","526","666182","0.0-1.0-723.0","0","0","47755","","704","","","75","80","k","","","","","","","","","","","","","","",""
"","S2","","html-keyboard-response","527","666435","0.0-1.0-724.0","0","0","47755","","null","","","null","80","","NaN","","","","","","","","","","","","","",""
"","response","","html-keyboard-response","528","666966","0.0-1.0-725.0","0","0","47755","","528","","","75","80","","","2","80","training","adjacent","DE","4","5","Q.jpg","M.jpg","1","1","1","",""
"","feedback","","html-keyboard-response","529","667970","0.0-1.0-726.0-0.0","0","0","47755","","null","","","null","80","","","","","","","","","","","","","","","",""
"","ITI","","html-keyboard-response","530","668974","0.0-1.0-729.0","0","0","47755","","null","","","null","80","","","","","","","","","","","","","","","NaN",""
"","S1","","html-keyboard-response","531","669229","0.0-1.0-731.0","0","0","47755","","null","","","null","81","","","","","","","","","","","","","","","",""
"","ISI","","html-keyboard-response","532","671232","0.0-1.0-732.0","0","0","47755","","null","","","null","81","NaN","","","","","","","","","","","","","","",""
"","S2","","html-keyboard-response","533","671484","0.0-1.0-733.0","0","0","47755","","null","","","null","81","","NaN","","","","","","","","","","","","","",""
"","response","","html-keyboard-response","534","672309","0.0-1.0-734.0","0","0","47755","","821","","","75","81","","","2","81","training","adjacent","DC","4","3","Q.jpg","L.jpg","1","0","0","",""
"","feedback","","html-keyboard-response","535","673314","0.0-1.0-735.0-0.0","0","0","47755","","null","","","null","81","","","","","","","","","","","","","","","",""
"","time_out","","html-keyboard-response","536","675317","0.0-1.0-737.0-0.0","0","0","47755","","null","","","null","81","","","","","","","","","","","","","","","",""
"","ITI","","html-keyboard-response","537","676320","0.0-1.0-738.0","0","0","47755","","null","","","null","81","","","","","","","","","","","","","","","NaN",""
"","S1","","html-keyboard-response","538","676573","0.0-1.0-740.0","0","0","47755","","null","","","null","82","","","","","","","","","","","","","","","",""
"","ISI","","html-keyboard-response","539","678578","0.0-1.0-741.0","0","0","47755","","null","","","null","82","NaN","","","","","","","","","","","","","","",""
"","S2","","html-keyboard-response","540","678832","0.0-1.0-742.0","0","0","47755","","null","","","null","82","","NaN","","","","","","","","","","","","","",""
"","response","","html-keyboard-response","541","679091","0.0-1.0-743.0","0","0","47755","","257","","","68","82","","","2","82","training","adjacent","CD","3","4","L.jpg","Q.jpg","0","1","0","",""
"","feedback","","html-keyboard-response","542","680096","0.0-1.0-744.0-0.0","0","0","47755","","null","","","null","82","","","","","","","","","","","","","","","",""
"","time_out","","html-keyboard-response","543","682099","0.0-1.0-746.0-0.0","0","0","47755","","null","","","null","82","","","","","","","","","","","","","","","",""
"","ITI","","html-keyboard-response","544","683103","0.0-1.0-747.0","0","0","47755","","null","","","null","82","","","","","","","","","","","","","","","NaN",""
"","S1","","html-keyboard-response","545","683356","0.0-1.0-749.0","0","0","47755","","null","","","null","83","","","","","","","","","","","","","","","",""
"","ISI","","html-keyboard-response","546","685358","0.0-1.0-750.0","0","0","47755","","757","","","75","83","k","","","","","","","","","","","","","","",""
"","S2","","html-keyboard-response","547","685611","0.0-1.0-751.0","0","0","47755","","null","","","null","83","","NaN","","","","","","","","","","","","","",""
"","response","","html-keyboard-response","548","686395","0.0-1.0-752.0","0","0","47755","","783","","","75","83","","","2","83","training","adjacent","CB","3","2","L.jpg","P.jpg","1","0","0","",""
"","feedback","","html-keyboard-response","549","687397","0.0-1.0-753.0-0.0","0","0","47755","","null","","","null","83","","","","","","","","","","","","","","","",""
"","time_out","","html-keyboard-response","550","689400","0.0-1.0-755.0-0.0","0","0","47755","","null","","","null","83","","","","","","","","","","","","","","","",""
"","ITI","","html-keyboard-response","551","690404","0.0-1.0-756.0","0","0","47755","","null","","","null","83","","","","","","","","","","","","","","","NaN",""
"","S1","","html-keyboard-response","552","690657","0.0-1.0-758.0","0","0","47755","","null","","","null","84","","","","","","","","","","","","","","","",""
"","ISI","","html-keyboard-response","553","692660","0.0-1.0-759.0","0","0","47755","","null","","","null","84","NaN","","","","","","","","","","","","","","",""
"","S2","","html-keyboard-response","554","692913","0.0-1.0-760.0","0","0","47755","","null","","","null","84","","NaN","","","","","","","","","","","","","",""
"","response","","html-keyboard-response","555","694629","0.0-1.0-761.0","0","0","47755","","1714","","","68","84","","","2","84","training","adjacent","DC","4","3","Q.jpg","L.jpg","0","0","1","",""
"","feedback","","html-keyboard-response","556","695634","0.0-1.0-762.0-0.0","0","0","47755","","null","","","null","84","","","","","","","","","","","","","","","",""
"","ITI","","html-keyboard-response","557","696637","0.0-1.0-765.0","0","0","47755","","null","","","null","84","","","","","","","","","","","","","","","NaN",""
"","S1","","html-keyboard-response","558","696890","0.0-1.0-767.0","0","0","47755","","null","","","null","85","","","","","","","","","","","","","","","",""
"","ISI","","html-keyboard-response","559","698892","0.0-1.0-768.0","0","0","47755","","416","","","75","85","k","","","","","","","","","","","","","","",""
"","S2","","html-keyboard-response","560","699147","0.0-1.0-769.0","0","0","47755","","null","","","null","85","","NaN","","","","","","","","","","","","","",""
"","response","","html-keyboard-response","561","699340","0.0-1.0-770.0","0","0","47755","","190","","","75","85","","","2","85","training","adjacent","GF","7","6","R.jpg","O.jpg","1","0","0","",""
"","feedback","","html-keyboard-response","562","700344","0.0-1.0-771.0-0.0","0","0","47755","","null","","","null","85","","","","","","","","","","","","","","","",""
"","time_out","","html-keyboard-response","563","702350","0.0-1.0-773.0-0.0","0","0","47755","","null","","","null","85","","","","","","","","","","","","","","","",""
"","ITI","","html-keyboard-response","564","703353","0.0-1.0-774.0","0","0","47755","","null","","","null","85","","","","","","","","","","","","","","","NaN",""
"","S1","","html-keyboard-response","565","703608","0.0-1.0-776.0","0","0","47755","","null","","","null","86","","","","","","","","","","","","","","","",""
"","ISI","","html-keyboard-response","566","705611","0.0-1.0-777.0","0","0","47755","","185","","","68","86","d","","","","","","","","","","","","","","",""
"","S2","","html-keyboard-response","567","705866","0.0-1.0-778.0","0","0","47755","","null","","","null","86","","NaN","","","","","","","","","","","","","",""
"","response","","html-keyboard-response","568","706094","0.0-1.0-779.0","0","0","47755","","224","","","68","86","","","2","86","training","adjacent","ED","5","4","M.jpg","Q.jpg","0","0","1","",""
"","feedback","","html-keyboard-response","569","707099","0.0-1.0-780.0-0.0","0","0","47755","","null","","","null","86","","","","","","","","","","","","","","","",""
"","ITI","","html-keyboard-response","570","708102","0.0-1.0-783.0","0","0","47755","","null","","","null","86","","","","","","","","","","","","","","","NaN",""
"","S1","","html-keyboard-response","571","708355","0.0-1.0-785.0","0","0","47755","","null","","","null","87","","","","","","","","","","","","","","","",""
"","ISI","","html-keyboard-response","572","710357","0.0-1.0-786.0","0","0","47755","","null","","","null","87","NaN","","","","","","","","","","","","","","",""
"","S2","","html-keyboard-response","573","710611","0.0-1.0-787.0","0","0","47755","","null","","","null","87","","NaN","","","","","","","","","","","","","",""
"","response","","html-keyboard-response","574","711118","0.0-1.0-788.0","0","0","47755","","502","","","68","87","","","2","87","training","adjacent","BC","2","3","P.jpg","L.jpg","0","1","0","",""
"","feedback","","html-keyboard-response","575","712122","0.0-1.0-789.0-0.0","0","0","47755","","null","","","null","87","","","","","","","","","","","","","","","",""
"","time_out","","html-keyboard-response","576","714128","0.0-1.0-791.0-0.0","0","0","47755","","null","","","null","87","","","","","","","","","","","","","","","",""
"","ITI","","html-keyboard-response","577","715131","0.0-1.0-792.0","0","0","47755","","null","","","null","87","","","","","","","","","","","","","","","NaN",""
"","S1","","html-keyboard-response","578","715384","0.0-1.0-794.0","0","0","47755","","null","","","null","88","","","","","","","","","","","","","","","",""
"","ISI","","html-keyboard-response","579","717385","0.0-1.0-795.0","0","0","47755","","null","","","null","88","NaN","","","","","","","","","","","","","","",""
"","S2","","html-keyboard-response","580","717638","0.0-1.0-796.0","0","0","47755","","null","","","null","88","","NaN","","","","","","","","","","","","","",""
"","response","","html-keyboard-response","581","717956","0.0-1.0-797.0","0","0","47755","","316","","","75","88","","","2","88","training","adjacent","DE","4","5","Q.jpg","M.jpg","1","1","1","",""
"","feedback","","html-keyboard-response","582","718960","0.0-1.0-798.0-0.0","0","0","47755","","null","","","null","88","","","","","","","","","","","","","","","",""
"","ITI","","html-keyboard-response","583","719965","0.0-1.0-801.0","0","0","47755","","null","","","null","88","","","","","","","","","","","","","","","NaN",""
