"success","ttype","start_time","trial_type","trial_index","time_elapsed","internal_node_id","warning","missed_checkup","PID","view_history","rt","responses","repeat_instructions","key_press","index","keypress_isi","keypress_S2","block","trial_num","phase","group_type","pair_type","S1_stim","S2_stim","S1_img","S2_img","S1_chosen","S1_higher","accuracy","keypress_iti","total_bonus_tally"
"true","full_screen","d04132023hr1732","fullscreen","0","9557","0.0-0.0","0","0","45288","","","","","","","","","","","","","","","","","","","","","",""
"","instructions","","instructions","1","39252","0.0-1.0-0.0-0.0","0","0","45288","[{""page_index"":0,""viewing_time"":4830},{""page_index"":1,""viewing_time"":10057},{""page_index"":2,""viewing_time"":8466},{""page_index"":3,""viewing_time"":6339}]","29692","","","","","","","","","","","","","","","","","","","",""
"","comprehension_check","","survey-multi-choice","2","57606","0.0-1.0-0.0-1.0","0","0","45288","","18346","{""Q0"":""True"",""Q1"":""D"",""Q2"":""Only when the screen 'MAKE A CHOICE' is shown"",""Q3"":""Green mark"",""Q4"":""either D or K""}","1","","","","","","","","","","","","","","","","","",""
"","missed_instruction_checkup","","html-keyboard-response","3","59304","0.0-1.0-0.0-2.0-0.0","0","1","45288","","1694","","","32","","","","","","","","","","","","","","","","",""
"","instructions","","instructions","4","88298","0.0-1.0-0.1-0.1","0","0","45288","[{""page_index"":0,""viewing_time"":3452},{""page_index"":1,""viewing_time"":16603},{""page_index"":2,""viewing_time"":7196},{""page_index"":3,""viewing_time"":1740}]","28992","","","","","","","","","","","","","","","","","","","",""
"","comprehension_check","","survey-multi-choice","5","100355","0.0-1.0-0.1-1.1","0","0","45288","","12050","{""Q0"":""True"",""Q1"":""D"",""Q2"":""Once the second image appears and while the screen 'MAKE A CHOICE' is shown"",""Q3"":""Green mark"",""Q4"":""either D or K""}","0","","","","","","","","","","","","","","","","","",""
"","start_exp","","html-keyboard-response","6","101695","0.0-1.0-1.0","0","0","45288","","1337","","","32","","","","","","","","","","","","","","","","",""
"","S1","","html-keyboard-response","7","101949","0.0-1.0-2.0","0","0","45288","","null","","","null","0","","","","","","","","","","","","","","","",""
"","ISI","","html-keyboard-response","8","102951","0.0-1.0-3.0","0","0","45288","","null","","","null","0","NaN","","","","","","","","","","","","","","",""
"","S2","","html-keyboard-response","9","103204","0.0-1.0-4.0","0","0","45288","","null","","","null","0","","NaN","","","","","","","","","","","","","",""
"","response","","html-keyboard-response","10","104066","0.0-1.0-5.0-0.0","0","0","45288","","859","","","75","0","","","1","0","training","adjacent","BC","2","3","L.jpg","O.jpg","0","1","0","",""
"","feedback","","html-keyboard-response","11","105068","0.0-1.0-6.0-0.0","0","0","45288","","null","","","null","0","","","","","","","","","","","","","","","",""
"","time_out","","html-keyboard-response","12","107071","0.0-1.0-8.0-0.0","0","0","45288","","null","","","null","0","","","","","","","","","","","","","","","",""
"","ITI","","html-keyboard-response","13","108074","0.0-1.0-9.0","0","0","45288","","null","","","null","0","","","","","","","","","","","","","","","NaN",""
"","S1","","html-keyboard-response","14","108327","0.0-1.0-11.0","0","0","45288","","null","","","null","1","","","","","","","","","","","","","","","",""
"","ISI","","html-keyboard-response","15","109330","0.0-1.0-12.0","0","0","45288","","null","","","null","1","NaN","","","","","","","","","","","","","","",""
"","S2","","html-keyboard-response","16","109584","0.0-1.0-13.0","0","0","45288","","null","","","null","1","","NaN","","","","","","","","","","","","","",""
"","response","","html-keyboard-response","17","111337","0.0-1.0-14.0-0.0","0","0","45288","","null","","","null","1","","","1","1","training","adjacent","FE","6","5","R.jpg","Q.jpg","NaN","0","0","",""
"","too_slow_prompt","","html-keyboard-response","18","112340","0.0-1.0-16.0-0.0","1","0","45288","","null","","","null","","","","","","","","","","","","","","","","",""
"","time_out","","html-keyboard-response","19","114343","0.0-1.0-17.0-0.0","0","0","45288","","null","","","null","1","","","","","","","","","","","","","","","",""
"","ITI","","html-keyboard-response","20","115346","0.0-1.0-18.0","0","0","45288","","129","","","32","1","","","","","","","","","","","","","","","space",""
"","S1","","html-keyboard-response","21","115600","0.0-1.0-20.0","0","0","45288","","null","","","null","2","","","","","","","","","","","","","","","",""
"","ISI","","html-keyboard-response","22","116603","0.0-1.0-21.0","0","0","45288","","null","","","null","2","NaN","","","","","","","","","","","","","","",""
"","S2","","html-keyboard-response","23","116857","0.0-1.0-22.0","0","0","45288","","null","","","null","2","","NaN","","","","","","","","","","","","","",""
"","response","","html-keyboard-response","24","117337","0.0-1.0-23.0-0.0","0","0","45288","","478","","","75","2","","","1","2","training","adjacent","BA","2","1","L.jpg","M.jpg","0","0","1","",""
"","feedback","","html-keyboard-response","25","118340","0.0-1.0-24.0-0.0","0","0","45288","","null","","","null","2","","","","","","","","","","","","","","","",""
"","ITI","","html-keyboard-response","26","119344","0.0-1.0-27.0","0","0","45288","","null","","","null","2","","","","","","","","","","","","","","","NaN",""
"","S1","","html-keyboard-response","27","119597","0.0-1.0-29.0","0","0","45288","","null","","","null","3","","","","","","","","","","","","","","","",""
"","ISI","","html-keyboard-response","28","120601","0.0-1.0-30.0","0","0","45288","","null","","","null","3","NaN","","","","","","","","","","","","","","",""
"","S2","","html-keyboard-response","29","120854","0.0-1.0-31.0","0","0","45288","","null","","","null","3","","NaN","","","","","","","","","","","","","",""
"","response","","html-keyboard-response","30","121517","0.0-1.0-32.0-0.0","0","0","45288","","660","","","68","3","","","1","3","training","adjacent","ED","5","4","Q.jpg","N.jpg","1","0","0","",""
"","feedback","","html-keyboard-response","31","122520","0.0-1.0-33.0-0.0","0","0","45288","","null","","","null","3","","","","","","","","","","","","","","","",""
"","time_out","","html-keyboard-response","32","124524","0.0-1.0-35.0-0.0","0","0","45288","","null","","","null","3","","","","","","","","","","","","","","","",""
"","ITI","","html-keyboard-response","33","125526","0.0-1.0-36.0","0","0","45288","","null","","","null","3","","","","","","","","","","","","","","","NaN",""
"","S1","","html-keyboard-response","34","125779","0.0-1.0-38.0","0","0","45288","","null","","","null","4","","","","","","","","","","","","","","","",""
"","ISI","","html-keyboard-response","35","126783","0.0-1.0-39.0","0","0","45288","","null","","","null","4","NaN","","","","","","","","","","","","","","",""
"","S2","","html-keyboard-response","36","127035","0.0-1.0-40.0","0","0","45288","","null","","","null","4","","NaN","","","","","","","","","","","","","",""
"","response","","html-keyboard-response","37","127713","0.0-1.0-41.0-0.0","0","0","45288","","675","","","75","4","","","1","4","training","adjacent","EF","5","6","Q.jpg","R.jpg","0","1","0","",""
"","feedback","","html-keyboard-response","38","128717","0.0-1.0-42.0-0.0","0","0","45288","","null","","","null","4","","","","","","","","","","","","","","","",""
"","time_out","","html-keyboard-response","39","130720","0.0-1.0-44.0-0.0","0","0","45288","","null","","","null","4","","","","","","","","","","","","","","","",""
"","ITI","","html-keyboard-response","40","131723","0.0-1.0-45.0","0","0","45288","","null","","","null","4","","","","","","","","","","","","","","","NaN",""
"","S1","","html-keyboard-response","41","131976","0.0-1.0-47.0","0","0","45288","","null","","","null","5","","","","","","","","","","","","","","","",""
"","ISI","","html-keyboard-response","42","132979","0.0-1.0-48.0","0","0","45288","","null","","","null","5","NaN","","","","","","","","","","","","","","",""
"","S2","","html-keyboard-response","43","133233","0.0-1.0-49.0","0","0","45288","","null","","","null","5","","NaN","","","","","","","","","","","","","",""
"","response","","html-keyboard-response","44","133548","0.0-1.0-50.0-0.0","0","0","45288","","313","","","68","5","","","1","5","training","adjacent","AB","1","2","M.jpg","L.jpg","1","1","1","",""
"","feedback","","html-keyboard-response","45","134551","0.0-1.0-51.0-0.0","0","0","45288","","null","","","null","5","","","","","","","","","","","","","","","",""
"","ITI","","html-keyboard-response","46","135569","0.0-1.0-54.0","0","0","45288","","null","","","null","5","","","","","","","","","","","","","","","NaN",""
"","S1","","html-keyboard-response","47","135822","0.0-1.0-56.0","0","0","45288","","null","","","null","6","","","","","","","","","","","","","","","",""
"","ISI","","html-keyboard-response","48","136824","0.0-1.0-57.0","0","0","45288","","null","","","null","6","NaN","","","","","","","","","","","","","","",""
"","S2","","html-keyboard-response","49","137078","0.0-1.0-58.0","0","0","45288","","null","","","null","6","","NaN","","","","","","","","","","","","","",""
"","response","","html-keyboard-response","50","137488","0.0-1.0-59.0-0.0","0","0","45288","","408","","","68","6","","","1","6","training","adjacent","FE","6","5","R.jpg","Q.jpg","1","0","0","",""
"","feedback","","html-keyboard-response","51","138491","0.0-1.0-60.0-0.0","0","0","45288","","null","","","null","6","","","","","","","","","","","","","","","",""
"","time_out","","html-keyboard-response","52","140494","0.0-1.0-62.0-0.0","0","0","45288","","null","","","null","6","","","","","","","","","","","","","","","",""
"","ITI","","html-keyboard-response","53","141497","0.0-1.0-63.0","0","0","45288","","null","","","null","6","","","","","","","","","","","","","","","NaN",""
"","S1","","html-keyboard-response","54","141750","0.0-1.0-65.0","0","0","45288","","null","","","null","7","","","","","","","","","","","","","","","",""
"","ISI","","html-keyboard-response","55","142754","0.0-1.0-66.0","0","0","45288","","null","","","null","7","NaN","","","","","","","","","","","","","","",""
"","S2","","html-keyboard-response","56","143007","0.0-1.0-67.0","0","0","45288","","null","","","null","7","","NaN","","","","","","","","","","","","","",""
"","response","","html-keyboard-response","57","143388","0.0-1.0-68.0-0.0","0","0","45288","","379","","","68","7","","","1","7","training","adjacent","GF","7","6","P.jpg","R.jpg","1","0","0","",""
"","feedback","","html-keyboard-response","58","144391","0.0-1.0-69.0-0.0","0","0","45288","","null","","","null","7","","","","","","","","","","","","","","","",""
"","time_out","","html-keyboard-response","59","146394","0.0-1.0-71.0-0.0","0","0","45288","","null","","","null","7","","","","","","","","","","","","","","","",""
"","ITI","","html-keyboard-response","60","147397","0.0-1.0-72.0","0","0","45288","","null","","","null","7","","","","","","","","","","","","","","","NaN",""
"","S1","","html-keyboard-response","61","147650","0.0-1.0-74.0","0","0","45288","","null","","","null","8","","","","","","","","","","","","","","","",""
"","ISI","","html-keyboard-response","62","148668","0.0-1.0-75.0","0","0","45288","","null","","","null","8","NaN","","","","","","","","","","","","","","",""
"","S2","","html-keyboard-response","63","148921","0.0-1.0-76.0","0","0","45288","","null","","","null","8","","NaN","","","","","","","","","","","","","",""
"","response","","html-keyboard-response","64","149385","0.0-1.0-77.0-0.0","0","0","45288","","461","","","75","8","","","1","8","training","adjacent","AB","1","2","M.jpg","L.jpg","0","1","0","",""
"","feedback","","html-keyboard-response","65","150388","0.0-1.0-78.0-0.0","0","0","45288","","null","","","null","8","","","","","","","","","","","","","","","",""
"","time_out","","html-keyboard-response","66","152391","0.0-1.0-80.0-0.0","0","0","45288","","null","","","null","8","","","","","","","","","","","","","","","",""
"","ITI","","html-keyboard-response","67","153394","0.0-1.0-81.0","0","0","45288","","null","","","null","8","","","","","","","","","","","","","","","NaN",""
"","S1","","html-keyboard-response","68","153648","0.0-1.0-83.0","0","0","45288","","null","","","null","9","","","","","","","","","","","","","","","",""
"","ISI","","html-keyboard-response","69","154651","0.0-1.0-84.0","0","0","45288","","null","","","null","9","NaN","","","","","","","","","","","","","","",""
"","S2","","html-keyboard-response","70","154905","0.0-1.0-85.0","0","0","45288","","null","","","null","9","","NaN","","","","","","","","","","","","","",""
"","response","","html-keyboard-response","71","155269","0.0-1.0-86.0-0.0","0","0","45288","","361","","","68","9","","","1","9","training","adjacent","GF","7","6","P.jpg","R.jpg","1","0","0","",""
"","feedback","","html-keyboard-response","72","156272","0.0-1.0-87.0-0.0","0","0","45288","","null","","","null","9","","","","","","","","","","","","","","","",""
"","time_out","","html-keyboard-response","73","158275","0.0-1.0-89.0-0.0","0","0","45288","","null","","","null","9","","","","","","","","","","","","","","","",""
"","ITI","","html-keyboard-response","74","159277","0.0-1.0-90.0","0","0","45288","","null","","","null","9","","","","","","","","","","","","","","","NaN",""
"","S1","","html-keyboard-response","75","159531","0.0-1.0-92.0","0","0","45288","","null","","","null","10","","","","","","","","","","","","","","","",""
"","ISI","","html-keyboard-response","76","160534","0.0-1.0-93.0","0","0","45288","","null","","","null","10","NaN","","","","","","","","","","","","","","",""
"","S2","","html-keyboard-response","77","160788","0.0-1.0-94.0","0","0","45288","","null","","","null","10","","NaN","","","","","","","","","","","","","",""
"","response","","html-keyboard-response","78","161063","0.0-1.0-95.0-0.0","0","0","45288","","272","","","68","10","","","1","10","training","adjacent","FE","6","5","R.jpg","Q.jpg","1","0","0","",""
"","feedback","","html-keyboard-response","79","162065","0.0-1.0-96.0-0.0","0","0","45288","","null","","","null","10","","","","","","","","","","","","","","","",""
"","time_out","","html-keyboard-response","80","164068","0.0-1.0-98.0-0.0","0","0","45288","","null","","","null","10","","","","","","","","","","","","","","","",""
"","ITI","","html-keyboard-response","81","165071","0.0-1.0-99.0","0","0","45288","","null","","","null","10","","","","","","","","","","","","","","","NaN",""
"","S1","","html-keyboard-response","82","165324","0.0-1.0-101.0","0","0","45288","","null","","","null","11","","","","","","","","","","","","","","","",""
"","ISI","","html-keyboard-response","83","166327","0.0-1.0-102.0","0","0","45288","","null","","","null","11","NaN","","","","","","","","","","","","","","",""
"","S2","","html-keyboard-response","84","166580","0.0-1.0-103.0","0","0","45288","","null","","","null","11","","NaN","","","","","","","","","","","","","",""
"","response","","html-keyboard-response","85","166815","0.0-1.0-104.0-0.0","0","0","45288","","233","","","75","11","","","1","11","training","adjacent","FG","6","7","R.jpg","P.jpg","0","1","0","",""
"","feedback","","html-keyboard-response","86","167819","0.0-1.0-105.0-0.0","0","0","45288","","null","","","null","11","","","","","","","","","","","","","","","",""
"","time_out","","html-keyboard-response","87","169822","0.0-1.0-107.0-0.0","0","0","45288","","null","","","null","11","","","","","","","","","","","","","","","",""
"","ITI","","html-keyboard-response","88","170825","0.0-1.0-108.0","0","0","45288","","null","","","null","11","","","","","","","","","","","","","","","NaN",""
"","S1","","html-keyboard-response","89","171078","0.0-1.0-110.0","0","0","45288","","null","","","null","12","","","","","","","","","","","","","","","",""
"","ISI","","html-keyboard-response","90","172081","0.0-1.0-111.0","0","0","45288","","null","","","null","12","NaN","","","","","","","","","","","","","","",""
"","S2","","html-keyboard-response","91","172334","0.0-1.0-112.0","0","0","45288","","null","","","null","12","","NaN","","","","","","","","","","","","","",""
"","response","","html-keyboard-response","92","172695","0.0-1.0-113.0-0.0","0","0","45288","","358","","","68","12","","","1","12","training","adjacent","DE","4","5","N.jpg","Q.jpg","1","1","1","",""
"","feedback","","html-keyboard-response","93","173698","0.0-1.0-114.0-0.0","0","0","45288","","null","","","null","12","","","","","","","","","","","","","","","",""
"","ITI","","html-keyboard-response","94","174701","0.0-1.0-117.0","0","0","45288","","null","","","null","12","","","","","","","","","","","","","","","NaN",""
"","S1","","html-keyboard-response","95","174954","0.0-1.0-119.0","0","0","45288","","null","","","null","13","","","","","","","","","","","","","","","",""
"","ISI","","html-keyboard-response","96","175956","0.0-1.0-120.0","0","0","45288","","null","","","null","13","NaN","","","","","","","","","","","","","","",""
"","S2","","html-keyboard-response","97","176209","0.0-1.0-121.0","0","0","45288","","null","","","null","13","","NaN","","","","","","","","","","","","","",""
"","response","","html-keyboard-response","98","176645","0.0-1.0-122.0-0.0","0","0","45288","","434","","","75","13","","","1","13","training","adjacent","EF","5","6","Q.jpg","R.jpg","0","1","0","",""
"","feedback","","html-keyboard-response","99","177648","0.0-1.0-123.0-0.0","0","0","45288","","null","","","null","13","","","","","","","","","","","","","","","",""
"","time_out","","html-keyboard-response","100","179651","0.0-1.0-125.0-0.0","0","0","45288","","null","","","null","13","","","","","","","","","","","","","","","",""
"","ITI","","html-keyboard-response","101","180653","0.0-1.0-126.0","0","0","45288","","null","","","null","13","","","","","","","","","","","","","","","NaN",""
"","S1","","html-keyboard-response","102","180906","0.0-1.0-128.0","0","0","45288","","null","","","null","14","","","","","","","","","","","","","","","",""
"","ISI","","html-keyboard-response","103","181909","0.0-1.0-129.0","0","0","45288","","null","","","null","14","NaN","","","","","","","","","","","","","","",""
"","S2","","html-keyboard-response","104","182162","0.0-1.0-130.0","0","0","45288","","null","","","null","14","","NaN","","","","","","","","","","","","","",""
"","response","","html-keyboard-response","105","182393","0.0-1.0-131.0-0.0","0","0","45288","","228","","","75","14","","","1","14","training","adjacent","ED","5","4","Q.jpg","N.jpg","0","0","1","",""
"","feedback","","html-keyboard-response","106","183396","0.0-1.0-132.0-0.0","0","0","45288","","null","","","null","14","","","","","","","","","","","","","","","",""
"","ITI","","html-keyboard-response","107","184399","0.0-1.0-135.0","0","0","45288","","null","","","null","14","","","","","","","","","","","","","","","NaN",""
"","S1","","html-keyboard-response","108","184652","0.0-1.0-137.0","0","0","45288","","null","","","null","15","","","","","","","","","","","","","","","",""
"","ISI","","html-keyboard-response","109","185655","0.0-1.0-138.0","0","0","45288","","null","","","null","15","NaN","","","","","","","","","","","","","","",""
"","S2","","html-keyboard-response","110","185908","0.0-1.0-139.0","0","0","45288","","null","","","null","15","","NaN","","","","","","","","","","","","","",""
"","response","","html-keyboard-response","111","186264","0.0-1.0-140.0-0.0","0","0","45288","","354","","","75","15","","","1","15","training","adjacent","DC","4","3","N.jpg","O.jpg","0","0","1","",""
"","feedback","","html-keyboard-response","112","187267","0.0-1.0-141.0-0.0","0","0","45288","","null","","","null","15","","","","","","","","","","","","","","","",""
"","ITI","","html-keyboard-response","113","188270","0.0-1.0-144.0","0","0","45288","","null","","","null","15","","","","","","","","","","","","","","","NaN",""
"","S1","","html-keyboard-response","114","188522","0.0-1.0-146.0","0","0","45288","","null","","","null","16","","","","","","","","","","","","","","","",""
"","ISI","","html-keyboard-response","115","189526","0.0-1.0-147.0","0","0","45288","","null","","","null","16","NaN","","","","","","","","","","","","","","",""
"","S2","","html-keyboard-response","116","189780","0.0-1.0-148.0","0","0","45288","","null","","","null","16","","NaN","","","","","","","","","","","","","",""
"","response","","html-keyboard-response","117","190030","0.0-1.0-149.0-0.0","0","0","45288","","247","","","75","16","","","1","16","training","adjacent","GF","7","6","P.jpg","R.jpg","0","0","1","",""
"","feedback","","html-keyboard-response","118","191033","0.0-1.0-150.0-0.0","0","0","45288","","null","","","null","16","","","","","","","","","","","","","","","",""
"","ITI","","html-keyboard-response","119","192036","0.0-1.0-153.0","0","0","45288","","null","","","null","16","","","","","","","","","","","","","","","NaN",""
"","S1","","html-keyboard-response","120","192289","0.0-1.0-155.0","0","0","45288","","null","","","null","17","","","","","","","","","","","","","","","",""
"","ISI","","html-keyboard-response","121","193292","0.0-1.0-156.0","0","0","45288","","null","","","null","17","NaN","","","","","","","","","","","","","","",""
"","S2","","html-keyboard-response","122","193545","0.0-1.0-157.0","0","0","45288","","null","","","null","17","","NaN","","","","","","","","","","","","","",""
"","response","","html-keyboard-response","123","193876","0.0-1.0-158.0-0.0","0","0","45288","","328","","","75","17","","","1","17","training","adjacent","BA","2","1","L.jpg","M.jpg","0","0","1","",""
"","feedback","","html-keyboard-response","124","194881","0.0-1.0-159.0-0.0","0","0","45288","","null","","","null","17","","","","","","","","","","","","","","","",""
"","ITI","","html-keyboard-response","125","195884","0.0-1.0-162.0","0","0","45288","","null","","","null","17","","","","","","","","","","","","","","","NaN",""
"","S1","","html-keyboard-response","126","196137","0.0-1.0-164.0","0","0","45288","","null","","","null","18","","","","","","","","","","","","","","","",""
"","ISI","","html-keyboard-response","127","197140","0.0-1.0-165.0","0","0","45288","","null","","","null","18","NaN","","","","","","","","","","","","","","",""
"","S2","","html-keyboard-response","128","197393","0.0-1.0-166.0","0","0","45288","","null","","","null","18","","NaN","","","","","","","","","","","","","",""
"","response","","html-keyboard-response","129","197751","0.0-1.0-167.0-0.0","0","0","45288","","355","","","68","18","","","1","18","training","adjacent","DE","4","5","N.jpg","Q.jpg","1","1","1","",""
"","feedback","","html-keyboard-response","130","198754","0.0-1.0-168.0-0.0","0","0","45288","","null","","","null","18","","","","","","","","","","","","","","","",""
"","ITI","","html-keyboard-response","131","199757","0.0-1.0-171.0","0","0","45288","","null","","","null","18","","","","","","","","","","","","","","","NaN",""
"","S1","","html-keyboard-response","132","200011","0.0-1.0-173.0","0","0","45288","","null","","","null","19","","","","","","","","","","","","","","","",""
"","ISI","","html-keyboard-response","133","201013","0.0-1.0-174.0","0","0","45288","","null","","","null","19","NaN","","","","","","","","","","","","","","",""
"","S2","","html-keyboard-response","134","201267","0.0-1.0-175.0","0","0","45288","","null","","","null","19","","NaN","","","","","","","","","","","","","",""
"","response","","html-keyboard-response","135","201617","0.0-1.0-176.0-0.0","0","0","45288","","348","","","75","19","","","1","19","training","adjacent","BA","2","1","L.jpg","M.jpg","0","0","1","",""
"","feedback","","html-keyboard-response","136","202621","0.0-1.0-177.0-0.0","0","0","45288","","null","","","null","19","","","","","","","","","","","","","","","",""
"","ITI","","html-keyboard-response","137","203624","0.0-1.0-180.0","0","0","45288","","null","","","null","19","","","","","","","","","","","","","","","NaN",""
"","S1","","html-keyboard-response","138","203877","0.0-1.0-182.0","0","0","45288","","null","","","null","20","","","","","","","","","","","","","","","",""
"","ISI","","html-keyboard-response","139","204879","0.0-1.0-183.0","0","0","45288","","null","","","null","20","NaN","","","","","","","","","","","","","","",""
"","S2","","html-keyboard-response","140","205133","0.0-1.0-184.0","0","0","45288","","null","","","null","20","","NaN","","","","","","","","","","","","","",""
"","response","","html-keyboard-response","141","205538","0.0-1.0-185.0-0.0","0","0","45288","","403","","","75","20","","","1","20","training","adjacent","FE","6","5","R.jpg","Q.jpg","0","0","1","",""
"","feedback","","html-keyboard-response","142","206541","0.0-1.0-186.0-0.0","0","0","45288","","null","","","null","20","","","","","","","","","","","","","","","",""
"","ITI","","html-keyboard-response","143","207544","0.0-1.0-189.0","0","0","45288","","null","","","null","20","","","","","","","","","","","","","","","NaN",""
"","S1","","html-keyboard-response","144","207797","0.0-1.0-191.0","0","0","45288","","null","","","null","21","","","","","","","","","","","","","","","",""
"","ISI","","html-keyboard-response","145","208799","0.0-1.0-192.0","0","0","45288","","null","","","null","21","NaN","","","","","","","","","","","","","","",""
"","S2","","html-keyboard-response","146","209053","0.0-1.0-193.0","0","0","45288","","null","","","null","21","","NaN","","","","","","","","","","","","","",""
"","response","","html-keyboard-response","147","209363","0.0-1.0-194.0-0.0","0","0","45288","","308","","","68","21","","","1","21","training","adjacent","FG","6","7","R.jpg","P.jpg","1","1","1","",""
"","feedback","","html-keyboard-response","148","210367","0.0-1.0-195.0-0.0","0","0","45288","","null","","","null","21","","","","","","","","","","","","","","","",""
"","ITI","","html-keyboard-response","149","211370","0.0-1.0-198.0","0","0","45288","","null","","","null","21","","","","","","","","","","","","","","","NaN",""
"","S1","","html-keyboard-response","150","211625","0.0-1.0-200.0","0","0","45288","","null","","","null","22","","","","","","","","","","","","","","","",""
"","ISI","","html-keyboard-response","151","212627","0.0-1.0-201.0","0","0","45288","","null","","","null","22","NaN","","","","","","","","","","","","","","",""
"","S2","","html-keyboard-response","152","212880","0.0-1.0-202.0","0","0","45288","","null","","","null","22","","NaN","","","","","","","","","","","","","",""
"","response","","html-keyboard-response","153","213339","0.0-1.0-203.0-0.0","0","0","45288","","456","","","75","22","","","1","22","training","adjacent","CB","3","2","O.jpg","L.jpg","0","0","1","",""
"","feedback","","html-keyboard-response","154","214343","0.0-1.0-204.0-0.0","0","0","45288","","null","","","null","22","","","","","","","","","","","","","","","",""
"","ITI","","html-keyboard-response","155","215345","0.0-1.0-207.0","0","0","45288","","null","","","null","22","","","","","","","","","","","","","","","NaN",""
"","S1","","html-keyboard-response","156","215598","0.0-1.0-209.0","0","0","45288","","null","","","null","23","","","","","","","","","","","","","","","",""
"","ISI","","html-keyboard-response","157","216601","0.0-1.0-210.0","0","0","45288","","null","","","null","23","NaN","","","","","","","","","","","","","","",""
"","S2","","html-keyboard-response","158","216854","0.0-1.0-211.0","0","0","45288","","null","","","null","23","","NaN","","","","","","","","","","","","","",""
"","response","","html-keyboard-response","159","217064","0.0-1.0-212.0-0.0","0","0","45288","","209","","","68","23","","","1","23","training","adjacent","EF","5","6","Q.jpg","R.jpg","1","1","1","",""
"","feedback","","html-keyboard-response","160","218068","0.0-1.0-213.0-0.0","0","0","45288","","null","","","null","23","","","","","","","","","","","","","","","",""
"","ITI","","html-keyboard-response","161","219071","0.0-1.0-216.0","0","0","45288","","null","","","null","23","","","","","","","","","","","","","","","NaN",""
"","S1","","html-keyboard-response","162","219324","0.0-1.0-218.0","0","0","45288","","null","","","null","24","","","","","","","","","","","","","","","",""
"","ISI","","html-keyboard-response","163","220340","0.0-1.0-219.0","0","0","45288","","null","","","null","24","NaN","","","","","","","","","","","","","","",""
"","S2","","html-keyboard-response","164","220594","0.0-1.0-220.0","0","0","45288","","null","","","null","24","","NaN","","","","","","","","","","","","","",""
"","response","","html-keyboard-response","165","221094","0.0-1.0-221.0-0.0","0","0","45288","","499","","","75","24","","","1","24","training","adjacent","CD","3","4","O.jpg","N.jpg","0","1","0","",""
"","feedback","","html-keyboard-response","166","222097","0.0-1.0-222.0-0.0","0","0","45288","","null","","","null","24","","","","","","","","","","","","","","","",""
"","time_out","","html-keyboard-response","167","224100","0.0-1.0-224.0-0.0","0","0","45288","","null","","","null","24","","","","","","","","","","","","","","","",""
"","ITI","","html-keyboard-response","168","225103","0.0-1.0-225.0","0","0","45288","","null","","","null","24","","","","","","","","","","","","","","","NaN",""
"","S1","","html-keyboard-response","169","225356","0.0-1.0-227.0","0","0","45288","","null","","","null","25","","","","","","","","","","","","","","","",""
"","ISI","","html-keyboard-response","170","226359","0.0-1.0-228.0","0","0","45288","","null","","","null","25","NaN","","","","","","","","","","","","","","",""
"","S2","","html-keyboard-response","171","226613","0.0-1.0-229.0","0","0","45288","","null","","","null","25","","NaN","","","","","","","","","","","","","",""
"","response","","html-keyboard-response","172","227038","0.0-1.0-230.0-0.0","0","0","45288","","424","","","68","25","","","1","25","training","adjacent","BA","2","1","L.jpg","M.jpg","1","0","0","",""
"","feedback","","html-keyboard-response","173","228042","0.0-1.0-231.0-0.0","0","0","45288","","null","","","null","25","","","","","","","","","","","","","","","",""
"","time_out","","html-keyboard-response","174","230045","0.0-1.0-233.0-0.0","0","0","45288","","null","","","null","25","","","","","","","","","","","","","","","",""
"","ITI","","html-keyboard-response","175","231048","0.0-1.0-234.0","0","0","45288","","null","","","null","25","","","","","","","","","","","","","","","NaN",""
"","S1","","html-keyboard-response","176","231301","0.0-1.0-236.0","0","0","45288","","null","","","null","26","","","","","","","","","","","","","","","",""
"","ISI","","html-keyboard-response","177","232304","0.0-1.0-237.0","0","0","45288","","null","","","null","26","NaN","","","","","","","","","","","","","","",""
"","S2","","html-keyboard-response","178","232558","0.0-1.0-238.0","0","0","45288","","null","","","null","26","","NaN","","","","","","","","","","","","","",""
"","response","","html-keyboard-response","179","233162","0.0-1.0-239.0-0.0","0","0","45288","","602","","","68","26","","","1","26","training","adjacent","CD","3","4","O.jpg","N.jpg","1","1","1","",""
"","feedback","","html-keyboard-response","180","234165","0.0-1.0-240.0-0.0","0","0","45288","","null","","","null","26","","","","","","","","","","","","","","","",""
"","ITI","","html-keyboard-response","181","235181","0.0-1.0-243.0","0","0","45288","","null","","","null","26","","","","","","","","","","","","","","","NaN",""
"","S1","","html-keyboard-response","182","235434","0.0-1.0-245.0","0","0","45288","","null","","","null","27","","","","","","","","","","","","","","","",""
"","ISI","","html-keyboard-response","183","236437","0.0-1.0-246.0","0","0","45288","","null","","","null","27","NaN","","","","","","","","","","","","","","",""
"","S2","","html-keyboard-response","184","236698","0.0-1.0-247.0","0","0","45288","","null","","","null","27","","NaN","","","","","","","","","","","","","",""
"","response","","html-keyboard-response","185","237189","0.0-1.0-248.0-0.0","0","0","45288","","488","","","75","27","","","1","27","training","adjacent","CB","3","2","O.jpg","L.jpg","0","0","1","",""
"","feedback","","html-keyboard-response","186","238193","0.0-1.0-249.0-0.0","0","0","45288","","null","","","null","27","","","","","","","","","","","","","","","",""
"","ITI","","html-keyboard-response","187","239196","0.0-1.0-252.0","0","0","45288","","null","","","null","27","","","","","","","","","","","","","","","NaN",""
"","S1","","html-keyboard-response","188","239449","0.0-1.0-254.0","0","0","45288","","null","","","null","28","","","","","","","","","","","","","","","",""
"","ISI","","html-keyboard-response","189","240451","0.0-1.0-255.0","0","0","45288","","null","","","null","28","NaN","","","","","","","","","","","","","","",""
"","S2","","html-keyboard-response","190","240705","0.0-1.0-256.0","0","0","45288","","null","","","null","28","","NaN","","","","","","","","","","","","","",""
"","response","","html-keyboard-response","191","240748","0.0-1.0-257.0-0.0","0","0","45288","","42","","","68","28","","","1","28","training","adjacent","EF","5","6","Q.jpg","R.jpg","1","1","1","",""
"","feedback","","html-keyboard-response","192","241753","0.0-1.0-258.0-0.0","0","0","45288","","null","","","null","28","","","","","","","","","","","","","","","",""
"","ITI","","html-keyboard-response","193","242755","0.0-1.0-261.0","0","0","45288","","null","","","null","28","","","","","","","","","","","","","","","NaN",""
"","S1","","html-keyboard-response","194","243007","0.0-1.0-263.0","0","0","45288","","null","","","null","29","","","","","","","","","","","","","","","",""
"","ISI","","html-keyboard-response","195","244010","0.0-1.0-264.0","0","0","45288","","null","","","null","29","NaN","","","","","","","","","","","","","","",""
"","S2","","html-keyboard-response","196","244264","0.0-1.0-265.0","0","0","45288","","null","","","null","29","","NaN","","","","","","","","","","","","","",""
"","response","","html-keyboard-response","197","244566","0.0-1.0-266.0-0.0","0","0","45288","","300","","","68","29","","","1","29","training","adjacent","BC","2","3","L.jpg","O.jpg","1","1","1","",""
"","feedback","","html-keyboard-response","198","245570","0.0-1.0-267.0-0.0","0","0","45288","","null","","","null","29","","","","","","","","","","","","","","","",""
"","ITI","","html-keyboard-response","199","246572","0.0-1.0-270.0","0","0","45288","","null","","","null","29","","","","","","","","","","","","","","","NaN",""
"","S1","","html-keyboard-response","200","246825","0.0-1.0-272.0","0","0","45288","","null","","","null","30","","","","","","","","","","","","","","","",""
"","ISI","","html-keyboard-response","201","247828","0.0-1.0-273.0","0","0","45288","","null","","","null","30","NaN","","","","","","","","","","","","","","",""
"","S2","","html-keyboard-response","202","248081","0.0-1.0-274.0","0","0","45288","","null","","","null","30","","NaN","","","","","","","","","","","","","",""
"","response","","html-keyboard-response","203","248212","0.0-1.0-275.0-0.0","0","0","45288","","128","","","75","30","","","1","30","training","adjacent","DC","4","3","N.jpg","O.jpg","0","0","1","",""
"","feedback","","html-keyboard-response","204","249215","0.0-1.0-276.0-0.0","0","0","45288","","null","","","null","30","","","","","","","","","","","","","","","",""
"","ITI","","html-keyboard-response","205","250218","0.0-1.0-279.0","0","0","45288","","null","","","null","30","","","","","","","","","","","","","","","NaN",""
"","S1","","html-keyboard-response","206","250472","0.0-1.0-281.0","0","0","45288","","null","","","null","31","","","","","","","","","","","","","","","",""
"","ISI","","html-keyboard-response","207","251475","0.0-1.0-282.0","0","0","45288","","null","","","null","31","NaN","","","","","","","","","","","","","","",""
"","S2","","html-keyboard-response","208","251729","0.0-1.0-283.0","0","0","45288","","null","","","null","31","","NaN","","","","","","","","","","","","","",""
"","response","","html-keyboard-response","209","251977","0.0-1.0-284.0-0.0","0","0","45288","","245","","","75","31","","","1","31","training","adjacent","FG","6","7","R.jpg","P.jpg","0","1","0","",""
"","feedback","","html-keyboard-response","210","252980","0.0-1.0-285.0-0.0","0","0","45288","","null","","","null","31","","","","","","","","","","","","","","","",""
"","time_out","","html-keyboard-response","211","254983","0.0-1.0-287.0-0.0","0","0","45288","","null","","","null","31","","","","","","","","","","","","","","","",""
"","ITI","","html-keyboard-response","212","255986","0.0-1.0-288.0","0","0","45288","","null","","","null","31","","","","","","","","","","","","","","","NaN",""
"","S1","","html-keyboard-response","213","256240","0.0-1.0-290.0","0","0","45288","","null","","","null","32","","","","","","","","","","","","","","","",""
"","ISI","","html-keyboard-response","214","257243","0.0-1.0-291.0","0","0","45288","","null","","","null","32","NaN","","","","","","","","","","","","","","",""
"","S2","","html-keyboard-response","215","257496","0.0-1.0-292.0","0","0","45288","","null","","","null","32","","NaN","","","","","","","","","","","","","",""
"","response","","html-keyboard-response","216","257731","0.0-1.0-293.0-0.0","0","0","45288","","233","","","68","32","","","1","32","training","adjacent","ED","5","4","Q.jpg","N.jpg","1","0","0","",""
"","feedback","","html-keyboard-response","217","258734","0.0-1.0-294.0-0.0","0","0","45288","","null","","","null","32","","","","","","","","","","","","","","","",""
"","time_out","","html-keyboard-response","218","260737","0.0-1.0-296.0-0.0","0","0","45288","","null","","","null","32","","","","","","","","","","","","","","","",""
"","ITI","","html-keyboard-response","219","261740","0.0-1.0-297.0","0","0","45288","","null","","","null","32","","","","","","","","","","","","","","","NaN",""
"","S1","","html-keyboard-response","220","261993","0.0-1.0-299.0","0","0","45288","","null","","","null","33","","","","","","","","","","","","","","","",""
"","ISI","","html-keyboard-response","221","262996","0.0-1.0-300.0","0","0","45288","","null","","","null","33","NaN","","","","","","","","","","","","","","",""
"","S2","","html-keyboard-response","222","263249","0.0-1.0-301.0","0","0","45288","","null","","","null","33","","NaN","","","","","","","","","","","","","",""
"","response","","html-keyboard-response","223","263450","0.0-1.0-302.0-0.0","0","0","45288","","198","","","75","33","","","1","33","training","adjacent","FG","6","7","R.jpg","P.jpg","0","1","0","",""
"","feedback","","html-keyboard-response","224","264453","0.0-1.0-303.0-0.0","0","0","45288","","null","","","null","33","","","","","","","","","","","","","","","",""
"","time_out","","html-keyboard-response","225","266455","0.0-1.0-305.0-0.0","0","0","45288","","null","","","null","33","","","","","","","","","","","","","","","",""
"","ITI","","html-keyboard-response","226","267458","0.0-1.0-306.0","0","0","45288","","null","","","null","33","","","","","","","","","","","","","","","NaN",""
"","S1","","html-keyboard-response","227","267711","0.0-1.0-308.0","0","0","45288","","null","","","null","34","","","","","","","","","","","","","","","",""
"","ISI","","html-keyboard-response","228","268714","0.0-1.0-309.0","0","0","45288","","null","","","null","34","NaN","","","","","","","","","","","","","","",""
"","S2","","html-keyboard-response","229","268967","0.0-1.0-310.0","0","0","45288","","null","","","null","34","","NaN","","","","","","","","","","","","","",""
"","response","","html-keyboard-response","230","269253","0.0-1.0-311.0-0.0","0","0","45288","","283","","","68","34","","","1","34","training","adjacent","CD","3","4","O.jpg","N.jpg","1","1","1","",""
"","feedback","","html-keyboard-response","231","270257","0.0-1.0-312.0-0.0","0","0","45288","","null","","","null","34","","","","","","","","","","","","","","","",""
"","ITI","","html-keyboard-response","232","271261","0.0-1.0-315.0","0","0","45288","","null","","","null","34","","","","","","","","","","","","","","","NaN",""
"","S1","","html-keyboard-response","233","271514","0.0-1.0-317.0","0","0","45288","","null","","","null","35","","","","","","","","","","","","","","","",""
"","ISI","","html-keyboard-response","234","272517","0.0-1.0-318.0","0","0","45288","","null","","","null","35","NaN","","","","","","","","","","","","","","",""
"","S2","","html-keyboard-response","235","272770","0.0-1.0-319.0","0","0","45288","","null","","","null","35","","NaN","","","","","","","","","","","","","",""
"","response","","html-keyboard-response","236","272914","0.0-1.0-320.0-0.0","0","0","45288","","142","","","75","35","","","1","35","training","adjacent","AB","1","2","M.jpg","L.jpg","0","1","0","",""
"","feedback","","html-keyboard-response","237","273918","0.0-1.0-321.0-0.0","0","0","45288","","null","","","null","35","","","","","","","","","","","","","","","",""
"","time_out","","html-keyboard-response","238","275920","0.0-1.0-323.0-0.0","0","0","45288","","null","","","null","35","","","","","","","","","","","","","","","",""
"","ITI","","html-keyboard-response","239","276923","0.0-1.0-324.0","0","0","45288","","null","","","null","35","","","","","","","","","","","","","","","NaN",""
"","S1","","html-keyboard-response","240","277177","0.0-1.0-326.0","0","0","45288","","null","","","null","36","","","","","","","","","","","","","","","",""
"","ISI","","html-keyboard-response","241","278179","0.0-1.0-327.0","0","0","45288","","null","","","null","36","NaN","","","","","","","","","","","","","","",""
"","S2","","html-keyboard-response","242","278433","0.0-1.0-328.0","0","0","45288","","null","","","null","36","","NaN","","","","","","","","","","","","","",""
"","response","","html-keyboard-response","243","278619","0.0-1.0-329.0-0.0","0","0","45288","","184","","","68","36","","","1","36","training","adjacent","BC","2","3","L.jpg","O.jpg","1","1","1","",""
"","feedback","","html-keyboard-response","244","279622","0.0-1.0-330.0-0.0","0","0","45288","","null","","","null","36","","","","","","","","","","","","","","","",""
"","ITI","","html-keyboard-response","245","280624","0.0-1.0-333.0","0","0","45288","","null","","","null","36","","","","","","","","","","","","","","","NaN",""
"","S1","","html-keyboard-response","246","280878","0.0-1.0-335.0","0","0","45288","","null","","","null","37","","","","","","","","","","","","","","","",""
"","ISI","","html-keyboard-response","247","281881","0.0-1.0-336.0","0","0","45288","","null","","","null","37","NaN","","","","","","","","","","","","","","",""
"","S2","","html-keyboard-response","248","282135","0.0-1.0-337.0","0","0","45288","","252","","","75","37","","k","1","37","training","adjacent","DE","4","5","N.jpg","Q.jpg","0","1","0","",""
"","feedback","","html-keyboard-response","249","283139","0.0-1.0-339.0-0.0","0","0","45288","","null","","","null","37","","","","","","","","","","","","","","","",""
"","time_out","","html-keyboard-response","250","285141","0.0-1.0-341.0-0.0","0","0","45288","","null","","","null","37","","","","","","","","","","","","","","","",""
"","ITI","","html-keyboard-response","251","286145","0.0-1.0-342.0","0","0","45288","","null","","","null","37","","","","","","","","","","","","","","","NaN",""
"","S1","","html-keyboard-response","252","286397","0.0-1.0-344.0","0","0","45288","","null","","","null","38","","","","","","","","","","","","","","","",""
"","ISI","","html-keyboard-response","253","287400","0.0-1.0-345.0","0","0","45288","","null","","","null","38","NaN","","","","","","","","","","","","","","",""
"","S2","","html-keyboard-response","254","287653","0.0-1.0-346.0","0","0","45288","","null","","","null","38","","NaN","","","","","","","","","","","","","",""
"","response","","html-keyboard-response","255","287664","0.0-1.0-347.0-0.0","0","0","45288","","9","","","68","38","","","1","38","training","adjacent","BC","2","3","L.jpg","O.jpg","1","1","1","",""
"","feedback","","html-keyboard-response","256","288668","0.0-1.0-348.0-0.0","0","0","45288","","null","","","null","38","","","","","","","","","","","","","","","",""
"","ITI","","html-keyboard-response","257","289671","0.0-1.0-351.0","0","0","45288","","null","","","null","38","","","","","","","","","","","","","","","NaN",""
"","S1","","html-keyboard-response","258","289924","0.0-1.0-353.0","0","0","45288","","null","","","null","39","","","","","","","","","","","","","","","",""
"","ISI","","html-keyboard-response","259","290927","0.0-1.0-354.0","0","0","45288","","null","","","null","39","NaN","","","","","","","","","","","","","","",""
"","S2","","html-keyboard-response","260","291180","0.0-1.0-355.0","0","0","45288","","null","","","null","39","","NaN","","","","","","","","","","","","","",""
"","response","","html-keyboard-response","261","291265","0.0-1.0-356.0-0.0","0","0","45288","","83","","","75","39","","","1","39","training","adjacent","DC","4","3","N.jpg","O.jpg","0","0","1","",""
"","feedback","","html-keyboard-response","262","292269","0.0-1.0-357.0-0.0","0","0","45288","","null","","","null","39","","","","","","","","","","","","","","","",""
"","ITI","","html-keyboard-response","263","293272","0.0-1.0-360.0","0","0","45288","","null","","","null","39","","","","","","","","","","","","","","","NaN",""
"","S1","","html-keyboard-response","264","293526","0.0-1.0-362.0","0","0","45288","","null","","","null","40","","","","","","","","","","","","","","","",""
"","ISI","","html-keyboard-response","265","294529","0.0-1.0-363.0","0","0","45288","","null","","","null","40","NaN","","","","","","","","","","","","","","",""
"","S2","","html-keyboard-response","266","294732","0.0-1.0-364.0","0","0","45288","","200","","","68","40","","d","1","40","training","adjacent","ED","5","4","Q.jpg","N.jpg","1","0","0","",""
"","feedback","","html-keyboard-response","267","295735","0.0-1.0-366.0-0.0","0","0","45288","","null","","","null","40","","","","","","","","","","","","","","","",""
"","time_out","","html-keyboard-response","268","297738","0.0-1.0-368.0-0.0","0","0","45288","","null","","","null","40","","","","","","","","","","","","","","","",""
"","ITI","","html-keyboard-response","269","298741","0.0-1.0-369.0","0","0","45288","","null","","","null","40","","","","","","","","","","","","","","","NaN",""
"","S1","","html-keyboard-response","270","298994","0.0-1.0-371.0","0","0","45288","","null","","","null","41","","","","","","","","","","","","","","","",""
"","ISI","","html-keyboard-response","271","299997","0.0-1.0-372.0","0","0","45288","","null","","","null","41","NaN","","","","","","","","","","","","","","",""
"","S2","","html-keyboard-response","272","300251","0.0-1.0-373.0","0","0","45288","","null","","","null","41","","NaN","","","","","","","","","","","","","",""
"","response","","html-keyboard-response","273","300391","0.0-1.0-374.0-0.0","0","0","45288","","138","","","75","41","","","1","41","training","adjacent","DE","4","5","N.jpg","Q.jpg","0","1","0","",""
"","feedback","","html-keyboard-response","274","301395","0.0-1.0-375.0-0.0","0","0","45288","","null","","","null","41","","","","","","","","","","","","","","","",""
"","time_out","","html-keyboard-response","275","303398","0.0-1.0-377.0-0.0","0","0","45288","","null","","","null","41","","","","","","","","","","","","","","","",""
"","ITI","","html-keyboard-response","276","304401","0.0-1.0-378.0","0","0","45288","","null","","","null","41","","","","","","","","","","","","","","","NaN",""
"","S1","","html-keyboard-response","277","304654","0.0-1.0-380.0","0","0","45288","","null","","","null","42","","","","","","","","","","","","","","","",""
"","ISI","","html-keyboard-response","278","305657","0.0-1.0-381.0","0","0","45288","","null","","","null","42","NaN","","","","","","","","","","","","","","",""
"","S2","","html-keyboard-response","279","305910","0.0-1.0-382.0","0","0","45288","","null","","","null","42","","NaN","","","","","","","","","","","","","",""
"","response","","html-keyboard-response","280","306123","0.0-1.0-383.0-0.0","0","0","45288","","210","","","75","42","","","1","42","training","adjacent","AB","1","2","M.jpg","L.jpg","0","1","0","",""
"","feedback","","html-keyboard-response","281","307127","0.0-1.0-384.0-0.0","0","0","45288","","null","","","null","42","","","","","","","","","","","","","","","",""
"","time_out","","html-keyboard-response","282","309130","0.0-1.0-386.0-0.0","0","0","45288","","null","","","null","42","","","","","","","","","","","","","","","",""
"","ITI","","html-keyboard-response","283","310133","0.0-1.0-387.0","0","0","45288","","null","","","null","42","","","","","","","","","","","","","","","NaN",""
"","S1","","html-keyboard-response","284","310387","0.0-1.0-389.0","0","0","45288","","null","","","null","43","","","","","","","","","","","","","","","",""
"","ISI","","html-keyboard-response","285","311389","0.0-1.0-390.0","0","0","45288","","null","","","null","43","NaN","","","","","","","","","","","","","","",""
"","S2","","html-keyboard-response","286","311643","0.0-1.0-391.0","0","0","45288","","null","","","null","43","","NaN","","","","","","","","","","","","","",""
"","response","","html-keyboard-response","287","311686","0.0-1.0-392.0-0.0","0","0","45288","","42","","","68","43","","","1","43","training","adjacent","CD","3","4","O.jpg","N.jpg","1","1","1","",""
"","feedback","","html-keyboard-response","288","312689","0.0-1.0-393.0-0.0","0","0","45288","","null","","","null","43","","","","","","","","","","","","","","","",""
"","ITI","","html-keyboard-response","289","313693","0.0-1.0-396.0","0","0","45288","","null","","","null","43","","","","","","","","","","","","","","","NaN",""
"","S1","","html-keyboard-response","290","313947","0.0-1.0-398.0","0","0","45288","","null","","","null","44","","","","","","","","","","","","","","","",""
"","ISI","","html-keyboard-response","291","314950","0.0-1.0-399.0","0","0","45288","","null","","","null","44","NaN","","","","","","","","","","","","","","",""
"","S2","","html-keyboard-response","292","315203","0.0-1.0-400.0","0","0","45288","","null","","","null","44","","NaN","","","","","","","","","","","","","",""
"","response","","html-keyboard-response","293","315303","0.0-1.0-401.0-0.0","0","0","45288","","97","","","75","44","","","1","44","training","adjacent","CB","3","2","O.jpg","L.jpg","0","0","1","",""
"","feedback","","html-keyboard-response","294","316306","0.0-1.0-402.0-0.0","0","0","45288","","null","","","null","44","","","","","","","","","","","","","","","",""
"","ITI","","html-keyboard-response","295","317309","0.0-1.0-405.0","0","0","45288","","null","","","null","44","","","","","","","","","","","","","","","NaN",""
"","S1","","html-keyboard-response","296","317562","0.0-1.0-407.0","0","0","45288","","null","","","null","45","","","","","","","","","","","","","","","",""
"","ISI","","html-keyboard-response","297","318565","0.0-1.0-408.0","0","0","45288","","null","","","null","45","NaN","","","","","","","","","","","","","","",""
"","S2","","html-keyboard-response","298","318644","0.0-1.0-409.0","0","0","45288","","76","","","75","45","","k","1","45","training","adjacent","DC","4","3","N.jpg","O.jpg","0","0","1","",""
"","feedback","","html-keyboard-response","299","319648","0.0-1.0-411.0-0.0","0","0","45288","","null","","","null","45","","","","","","","","","","","","","","","",""
"","ITI","","html-keyboard-response","300","320651","0.0-1.0-414.0","0","0","45288","","null","","","null","45","","","","","","","","","","","","","","","NaN",""
"","S1","","html-keyboard-response","301","320917","0.0-1.0-416.0","0","0","45288","","null","","","null","46","","","","","","","","","","","","","","","",""
"","ISI","","html-keyboard-response","302","321920","0.0-1.0-417.0","0","0","45288","","null","","","null","46","NaN","","","","","","","","","","","","","","",""
"","S2","","html-keyboard-response","303","322173","0.0-1.0-418.0","0","0","45288","","null","","","null","46","","NaN","","","","","","","","","","","","","",""
"","response","","html-keyboard-response","304","322515","0.0-1.0-419.0-0.0","0","0","45288","","339","","","75","46","","","1","46","training","adjacent","CB","3","2","O.jpg","L.jpg","0","0","1","",""
"","feedback","","html-keyboard-response","305","323519","0.0-1.0-420.0-0.0","0","0","45288","","null","","","null","46","","","","","","","","","","","","","","","",""
"","ITI","","html-keyboard-response","306","324522","0.0-1.0-423.0","0","0","45288","","null","","","null","46","","","","","","","","","","","","","","","NaN",""
"","S1","","html-keyboard-response","307","324776","0.0-1.0-425.0","0","0","45288","","null","","","null","47","","","","","","","","","","","","","","","",""
"","ISI","","html-keyboard-response","308","325780","0.0-1.0-426.0","0","0","45288","","null","","","null","47","NaN","","","","","","","","","","","","","","",""
"","S2","","html-keyboard-response","309","326033","0.0-1.0-427.0","0","0","45288","","null","","","null","47","","NaN","","","","","","","","","","","","","",""
"","response","","html-keyboard-response","310","327315","0.0-1.0-428.0-0.0","0","0","45288","","1279","","","68","47","","","1","47","training","adjacent","GF","7","6","P.jpg","R.jpg","1","0","0","",""
"","feedback","","html-keyboard-response","311","328319","0.0-1.0-429.0-0.0","0","0","45288","","null","","","null","47","","","","","","","","","","","","","","","",""
"","time_out","","html-keyboard-response","312","330322","0.0-1.0-431.0-0.0","0","0","45288","","null","","","null","47","","","","","","","","","","","","","","","",""
"","ITI","","html-keyboard-response","313","331326","0.0-1.0-432.0","0","0","45288","","null","","","null","47","","","","","","","","","","","","","","","NaN",""
"","block_over","","html-keyboard-response","314","335642","0.0-1.0-433.0-0.0","0","0","45288","","4312","","","32","47","","","","","","","","","","","","","","","",""
"","S1","","html-keyboard-response","315","335895","0.0-1.0-434.0","0","0","45288","","null","","","null","48","","","","","","","","","","","","","","","",""
"","ISI","","html-keyboard-response","316","336898","0.0-1.0-435.0","0","0","45288","","null","","","null","48","NaN","","","","","","","","","","","","","","",""
"","S2","","html-keyboard-response","317","337151","0.0-1.0-436.0","0","0","45288","","null","","","null","48","","NaN","","","","","","","","","","","","","",""
"","response","","html-keyboard-response","318","337529","0.0-1.0-437.0-0.0","0","0","45288","","376","","","75","48","","","2","48","training","adjacent","FG","6","7","R.jpg","P.jpg","0","1","0","",""
"","feedback","","html-keyboard-response","319","338533","0.0-1.0-438.0-0.0","0","0","45288","","null","","","null","48","","","","","","","","","","","","","","","",""
"","time_out","","html-keyboard-response","320","340537","0.0-1.0-440.0-0.0","0","0","45288","","null","","","null","48","","","","","","","","","","","","","","","",""
"","ITI","","html-keyboard-response","321","341540","0.0-1.0-441.0","0","0","45288","","null","","","null","48","","","","","","","","","","","","","","","NaN",""
"","S1","","html-keyboard-response","322","341793","0.0-1.0-443.0","0","0","45288","","null","","","null","49","","","","","","","","","","","","","","","",""
"","ISI","","html-keyboard-response","323","342796","0.0-1.0-444.0","0","0","45288","","null","","","null","49","NaN","","","","","","","","","","","","","","",""
"","S2","","html-keyboard-response","324","343049","0.0-1.0-445.0","0","0","45288","","null","","","null","49","","NaN","","","","","","","","","","","","","",""
"","response","","html-keyboard-response","325","343967","0.0-1.0-446.0-0.0","0","0","45288","","915","","","68","49","","","2","49","training","adjacent","BC","2","3","L.jpg","O.jpg","1","1","1","",""
"","feedback","","html-keyboard-response","326","344972","0.0-1.0-447.0-0.0","0","0","45288","","null","","","null","49","","","","","","","","","","","","","","","",""
"","ITI","","html-keyboard-response","327","345974","0.0-1.0-450.0","0","0","45288","","null","","","null","49","","","","","","","","","","","","","","","NaN",""
"","S1","","html-keyboard-response","328","346228","0.0-1.0-452.0","0","0","45288","","null","","","null","50","","","","","","","","","","","","","","","",""
"","ISI","","html-keyboard-response","329","347231","0.0-1.0-453.0","0","0","45288","","null","","","null","50","NaN","","","","","","","","","","","","","","",""
"","S2","","html-keyboard-response","330","347464","0.0-1.0-454.0","0","0","45288","","230","","","68","50","","d","2","50","training","adjacent","BA","2","1","L.jpg","M.jpg","1","0","0","",""
"","feedback","","html-keyboard-response","331","348467","0.0-1.0-456.0-0.0","0","0","45288","","null","","","null","50","","","","","","","","","","","","","","","",""
"","time_out","","html-keyboard-response","332","350469","0.0-1.0-458.0-0.0","0","0","45288","","null","","","null","50","","","","","","","","","","","","","","","",""
"","ITI","","html-keyboard-response","333","351472","0.0-1.0-459.0","0","0","45288","","null","","","null","50","","","","","","","","","","","","","","","NaN",""
"","S1","","html-keyboard-response","334","351726","0.0-1.0-461.0","0","0","45288","","null","","","null","51","","","","","","","","","","","","","","","",""
"","ISI","","html-keyboard-response","335","352728","0.0-1.0-462.0","0","0","45288","","null","","","null","51","NaN","","","","","","","","","","","","","","",""
"","S2","","html-keyboard-response","336","352981","0.0-1.0-463.0","0","0","45288","","null","","","null","51","","NaN","","","","","","","","","","","","","",""
"","response","","html-keyboard-response","337","353034","0.0-1.0-464.0-0.0","0","0","45288","","50","","","75","51","","","2","51","training","adjacent","AB","1","2","M.jpg","L.jpg","0","1","0","",""
"","feedback","","html-keyboard-response","338","354038","0.0-1.0-465.0-0.0","0","0","45288","","null","","","null","51","","","","","","","","","","","","","","","",""
"","time_out","","html-keyboard-response","339","356041","0.0-1.0-467.0-0.0","0","0","45288","","null","","","null","51","","","","","","","","","","","","","","","",""
"","ITI","","html-keyboard-response","340","357045","0.0-1.0-468.0","0","0","45288","","null","","","null","51","","","","","","","","","","","","","","","NaN",""
"","S1","","html-keyboard-response","341","357298","0.0-1.0-470.0","0","0","45288","","null","","","null","52","","","","","","","","","","","","","","","",""
"","ISI","","html-keyboard-response","342","358301","0.0-1.0-471.0","0","0","45288","","null","","","null","52","NaN","","","","","","","","","","","","","","",""
"","S2","","html-keyboard-response","343","358554","0.0-1.0-472.0","0","0","45288","","null","","","null","52","","NaN","","","","","","","","","","","","","",""
"","response","","html-keyboard-response","344","358807","0.0-1.0-473.0-0.0","0","0","45288","","250","","","75","52","","","2","52","training","adjacent","CB","3","2","O.jpg","L.jpg","0","0","1","",""
"","feedback","","html-keyboard-response","345","359810","0.0-1.0-474.0-0.0","0","0","45288","","null","","","null","52","","","","","","","","","","","","","","","",""
"","ITI","","html-keyboard-response","346","360814","0.0-1.0-477.0","0","0","45288","","null","","","null","52","","","","","","","","","","","","","","","NaN",""
"","S1","","html-keyboard-response","347","361068","0.0-1.0-479.0","0","0","45288","","null","","","null","53","","","","","","","","","","","","","","","",""
"","ISI","","html-keyboard-response","348","362071","0.0-1.0-480.0","0","0","45288","","null","","","null","53","NaN","","","","","","","","","","","","","","",""
"","S2","","html-keyboard-response","349","362324","0.0-1.0-481.0","0","0","45288","","null","","","null","53","","NaN","","","","","","","","","","","","","",""
"","response","","html-keyboard-response","350","362628","0.0-1.0-482.0-0.0","0","0","45288","","302","","","75","53","","","2","53","training","adjacent","AB","1","2","M.jpg","L.jpg","0","1","0","",""
"","feedback","","html-keyboard-response","351","363631","0.0-1.0-483.0-0.0","0","0","45288","","null","","","null","53","","","","","","","","","","","","","","","",""
"","time_out","","html-keyboard-response","352","365635","0.0-1.0-485.0-0.0","0","0","45288","","null","","","null","53","","","","","","","","","","","","","","","",""
"","ITI","","html-keyboard-response","353","366637","0.0-1.0-486.0","0","0","45288","","null","","","null","53","","","","","","","","","","","","","","","NaN",""
"","S1","","html-keyboard-response","354","366890","0.0-1.0-488.0","0","0","45288","","null","","","null","54","","","","","","","","","","","","","","","",""
"","ISI","","html-keyboard-response","355","367903","0.0-1.0-489.0","0","0","45288","","null","","","null","54","NaN","","","","","","","","","","","","","","",""
"","S2","","html-keyboard-response","356","368157","0.0-1.0-490.0","0","0","45288","","null","","","null","54","","NaN","","","","","","","","","","","","","",""
"","response","","html-keyboard-response","357","368326","0.0-1.0-491.0-0.0","0","0","45288","","168","","","68","54","","","2","54","training","adjacent","ED","5","4","Q.jpg","N.jpg","1","0","0","",""
"","feedback","","html-keyboard-response","358","369330","0.0-1.0-492.0-0.0","0","0","45288","","null","","","null","54","","","","","","","","","","","","","","","",""
"","time_out","","html-keyboard-response","359","371333","0.0-1.0-494.0-0.0","0","0","45288","","null","","","null","54","","","","","","","","","","","","","","","",""
"","ITI","","html-keyboard-response","360","372336","0.0-1.0-495.0","0","0","45288","","null","","","null","54","","","","","","","","","","","","","","","NaN",""
"","S1","","html-keyboard-response","361","372589","0.0-1.0-497.0","0","0","45288","","null","","","null","55","","","","","","","","","","","","","","","",""
"","ISI","","html-keyboard-response","362","373592","0.0-1.0-498.0","0","0","45288","","null","","","null","55","NaN","","","","","","","","","","","","","","",""
"","S2","","html-keyboard-response","363","373846","0.0-1.0-499.0","0","0","45288","","null","","","null","55","","NaN","","","","","","","","","","","","","",""
"","response","","html-keyboard-response","364","373856","0.0-1.0-500.0-0.0","0","0","45288","","9","","","68","55","","","2","55","training","adjacent","BC","2","3","L.jpg","O.jpg","1","1","1","",""
"","feedback","","html-keyboard-response","365","374860","0.0-1.0-501.0-0.0","0","0","45288","","null","","","null","55","","","","","","","","","","","","","","","",""
"","ITI","","html-keyboard-response","366","375864","0.0-1.0-504.0","0","0","45288","","null","","","null","55","","","","","","","","","","","","","","","NaN",""
"","S1","","html-keyboard-response","367","376117","0.0-1.0-506.0","0","0","45288","","null","","","null","56","","","","","","","","","","","","","","","",""
"","ISI","","html-keyboard-response","368","377120","0.0-1.0-507.0","0","0","45288","","null","","","null","56","NaN","","","","","","","","","","","","","","",""
"","S2","","html-keyboard-response","369","377374","0.0-1.0-508.0","0","0","45288","","null","","","null","56","","NaN","","","","","","","","","","","","","",""
"","response","","html-keyboard-response","370","377838","0.0-1.0-509.0-0.0","0","0","45288","","463","","","75","56","","","2","56","training","adjacent","FG","6","7","R.jpg","P.jpg","0","1","0","",""
"","feedback","","html-keyboard-response","371","378842","0.0-1.0-510.0-0.0","0","0","45288","","null","","","null","56","","","","","","","","","","","","","","","",""
"","time_out","","html-keyboard-response","372","380845","0.0-1.0-512.0-0.0","0","0","45288","","null","","","null","56","","","","","","","","","","","","","","","",""
"","ITI","","html-keyboard-response","373","381848","0.0-1.0-513.0","0","0","45288","","null","","","null","56","","","","","","","","","","","","","","","NaN",""
"","S1","","html-keyboard-response","374","382102","0.0-1.0-515.0","0","0","45288","","null","","","null","57","","","","","","","","","","","","","","","",""
"","ISI","","html-keyboard-response","375","383104","0.0-1.0-516.0","0","0","45288","","null","","","null","57","NaN","","","","","","","","","","","","","","",""
"","S2","","html-keyboard-response","376","383358","0.0-1.0-517.0","0","0","45288","","null","","","null","57","","NaN","","","","","","","","","","","","","",""
"","response","","html-keyboard-response","377","384136","0.0-1.0-518.0-0.0","0","0","45288","","775","","","68","57","","","2","57","training","adjacent","EF","5","6","Q.jpg","R.jpg","1","1","1","",""
"","feedback","","html-keyboard-response","378","385139","0.0-1.0-519.0-0.0","0","0","45288","","null","","","null","57","","","","","","","","","","","","","","","",""
"","ITI","","html-keyboard-response","379","386143","0.0-1.0-522.0","0","0","45288","","null","","","null","57","","","","","","","","","","","","","","","NaN",""
"","S1","","html-keyboard-response","380","386396","0.0-1.0-524.0","0","0","45288","","null","","","null","58","","","","","","","","","","","","","","","",""
"","ISI","","html-keyboard-response","381","387407","0.0-1.0-525.0","0","0","45288","","null","","","null","58","NaN","","","","","","","","","","","","","","",""
"","S2","","html-keyboard-response","382","387660","0.0-1.0-526.0","0","0","45288","","null","","","null","58","","NaN","","","","","","","","","","","","","",""
"","response","","html-keyboard-response","383","387691","0.0-1.0-527.0-0.0","0","0","45288","","29","","","68","58","","","2","58","training","adjacent","BA","2","1","L.jpg","M.jpg","1","0","0","",""
"","feedback","","html-keyboard-response","384","388694","0.0-1.0-528.0-0.0","0","0","45288","","null","","","null","58","","","","","","","","","","","","","","","",""
"","time_out","","html-keyboard-response","385","390697","0.0-1.0-530.0-0.0","0","0","45288","","null","","","null","58","","","","","","","","","","","","","","","",""
"","ITI","","html-keyboard-response","386","391701","0.0-1.0-531.0","0","0","45288","","null","","","null","58","","","","","","","","","","","","","","","NaN",""
"","S1","","html-keyboard-response","387","391954","0.0-1.0-533.0","0","0","45288","","null","","","null","59","","","","","","","","","","","","","","","",""
"","ISI","","html-keyboard-response","388","392957","0.0-1.0-534.0","0","0","45288","","null","","","null","59","NaN","","","","","","","","","","","","","","",""
"","S2","","html-keyboard-response","389","393192","0.0-1.0-535.0","0","0","45288","","232","","","75","59","","k","2","59","training","adjacent","GF","7","6","P.jpg","R.jpg","0","0","1","",""
"","feedback","","html-keyboard-response","390","394195","0.0-1.0-537.0-0.0","0","0","45288","","null","","","null","59","","","","","","","","","","","","","","","",""
"","ITI","","html-keyboard-response","391","395199","0.0-1.0-540.0","0","0","45288","","null","","","null","59","","","","","","","","","","","","","","","NaN",""
"","S1","","html-keyboard-response","392","395452","0.0-1.0-542.0","0","0","45288","","null","","","null","60","","","","","","","","","","","","","","","",""
"","ISI","","html-keyboard-response","393","396455","0.0-1.0-543.0","0","0","45288","","null","","","null","60","NaN","","","","","","","","","","","","","","",""
"","S2","","html-keyboard-response","394","396708","0.0-1.0-544.0","0","0","45288","","null","","","null","60","","NaN","","","","","","","","","","","","","",""
"","response","","html-keyboard-response","395","396969","0.0-1.0-545.0-0.0","0","0","45288","","259","","","75","60","","","2","60","training","adjacent","CB","3","2","O.jpg","L.jpg","0","0","1","",""
"","feedback","","html-keyboard-response","396","397973","0.0-1.0-546.0-0.0","0","0","45288","","null","","","null","60","","","","","","","","","","","","","","","",""
"","ITI","","html-keyboard-response","397","398976","0.0-1.0-549.0","0","0","45288","","null","","","null","60","","","","","","","","","","","","","","","NaN",""
"","S1","","html-keyboard-response","398","399230","0.0-1.0-551.0","0","0","45288","","null","","","null","61","","","","","","","","","","","","","","","",""
"","ISI","","html-keyboard-response","399","400234","0.0-1.0-552.0","0","0","45288","","null","","","null","61","NaN","","","","","","","","","","","","","","",""
"","S2","","html-keyboard-response","400","400486","0.0-1.0-553.0","0","0","45288","","null","","","null","61","","NaN","","","","","","","","","","","","","",""
"","response","","html-keyboard-response","401","401678","0.0-1.0-554.0-0.0","0","0","45288","","1189","","","75","61","","","2","61","training","adjacent","FE","6","5","R.jpg","Q.jpg","0","0","1","",""
"","feedback","","html-keyboard-response","402","402682","0.0-1.0-555.0-0.0","0","0","45288","","null","","","null","61","","","","","","","","","","","","","","","",""
"","ITI","","html-keyboard-response","403","403685","0.0-1.0-558.0","0","0","45288","","null","","","null","61","","","","","","","","","","","","","","","NaN",""
"","S1","","html-keyboard-response","404","403938","0.0-1.0-560.0","0","0","45288","","null","","","null","62","","","","","","","","","","","","","","","",""
"","ISI","","html-keyboard-response","405","404941","0.0-1.0-561.0","0","0","45288","","null","","","null","62","NaN","","","","","","","","","","","","","","",""
"","S2","","html-keyboard-response","406","405195","0.0-1.0-562.0","0","0","45288","","null","","","null","62","","NaN","","","","","","","","","","","","","",""
"","response","","html-keyboard-response","407","405395","0.0-1.0-563.0-0.0","0","0","45288","","197","","","75","62","","","2","62","training","adjacent","FG","6","7","R.jpg","P.jpg","0","1","0","",""
"","feedback","","html-keyboard-response","408","406399","0.0-1.0-564.0-0.0","0","0","45288","","null","","","null","62","","","","","","","","","","","","","","","",""
"","time_out","","html-keyboard-response","409","408402","0.0-1.0-566.0-0.0","0","0","45288","","null","","","null","62","","","","","","","","","","","","","","","",""
"","ITI","","html-keyboard-response","410","409405","0.0-1.0-567.0","0","0","45288","","null","","","null","62","","","","","","","","","","","","","","","NaN",""
"","S1","","html-keyboard-response","411","409658","0.0-1.0-569.0","0","0","45288","","null","","","null","63","","","","","","","","","","","","","","","",""
"","ISI","","html-keyboard-response","412","410660","0.0-1.0-570.0","0","0","45288","","null","","","null","63","NaN","","","","","","","","","","","","","","",""
"","S2","","html-keyboard-response","413","410914","0.0-1.0-571.0","0","0","45288","","null","","","null","63","","NaN","","","","","","","","","","","","","",""
"","response","","html-keyboard-response","414","410924","0.0-1.0-572.0-0.0","0","0","45288","","8","","","75","63","","","2","63","training","adjacent","AB","1","2","M.jpg","L.jpg","0","1","0","",""
"","feedback","","html-keyboard-response","415","411927","0.0-1.0-573.0-0.0","0","0","45288","","null","","","null","63","","","","","","","","","","","","","","","",""
"","time_out","","html-keyboard-response","416","413931","0.0-1.0-575.0-0.0","0","0","45288","","null","","","null","63","","","","","","","","","","","","","","","",""
"","ITI","","html-keyboard-response","417","414933","0.0-1.0-576.0","0","0","45288","","null","","","null","63","","","","","","","","","","","","","","","NaN",""
"","S1","","html-keyboard-response","418","415189","0.0-1.0-578.0","0","0","45288","","null","","","null","64","","","","","","","","","","","","","","","",""
"","ISI","","html-keyboard-response","419","416192","0.0-1.0-579.0","0","0","45288","","null","","","null","64","NaN","","","","","","","","","","","","","","",""
"","S2","","html-keyboard-response","420","416445","0.0-1.0-580.0","0","0","45288","","null","","","null","64","","NaN","","","","","","","","","","","","","",""
"","response","","html-keyboard-response","421","416620","0.0-1.0-581.0-0.0","0","0","45288","","172","","","68","64","","","2","64","training","adjacent","FE","6","5","R.jpg","Q.jpg","1","0","0","",""
"","feedback","","html-keyboard-response","422","417623","0.0-1.0-582.0-0.0","0","0","45288","","null","","","null","64","","","","","","","","","","","","","","","",""
"","time_out","","html-keyboard-response","423","419626","0.0-1.0-584.0-0.0","0","0","45288","","null","","","null","64","","","","","","","","","","","","","","","",""
"","ITI","","html-keyboard-response","424","420628","0.0-1.0-585.0","0","0","45288","","null","","","null","64","","","","","","","","","","","","","","","NaN",""
"","S1","","html-keyboard-response","425","420881","0.0-1.0-587.0","0","0","45288","","null","","","null","65","","","","","","","","","","","","","","","",""
"","ISI","","html-keyboard-response","426","421884","0.0-1.0-588.0","0","0","45288","","null","","","null","65","NaN","","","","","","","","","","","","","","",""
"","S2","","html-keyboard-response","427","422137","0.0-1.0-589.0","0","0","45288","","null","","","null","65","","NaN","","","","","","","","","","","","","",""
"","response","","html-keyboard-response","428","422348","0.0-1.0-590.0-0.0","0","0","45288","","208","","","68","65","","","2","65","training","adjacent","CD","3","4","O.jpg","N.jpg","1","1","1","",""
"","feedback","","html-keyboard-response","429","423352","0.0-1.0-591.0-0.0","0","0","45288","","null","","","null","65","","","","","","","","","","","","","","","",""
"","ITI","","html-keyboard-response","430","424355","0.0-1.0-594.0","0","0","45288","","null","","","null","65","","","","","","","","","","","","","","","NaN",""
"","S1","","html-keyboard-response","431","424608","0.0-1.0-596.0","0","0","45288","","null","","","null","66","","","","","","","","","","","","","","","",""
"","ISI","","html-keyboard-response","432","425611","0.0-1.0-597.0","0","0","45288","","null","","","null","66","NaN","","","","","","","","","","","","","","",""
"","S2","","html-keyboard-response","433","425845","0.0-1.0-598.0","0","0","45288","","230","","","68","66","","d","2","66","training","adjacent","DC","4","3","N.jpg","O.jpg","1","0","0","",""
"","feedback","","html-keyboard-response","434","426849","0.0-1.0-600.0-0.0","0","0","45288","","null","","","null","66","","","","","","","","","","","","","","","",""
"","time_out","","html-keyboard-response","435","428853","0.0-1.0-602.0-0.0","0","0","45288","","null","","","null","66","","","","","","","","","","","","","","","",""
"","ITI","","html-keyboard-response","436","429856","0.0-1.0-603.0","0","0","45288","","null","","","null","66","","","","","","","","","","","","","","","NaN",""
"","S1","","html-keyboard-response","437","430109","0.0-1.0-605.0","0","0","45288","","null","","","null","67","","","","","","","","","","","","","","","",""
"","ISI","","html-keyboard-response","438","431112","0.0-1.0-606.0","0","0","45288","","null","","","null","67","NaN","","","","","","","","","","","","","","",""
"","S2","","html-keyboard-response","439","431366","0.0-1.0-607.0","0","0","45288","","null","","","null","67","","NaN","","","","","","","","","","","","","",""
"","response","","html-keyboard-response","440","431434","0.0-1.0-608.0-0.0","0","0","45288","","65","","","75","67","","","2","67","training","adjacent","CD","3","4","O.jpg","N.jpg","0","1","0","",""
"","feedback","","html-keyboard-response","441","432438","0.0-1.0-609.0-0.0","0","0","45288","","null","","","null","67","","","","","","","","","","","","","","","",""
"","time_out","","html-keyboard-response","442","434441","0.0-1.0-611.0-0.0","0","0","45288","","null","","","null","67","","","","","","","","","","","","","","","",""
"","ITI","","html-keyboard-response","443","435445","0.0-1.0-612.0","0","0","45288","","null","","","null","67","","","","","","","","","","","","","","","NaN",""
"","S1","","html-keyboard-response","444","435698","0.0-1.0-614.0","0","0","45288","","null","","","null","68","","","","","","","","","","","","","","","",""
"","ISI","","html-keyboard-response","445","436700","0.0-1.0-615.0","0","0","45288","","null","","","null","68","NaN","","","","","","","","","","","","","","",""
"","S2","","html-keyboard-response","446","436904","0.0-1.0-616.0","0","0","45288","","201","","","75","68","","k","2","68","training","adjacent","AB","1","2","M.jpg","L.jpg","0","1","0","",""
"","feedback","","html-keyboard-response","447","437908","0.0-1.0-618.0-0.0","0","0","45288","","null","","","null","68","","","","","","","","","","","","","","","",""
"","time_out","","html-keyboard-response","448","439912","0.0-1.0-620.0-0.0","0","0","45288","","null","","","null","68","","","","","","","","","","","","","","","",""
"","ITI","","html-keyboard-response","449","440916","0.0-1.0-621.0","0","0","45288","","null","","","null","68","","","","","","","","","","","","","","","NaN",""
"","S1","","html-keyboard-response","450","441169","0.0-1.0-623.0","0","0","45288","","null","","","null","69","","","","","","","","","","","","","","","",""
"","ISI","","html-keyboard-response","451","442173","0.0-1.0-624.0","0","0","45288","","null","","","null","69","NaN","","","","","","","","","","","","","","",""
"","S2","","html-keyboard-response","452","442394","0.0-1.0-625.0","0","0","45288","","218","","","75","69","","k","2","69","training","adjacent","DE","4","5","N.jpg","Q.jpg","0","1","0","",""
"","feedback","","html-keyboard-response","453","443398","0.0-1.0-627.0-0.0","0","0","45288","","null","","","null","69","","","","","","","","","","","","","","","",""
"","time_out","","html-keyboard-response","454","445400","0.0-1.0-629.0-0.0","0","0","45288","","null","","","null","69","","","","","","","","","","","","","","","",""
"","ITI","","html-keyboard-response","455","446403","0.0-1.0-630.0","0","0","45288","","null","","","null","69","","","","","","","","","","","","","","","NaN",""
"","S1","","html-keyboard-response","456","446657","0.0-1.0-632.0","0","0","45288","","null","","","null","70","","","","","","","","","","","","","","","",""
"","ISI","","html-keyboard-response","457","447660","0.0-1.0-633.0","0","0","45288","","null","","","null","70","NaN","","","","","","","","","","","","","","",""
"","S2","","html-keyboard-response","458","447908","0.0-1.0-634.0","0","0","45288","","245","","","68","70","","d","2","70","training","adjacent","GF","7","6","P.jpg","R.jpg","1","0","0","",""
"","feedback","","html-keyboard-response","459","448912","0.0-1.0-636.0-0.0","0","0","45288","","null","","","null","70","","","","","","","","","","","","","","","",""
"","time_out","","html-keyboard-response","460","450915","0.0-1.0-638.0-0.0","0","0","45288","","null","","","null","70","","","","","","","","","","","","","","","",""
"","ITI","","html-keyboard-response","461","451918","0.0-1.0-639.0","0","0","45288","","null","","","null","70","","","","","","","","","","","","","","","NaN",""
"","S1","","html-keyboard-response","462","452171","0.0-1.0-641.0","0","0","45288","","null","","","null","71","","","","","","","","","","","","","","","",""
"","ISI","","html-keyboard-response","463","453174","0.0-1.0-642.0","0","0","45288","","null","","","null","71","NaN","","","","","","","","","","","","","","",""
"","S2","","html-keyboard-response","464","453378","0.0-1.0-643.0","0","0","45288","","200","","","68","71","","d","2","71","training","adjacent","GF","7","6","P.jpg","R.jpg","1","0","0","",""
"","feedback","","html-keyboard-response","465","454381","0.0-1.0-645.0-0.0","0","0","45288","","null","","","null","71","","","","","","","","","","","","","","","",""
"","time_out","","html-keyboard-response","466","456384","0.0-1.0-647.0-0.0","0","0","45288","","null","","","null","71","","","","","","","","","","","","","","","",""
"","ITI","","html-keyboard-response","467","457387","0.0-1.0-648.0","0","0","45288","","null","","","null","71","","","","","","","","","","","","","","","NaN",""
"","S1","","html-keyboard-response","468","457640","0.0-1.0-650.0","0","0","45288","","null","","","null","72","","","","","","","","","","","","","","","",""
"","ISI","","html-keyboard-response","469","458645","0.0-1.0-651.0","0","0","45288","","null","","","null","72","NaN","","","","","","","","","","","","","","",""
"","S2","","html-keyboard-response","470","458761","0.0-1.0-652.0","0","0","45288","","114","","","75","72","","k","2","72","training","adjacent","DC","4","3","N.jpg","O.jpg","0","0","1","",""
"","feedback","","html-keyboard-response","471","459764","0.0-1.0-654.0-0.0","0","0","45288","","null","","","null","72","","","","","","","","","","","","","","","",""
"","ITI","","html-keyboard-response","472","460768","0.0-1.0-657.0","0","0","45288","","null","","","null","72","","","","","","","","","","","","","","","NaN",""
"","S1","","html-keyboard-response","473","461022","0.0-1.0-659.0","0","0","45288","","null","","","null","73","","","","","","","","","","","","","","","",""
"","ISI","","html-keyboard-response","474","462025","0.0-1.0-660.0","0","0","45288","","null","","","null","73","NaN","","","","","","","","","","","","","","",""
"","S2","","html-keyboard-response","475","462278","0.0-1.0-661.0","0","0","45288","","null","","","null","73","","NaN","","","","","","","","","","","","","",""
"","response","","html-keyboard-response","476","462457","0.0-1.0-662.0-0.0","0","0","45288","","177","","","75","73","","","2","73","training","adjacent","EF","5","6","Q.jpg","R.jpg","0","1","0","",""
"","feedback","","html-keyboard-response","477","463461","0.0-1.0-663.0-0.0","0","0","45288","","null","","","null","73","","","","","","","","","","","","","","","",""
"","time_out","","html-keyboard-response","478","465464","0.0-1.0-665.0-0.0","0","0","45288","","null","","","null","73","","","","","","","","","","","","","","","",""
"","ITI","","html-keyboard-response","479","466467","0.0-1.0-666.0","0","0","45288","","null","","","null","73","","","","","","","","","","","","","","","NaN",""
"","S1","","html-keyboard-response","480","466720","0.0-1.0-668.0","0","0","45288","","null","","","null","74","","","","","","","","","","","","","","","",""
"","ISI","","html-keyboard-response","481","467723","0.0-1.0-669.0","0","0","45288","","null","","","null","74","NaN","","","","","","","","","","","","","","",""
"","S2","","html-keyboard-response","482","467933","0.0-1.0-670.0","0","0","45288","","207","","","75","74","","k","2","74","training","adjacent","DC","4","3","N.jpg","O.jpg","0","0","1","",""
"","feedback","","html-keyboard-response","483","468936","0.0-1.0-672.0-0.0","0","0","45288","","null","","","null","74","","","","","","","","","","","","","","","",""
"","ITI","","html-keyboard-response","484","469940","0.0-1.0-675.0","0","0","45288","","null","","","null","74","","","","","","","","","","","","","","","NaN",""
"","S1","","html-keyboard-response","485","470194","0.0-1.0-677.0","0","0","45288","","null","","","null","75","","","","","","","","","","","","","","","",""
"","ISI","","html-keyboard-response","486","471198","0.0-1.0-678.0","0","0","45288","","null","","","null","75","NaN","","","","","","","","","","","","","","",""
"","S2","","html-keyboard-response","487","471451","0.0-1.0-679.0","0","0","45288","","null","","","null","75","","NaN","","","","","","","","","","","","","",""
"","response","","html-keyboard-response","488","471465","0.0-1.0-680.0-0.0","0","0","45288","","10","","","75","75","","","2","75","training","adjacent","DE","4","5","N.jpg","Q.jpg","0","1","0","",""
"","feedback","","html-keyboard-response","489","472469","0.0-1.0-681.0-0.0","0","0","45288","","null","","","null","75","","","","","","","","","","","","","","","",""
"","time_out","","html-keyboard-response","490","474473","0.0-1.0-683.0-0.0","0","0","45288","","null","","","null","75","","","","","","","","","","","","","","","",""
"","ITI","","html-keyboard-response","491","475475","0.0-1.0-684.0","0","0","45288","","null","","","null","75","","","","","","","","","","","","","","","NaN",""
"","S1","","html-keyboard-response","492","475728","0.0-1.0-686.0","0","0","45288","","null","","","null","76","","","","","","","","","","","","","","","",""
"","ISI","","html-keyboard-response","493","476731","0.0-1.0-687.0","0","0","45288","","null","","","null","76","NaN","","","","","","","","","","","","","","",""
"","S2","","html-keyboard-response","494","476976","0.0-1.0-688.0","0","0","45288","","242","","","68","76","","d","2","76","training","adjacent","ED","5","4","Q.jpg","N.jpg","1","0","0","",""
"","feedback","","html-keyboard-response","495","477979","0.0-1.0-690.0-0.0","0","0","45288","","null","","","null","76","","","","","","","","","","","","","","","",""
"","time_out","","html-keyboard-response","496","479982","0.0-1.0-692.0-0.0","0","0","45288","","null","","","null","76","","","","","","","","","","","","","","","",""
"","ITI","","html-keyboard-response","497","480987","0.0-1.0-693.0","0","0","45288","","null","","","null","76","","","","","","","","","","","","","","","NaN",""
"","S1","","html-keyboard-response","498","481241","0.0-1.0-695.0","0","0","45288","","null","","","null","77","","","","","","","","","","","","","","","",""
"","ISI","","html-keyboard-response","499","482245","0.0-1.0-696.0","0","0","45288","","null","","","null","77","NaN","","","","","","","","","","","","","","",""
"","S2","","html-keyboard-response","500","482479","0.0-1.0-697.0","0","0","45288","","232","","","68","77","","d","2","77","training","adjacent","EF","5","6","Q.jpg","R.jpg","1","1","1","",""
"","feedback","","html-keyboard-response","501","483483","0.0-1.0-699.0-0.0","0","0","45288","","null","","","null","77","","","","","","","","","","","","","","","",""
"","ITI","","html-keyboard-response","502","484486","0.0-1.0-702.0","0","0","45288","","null","","","null","77","","","","","","","","","","","","","","","NaN",""
"","S1","","html-keyboard-response","503","484740","0.0-1.0-704.0","0","0","45288","","null","","","null","78","","","","","","","","","","","","","","","",""
"","ISI","","html-keyboard-response","504","485744","0.0-1.0-705.0","0","0","45288","","null","","","null","78","NaN","","","","","","","","","","","","","","",""
"","S2","","html-keyboard-response","505","485996","0.0-1.0-706.0","0","0","45288","","null","","","null","78","","NaN","","","","","","","","","","","","","",""
"","response","","html-keyboard-response","506","486180","0.0-1.0-707.0-0.0","0","0","45288","","181","","","68","78","","","2","78","training","adjacent","GF","7","6","P.jpg","R.jpg","1","0","0","",""
"","feedback","","html-keyboard-response","507","487183","0.0-1.0-708.0-0.0","0","0","45288","","null","","","null","78","","","","","","","","","","","","","","","",""
"","time_out","","html-keyboard-response","508","489187","0.0-1.0-710.0-0.0","0","0","45288","","null","","","null","78","","","","","","","","","","","","","","","",""
"","ITI","","html-keyboard-response","509","490190","0.0-1.0-711.0","0","0","45288","","null","","","null","78","","","","","","","","","","","","","","","NaN",""
"","S1","","html-keyboard-response","510","490444","0.0-1.0-713.0","0","0","45288","","null","","","null","79","","","","","","","","","","","","","","","",""
"","ISI","","html-keyboard-response","511","491446","0.0-1.0-714.0","0","0","45288","","null","","","null","79","NaN","","","","","","","","","","","","","","",""
"","S2","","html-keyboard-response","512","491700","0.0-1.0-715.0","0","0","45288","","null","","","null","79","","NaN","","","","","","","","","","","","","",""
"","response","","html-keyboard-response","513","492110","0.0-1.0-716.0-0.0","0","0","45288","","407","","","68","79","","","2","79","training","adjacent","BC","2","3","L.jpg","O.jpg","1","1","1","",""
"","feedback","","html-keyboard-response","514","493115","0.0-1.0-717.0-0.0","0","0","45288","","null","","","null","79","","","","","","","","","","","","","","","",""
"","ITI","","html-keyboard-response","515","494119","0.0-1.0-720.0","0","0","45288","","null","","","null","79","","","","","","","","","","","","","","","NaN",""
"","S1","","html-keyboard-response","516","494373","0.0-1.0-722.0","0","0","45288","","null","","","null","80","","","","","","","","","","","","","","","",""
"","ISI","","html-keyboard-response","517","495375","0.0-1.0-723.0","0","0","45288","","null","","","null","80","NaN","","","","","","","","","","","","","","",""
"","S2","","html-keyboard-response","518","495611","0.0-1.0-724.0","0","0","45288","","234","","","75","80","","k","2","80","training","adjacent","DC","4","3","N.jpg","O.jpg","0","0","1","",""
"","feedback","","html-keyboard-response","519","496615","0.0-1.0-726.0-0.0","0","0","45288","","null","","","null","80","","","","","","","","","","","","","","","",""
"","ITI","","html-keyboard-response","520","497619","0.0-1.0-729.0","0","0","45288","","null","","","null","80","","","","","","","","","","","","","","","NaN",""
"","S1","","html-keyboard-response","521","497873","0.0-1.0-731.0","0","0","45288","","null","","","null","81","","","","","","","","","","","","","","","",""
"","ISI","","html-keyboard-response","522","498876","0.0-1.0-732.0","0","0","45288","","null","","","null","81","NaN","","","","","","","","","","","","","","",""
"","S2","","html-keyboard-response","523","499102","0.0-1.0-733.0","0","0","45288","","223","","","75","81","","k","2","81","training","adjacent","FG","6","7","R.jpg","P.jpg","0","1","0","",""
"","feedback","","html-keyboard-response","524","500105","0.0-1.0-735.0-0.0","0","0","45288","","null","","","null","81","","","","","","","","","","","","","","","",""
"","time_out","","html-keyboard-response","525","502109","0.0-1.0-737.0-0.0","0","0","45288","","null","","","null","81","","","","","","","","","","","","","","","",""
"","ITI","","html-keyboard-response","526","503112","0.0-1.0-738.0","0","0","45288","","null","","","null","81","","","","","","","","","","","","","","","NaN",""
"","S1","","html-keyboard-response","527","503365","0.0-1.0-740.0","0","0","45288","","null","","","null","82","","","","","","","","","","","","","","","",""
"","ISI","","html-keyboard-response","528","504371","0.0-1.0-741.0","0","0","45288","","null","","","null","82","NaN","","","","","","","","","","","","","","",""
"","S2","","html-keyboard-response","529","504596","0.0-1.0-742.0","0","0","45288","","223","","","68","82","","d","2","82","training","adjacent","CB","3","2","O.jpg","L.jpg","1","0","0","",""
"","feedback","","html-keyboard-response","530","505599","0.0-1.0-744.0-0.0","0","0","45288","","null","","","null","82","","","","","","","","","","","","","","","",""
"","time_out","","html-keyboard-response","531","507602","0.0-1.0-746.0-0.0","0","0","45288","","null","","","null","82","","","","","","","","","","","","","","","",""
"","ITI","","html-keyboard-response","532","508605","0.0-1.0-747.0","0","0","45288","","null","","","null","82","","","","","","","","","","","","","","","NaN",""
"","S1","","html-keyboard-response","533","508859","0.0-1.0-749.0","0","0","45288","","null","","","null","83","","","","","","","","","","","","","","","",""
"","ISI","","html-keyboard-response","534","509861","0.0-1.0-750.0","0","0","45288","","826","","","75","83","k","","","","","","","","","","","","","","",""
"","S2","","html-keyboard-response","535","510115","0.0-1.0-751.0","0","0","45288","","null","","","null","83","","NaN","","","","","","","","","","","","","",""
"","response","","html-keyboard-response","536","510292","0.0-1.0-752.0-0.0","0","0","45288","","174","","","75","83","","","2","83","training","adjacent","CB","3","2","O.jpg","L.jpg","0","0","1","",""
"","feedback","","html-keyboard-response","537","511311","0.0-1.0-753.0-0.0","0","0","45288","","null","","","null","83","","","","","","","","","","","","","","","",""
"","ITI","","html-keyboard-response","538","512314","0.0-1.0-756.0","0","0","45288","","null","","","null","83","","","","","","","","","","","","","","","NaN",""
"","S1","","html-keyboard-response","539","512568","0.0-1.0-758.0","0","0","45288","","null","","","null","84","","","","","","","","","","","","","","","",""
"","ISI","","html-keyboard-response","540","513571","0.0-1.0-759.0","0","0","45288","","null","","","null","84","NaN","","","","","","","","","","","","","","",""
"","S2","","html-keyboard-response","541","513824","0.0-1.0-760.0","0","0","45288","","null","","","null","84","","NaN","","","","","","","","","","","","","",""
"","response","","html-keyboard-response","542","514052","0.0-1.0-761.0-0.0","0","0","45288","","227","","","68","84","","","2","84","training","adjacent","BC","2","3","L.jpg","O.jpg","1","1","1","",""
"","feedback","","html-keyboard-response","543","515055","0.0-1.0-762.0-0.0","0","0","45288","","null","","","null","84","","","","","","","","","","","","","","","",""
"","ITI","","html-keyboard-response","544","516058","0.0-1.0-765.0","0","0","45288","","null","","","null","84","","","","","","","","","","","","","","","NaN",""
"","S1","","html-keyboard-response","545","516312","0.0-1.0-767.0","0","0","45288","","null","","","null","85","","","","","","","","","","","","","","","",""
"","ISI","","html-keyboard-response","546","517329","0.0-1.0-768.0","0","0","45288","","null","","","null","85","NaN","","","","","","","","","","","","","","",""
"","S2","","html-keyboard-response","547","517583","0.0-1.0-769.0","0","0","45288","","null","","","null","85","","NaN","","","","","","","","","","","","","",""
"","response","","html-keyboard-response","548","517598","0.0-1.0-770.0-0.0","0","0","45288","","14","","","68","85","","","2","85","training","adjacent","ED","5","4","Q.jpg","N.jpg","1","0","0","",""
"","feedback","","html-keyboard-response","549","518604","0.0-1.0-771.0-0.0","0","0","45288","","null","","","null","85","","","","","","","","","","","","","","","",""
"","time_out","","html-keyboard-response","550","520608","0.0-1.0-773.0-0.0","0","0","45288","","null","","","null","85","","","","","","","","","","","","","","","",""
"","ITI","","html-keyboard-response","551","521610","0.0-1.0-774.0","0","0","45288","","null","","","null","85","","","","","","","","","","","","","","","NaN",""
"","S1","","html-keyboard-response","552","521863","0.0-1.0-776.0","0","0","45288","","null","","","null","86","","","","","","","","","","","","","","","",""
"","ISI","","html-keyboard-response","553","522866","0.0-1.0-777.0","0","0","45288","","null","","","null","86","NaN","","","","","","","","","","","","","","",""
"","S2","","html-keyboard-response","554","523120","0.0-1.0-778.0","0","0","45288","","null","","","null","86","","NaN","","","","","","","","","","","","","",""
"","response","","html-keyboard-response","555","523129","0.0-1.0-779.0-0.0","0","0","45288","","8","","","68","86","","","2","86","training","adjacent","CD","3","4","O.jpg","N.jpg","1","1","1","",""
"","feedback","","html-keyboard-response","556","524135","0.0-1.0-780.0-0.0","0","0","45288","","null","","","null","86","","","","","","","","","","","","","","","",""
"","ITI","","html-keyboard-response","557","525138","0.0-1.0-783.0","0","0","45288","","null","","","null","86","","","","","","","","","","","","","","","NaN",""
"","S1","","html-keyboard-response","558","525391","0.0-1.0-785.0","0","0","45288","","null","","","null","87","","","","","","","","","","","","","","","",""
"","ISI","","html-keyboard-response","559","526394","0.0-1.0-786.0","0","0","45288","","null","","","null","87","NaN","","","","","","","","","","","","","","",""
"","S2","","html-keyboard-response","560","526622","0.0-1.0-787.0","0","0","45288","","225","","","75","87","","k","2","87","training","adjacent","DE","4","5","N.jpg","Q.jpg","0","1","0","",""
"","feedback","","html-keyboard-response","561","527626","0.0-1.0-789.0-0.0","0","0","45288","","null","","","null","87","","","","","","","","","","","","","","","",""
"","time_out","","html-keyboard-response","562","529629","0.0-1.0-791.0-0.0","0","0","45288","","null","","","null","87","","","","","","","","","","","","","","","",""
"","ITI","","html-keyboard-response","563","530632","0.0-1.0-792.0","0","0","45288","","null","","","null","87","","","","","","","","","","","","","","","NaN",""
"","S1","","html-keyboard-response","564","530886","0.0-1.0-794.0","0","0","45288","","null","","","null","88","","","","","","","","","","","","","","","",""
"","ISI","","html-keyboard-response","565","531888","0.0-1.0-795.0","0","0","45288","","null","","","null","88","NaN","","","","","","","","","","","","","","",""
"","S2","","html-keyboard-response","566","532141","0.0-1.0-796.0","0","0","45288","","null","","","null","88","","NaN","","","","","","","","","","","","","",""
"","response","","html-keyboard-response","567","532159","0.0-1.0-797.0-0.0","0","0","45288","","16","","","68","88","","","2","88","training","adjacent","BA","2","1","L.jpg","M.jpg","1","0","0","",""
"","feedback","","html-keyboard-response","568","533163","0.0-1.0-798.0-0.0","0","0","45288","","null","","","null","88","","","","","","","","","","","","","","","",""
"","time_out","","html-keyboard-response","569","535166","0.0-1.0-800.0-0.0","0","0","45288","","null","","","null","88","","","","","","","","","","","","","","","",""
"","ITI","","html-keyboard-response","570","536169","0.0-1.0-801.0","0","0","45288","","null","","","null","88","","","","","","","","","","","","","","","NaN",""
"","S1","","html-keyboard-response","571","536423","0.0-1.0-803.0","0","0","45288","","null","","","null","89","","","","","","","","","","","","","","","",""
"","ISI","","html-keyboard-response","572","537426","0.0-1.0-804.0","0","0","45288","","null","","","null","89","NaN","","","","","","","","","","","","","","",""
"","S2","","html-keyboard-response","573","537679","0.0-1.0-805.0","0","0","45288","","null","","","null","89","","NaN","","","","","","","","","","","","","",""
"","response","","html-keyboard-response","574","537845","0.0-1.0-806.0-0.0","0","0","45288","","163","","","75","89","","","2","89","training","adjacent","EF","5","6","Q.jpg","R.jpg","0","1","0","",""
"","feedback","","html-keyboard-response","575","538848","0.0-1.0-807.0-0.0","0","0","45288","","null","","","null","89","","","","","","","","","","","","","","","",""
"","time_out","","html-keyboard-response","576","540852","0.0-1.0-809.0-0.0","0","0","45288","","null","","","null","89","","","","","","","","","","","","","","","",""
"","ITI","","html-keyboard-response","577","541855","0.0-1.0-810.0","0","0","45288","","null","","","null","89","","","","","","","","","","","","","","","NaN",""
"","S1","","html-keyboard-response","578","542108","0.0-1.0-812.0","0","0","45288","","null","","","null","90","","","","","","","","","","","","","","","",""
"","ISI","","html-keyboard-response","579","543112","0.0-1.0-813.0","0","0","45288","","null","","","null","90","NaN","","","","","","","","","","","","","","",""
"","S2","","html-keyboard-response","580","543365","0.0-1.0-814.0","0","0","45288","","null","","","null","90","","NaN","","","","","","","","","","","","","",""
"","response","","html-keyboard-response","581","543465","0.0-1.0-815.0-0.0","0","0","45288","","97","","","68","90","","","2","90","training","adjacent","FE","6","5","R.jpg","Q.jpg","1","0","0","",""
