"success","ttype","start_time","trial_type","trial_index","time_elapsed","internal_node_id","warning","missed_checkup","PID","view_history","rt","responses","repeat_instructions","key_press","index","keypress_isi","keypress_S2","block","trial_num","phase","group_type","pair_type","S1_stim","S2_stim","S1_img","S2_img","S1_chosen","S1_higher","accuracy","keypress_iti","total_bonus_tally"
"true","full_screen","d03082023hr1855","fullscreen","0","3507","0.0-0.0","0","0","59955","","","","","","","","","","","","","","","","","","","","","",""
"","instructions","","instructions","1","16753","0.0-1.0-0.0-0.0","0","0","59955","[{""page_index"":0,""viewing_time"":5046},{""page_index"":1,""viewing_time"":5224},{""page_index"":2,""viewing_time"":1818},{""page_index"":3,""viewing_time"":1150}]","13239","","","","","","","","","","","","","","","","","","","",""
"","comprehension_check","","survey-multi-choice","2","249756","0.0-1.0-0.0-1.0","0","0","59955","","232982","{""Q0"":""True"",""Q1"":""D"",""Q2"":""Only while the second image is shown"",""Q3"":""Green mark"",""Q4"":""either D or K""}","1","","","","","","","","","","","","","","","","","",""
"","missed_instruction_checkup","","html-keyboard-response","3","252602","0.0-1.0-0.0-2.0-0.0","0","1","59955","","2835","","","32","","","","","","","","","","","","","","","","",""
"","instructions","","instructions","4","336199","0.0-1.0-0.1-0.1","0","0","59955","[{""page_index"":0,""viewing_time"":21813},{""page_index"":1,""viewing_time"":56004},{""page_index"":2,""viewing_time"":4044},{""page_index"":3,""viewing_time"":1728}]","83590","","","","","","","","","","","","","","","","","","","",""
"","comprehension_check","","survey-multi-choice","5","378651","0.0-1.0-0.1-1.1","0","0","59955","","42439","{""Q0"":""True"",""Q1"":""K"",""Q2"":""Only when the screen 'MAKE A CHOICE' is shown"",""Q3"":""Green mark"",""Q4"":""either D or K""}","1","","","","","","","","","","","","","","","","","",""
"","missed_instruction_checkup","","html-keyboard-response","6","381575","0.0-1.0-0.1-2.1-0.1","0","1","59955","","2914","","","32","","","","","","","","","","","","","","","","",""
"","instructions","","instructions","7","466781","0.0-1.0-0.2-0.2","0","0","59955","[{""page_index"":0,""viewing_time"":66146},{""page_index"":1,""viewing_time"":16386},{""page_index"":2,""viewing_time"":1404},{""page_index"":3,""viewing_time"":1257}]","85195","","","","","","","","","","","","","","","","","","","",""
"","comprehension_check","","survey-multi-choice","8","488823","0.0-1.0-0.2-1.2","0","0","59955","","22026","{""Q0"":""True"",""Q1"":""K"",""Q2"":""Once the second image appears and while the screen 'MAKE A CHOICE' is shown"",""Q3"":""Green mark"",""Q4"":""either D or K""}","0","","","","","","","","","","","","","","","","","",""
"","start_exp","","html-keyboard-response","9","490761","0.0-1.0-1.0","0","0","59955","","1930","","","32","","","","","","","","","","","","","","","","",""
"","S1","","html-keyboard-response","10","491017","0.0-1.0-2.0","0","0","59955","","null","","","null","0","","","","","","","","","","","","","","","",""
"","ISI","","html-keyboard-response","11","491172","0.0-1.0-3.0","0","0","59955","","null","","","null","0","NaN","","","","","","","","","","","","","","",""
"","S2","","html-keyboard-response","12","491477","0.0-1.0-4.0","0","0","59955","","null","","","null","0","","NaN","","","","","","","","","","","","","",""
"","response","","html-keyboard-response","13","493247","0.0-1.0-5.0-0.0","0","0","59955","","null","","","null","0","","","1","0","training","adjacent","CB","3","2","O.jpg","L.jpg","NaN","0","0","",""
"","too_slow_prompt","","html-keyboard-response","14","494264","0.0-1.0-7.0-0.0","1","0","59955","","null","","","null","","","","","","","","","","","","","","","","",""
"","time_out","","html-keyboard-response","15","496269","0.0-1.0-8.0-0.0","0","0","59955","","null","","","null","0","","","","","","","","","","","","","","","",""
"","ITI","","html-keyboard-response","16","497283","0.0-1.0-9.0","0","0","59955","","null","","","null","0","","","","","","","","","","","","","","","NaN",""
"","S1","","html-keyboard-response","17","497733","0.0-1.0-11.0","0","0","59955","","null","","","null","1","","","","","","","","","","","","","","","",""
"","ISI","","html-keyboard-response","18","497888","0.0-1.0-12.0","0","0","59955","","null","","","null","1","NaN","","","","","","","","","","","","","","",""
"","S2","","html-keyboard-response","19","498147","0.0-1.0-13.0","0","0","59955","","null","","","null","1","","NaN","","","","","","","","","","","","","",""
"","response","","html-keyboard-response","20","499902","0.0-1.0-14.0-0.0","0","0","59955","","null","","","null","1","","","1","1","training","adjacent","AB","1","2","P.jpg","L.jpg","NaN","1","0","",""
"","too_slow_prompt","","html-keyboard-response","21","501317","0.0-1.0-16.0-0.0","1","0","59955","","null","","","null","","","","","","","","","","","","","","","","",""
"","time_out","","html-keyboard-response","22","503323","0.0-1.0-17.0-0.0","0","0","59955","","null","","","null","1","","","","","","","","","","","","","","","",""
"","ITI","","html-keyboard-response","23","504335","0.0-1.0-18.0","0","0","59955","","null","","","null","1","","","","","","","","","","","","","","","NaN",""
"","S1","","html-keyboard-response","24","504596","0.0-1.0-20.0","0","0","59955","","null","","","null","2","","","","","","","","","","","","","","","",""
"","ISI","","html-keyboard-response","25","504750","0.0-1.0-21.0","0","0","59955","","null","","","null","2","NaN","","","","","","","","","","","","","","",""
"","S2","","html-keyboard-response","26","504898","0.0-1.0-22.0","0","0","59955","","143","","","75","2","","k","1","2","training","adjacent","EF","5","6","Q.jpg","R.jpg","1","1","1","",""
"","feedback","","html-keyboard-response","27","505905","0.0-1.0-24.0-0.0","0","0","59955","","null","","","null","2","","","","","","","","","","","","","","","",""
"","ITI","","html-keyboard-response","28","506966","0.0-1.0-27.0","0","0","59955","","null","","","null","2","","","","","","","","","","","","","","","NaN",""
"","S1","","html-keyboard-response","29","507221","0.0-1.0-29.0","0","0","59955","","null","","","null","3","","","","","","","","","","","","","","","",""
"","ISI","","html-keyboard-response","30","507381","0.0-1.0-30.0","0","0","59955","","null","","","null","3","NaN","","","","","","","","","","","","","","",""
"","S2","","html-keyboard-response","31","507492","0.0-1.0-31.0","0","0","59955","","102","","","75","3","","k","1","3","training","adjacent","CD","3","4","O.jpg","N.jpg","1","1","1","",""
"","feedback","","html-keyboard-response","32","508498","0.0-1.0-33.0-0.0","0","0","59955","","null","","","null","3","","","","","","","","","","","","","","","",""
"","ITI","","html-keyboard-response","33","509583","0.0-1.0-36.0","0","0","59955","","null","","","null","3","","","","","","","","","","","","","","","NaN",""
"","S1","","html-keyboard-response","34","509946","0.0-1.0-38.0","0","0","59955","","null","","","null","4","","","","","","","","","","","","","","","",""
"","ISI","","html-keyboard-response","35","510133","0.0-1.0-39.0","0","0","59955","","null","","","null","4","NaN","","","","","","","","","","","","","","",""
"","S2","","html-keyboard-response","36","510388","0.0-1.0-40.0","0","0","59955","","null","","","null","4","","NaN","","","","","","","","","","","","","",""
"","response","","html-keyboard-response","37","510606","0.0-1.0-41.0-0.0","0","0","59955","","215","","","75","4","","","1","4","training","adjacent","EF","5","6","Q.jpg","R.jpg","1","1","1","",""
"","feedback","","html-keyboard-response","38","511609","0.0-1.0-42.0-0.0","0","0","59955","","null","","","null","4","","","","","","","","","","","","","","","",""
"","ITI","","html-keyboard-response","39","512613","0.0-1.0-45.0","0","0","59955","","null","","","null","4","","","","","","","","","","","","","","","NaN",""
"","S1","","html-keyboard-response","40","512884","0.0-1.0-47.0","0","0","59955","","null","","","null","5","","","","","","","","","","","","","","","",""
"","ISI","","html-keyboard-response","41","513056","0.0-1.0-48.0","0","0","59955","","null","","","null","5","NaN","","","","","","","","","","","","","","",""
"","S2","","html-keyboard-response","42","513217","0.0-1.0-49.0","0","0","59955","","152","","","75","5","","k","1","5","training","adjacent","FE","6","5","R.jpg","Q.jpg","1","0","0","",""
"","feedback","","html-keyboard-response","43","514230","0.0-1.0-51.0-0.0","0","0","59955","","null","","","null","5","","","","","","","","","","","","","","","",""
"","time_out","","html-keyboard-response","44","516249","0.0-1.0-53.0-0.0","0","0","59955","","null","","","null","5","","","","","","","","","","","","","","","",""
"","ITI","","html-keyboard-response","45","517265","0.0-1.0-54.0","0","0","59955","","52","","","75","5","","","","","","","","","","","","","","","k",""
"","S1","","html-keyboard-response","46","517524","0.0-1.0-56.0","0","0","59955","","null","","","null","6","","","","","","","","","","","","","","","",""
"","ISI","","html-keyboard-response","47","517683","0.0-1.0-57.0","0","0","59955","","null","","","null","6","NaN","","","","","","","","","","","","","","",""
"","S2","","html-keyboard-response","48","517806","0.0-1.0-58.0","0","0","59955","","118","","","75","6","","k","1","6","training","adjacent","FE","6","5","R.jpg","Q.jpg","1","0","0","",""
"","feedback","","html-keyboard-response","49","518810","0.0-1.0-60.0-0.0","0","0","59955","","null","","","null","6","","","","","","","","","","","","","","","",""
"","time_out","","html-keyboard-response","50","520827","0.0-1.0-62.0-0.0","0","0","59955","","null","","","null","6","","","","","","","","","","","","","","","",""
"","ITI","","html-keyboard-response","51","521850","0.0-1.0-63.0","0","0","59955","","null","","","null","6","","","","","","","","","","","","","","","NaN",""
"","S1","","html-keyboard-response","52","522105","0.0-1.0-65.0","0","0","59955","","null","","","null","7","","","","","","","","","","","","","","","",""
"","ISI","","html-keyboard-response","53","522261","0.0-1.0-66.0","0","0","59955","","null","","","null","7","NaN","","","","","","","","","","","","","","",""
"","S2","","html-keyboard-response","54","522470","0.0-1.0-67.0","0","0","59955","","205","","","75","7","","k","1","7","training","adjacent","AB","1","2","P.jpg","L.jpg","1","1","1","",""
"","feedback","","html-keyboard-response","55","523479","0.0-1.0-69.0-0.0","0","0","59955","","null","","","null","7","","","","","","","","","","","","","","","",""
"","ITI","","html-keyboard-response","56","524484","0.0-1.0-72.0","0","0","59955","","957","","","75","7","","","","","","","","","","","","","","","k",""
"","S1","","html-keyboard-response","57","524738","0.0-1.0-74.0","0","0","59955","","null","","","null","8","","","","","","","","","","","","","","","",""
"","ISI","","html-keyboard-response","58","524891","0.0-1.0-75.0","0","0","59955","","null","","","null","8","NaN","","","","","","","","","","","","","","",""
"","S2","","html-keyboard-response","59","525033","0.0-1.0-76.0","0","0","59955","","137","","","75","8","","k","1","8","training","adjacent","GF","7","6","M.jpg","R.jpg","1","0","0","",""
"","feedback","","html-keyboard-response","60","526093","0.0-1.0-78.0-0.0","0","0","59955","","null","","","null","8","","","","","","","","","","","","","","","",""
"","time_out","","html-keyboard-response","61","528110","0.0-1.0-80.0-0.0","0","0","59955","","null","","","null","8","","","","","","","","","","","","","","","",""
"","ITI","","html-keyboard-response","62","529115","0.0-1.0-81.0","0","0","59955","","null","","","null","8","","","","","","","","","","","","","","","NaN",""
"","S1","","html-keyboard-response","63","529369","0.0-1.0-83.0","0","0","59955","","null","","","null","9","","","","","","","","","","","","","","","",""
"","ISI","","html-keyboard-response","64","529531","0.0-1.0-84.0","0","0","59955","","85","","","75","9","k","","","","","","","","","","","","","","",""
"","S2","","html-keyboard-response","65","529789","0.0-1.0-85.0","0","0","59955","","null","","","null","9","","NaN","","","","","","","","","","","","","",""
"","response","","html-keyboard-response","66","529903","0.0-1.0-86.0-0.0","0","0","59955","","107","","","75","9","","","1","9","training","adjacent","FG","6","7","R.jpg","M.jpg","1","1","1","",""
"","feedback","","html-keyboard-response","67","530924","0.0-1.0-87.0-0.0","0","0","59955","","null","","","null","9","","","","","","","","","","","","","","","",""
"","ITI","","html-keyboard-response","68","531935","0.0-1.0-90.0","0","0","59955","","null","","","null","9","","","","","","","","","","","","","","","NaN",""
"","S1","","html-keyboard-response","69","532190","0.0-1.0-92.0","0","0","59955","","null","","","null","10","","","","","","","","","","","","","","","",""
"","ISI","","html-keyboard-response","70","532370","0.0-1.0-93.0","0","0","59955","","null","","","null","10","NaN","","","","","","","","","","","","","","",""
"","S2","","html-keyboard-response","71","532632","0.0-1.0-94.0","0","0","59955","","null","","","null","10","","NaN","","","","","","","","","","","","","",""
"","response","","html-keyboard-response","72","532846","0.0-1.0-95.0-0.0","0","0","59955","","208","","","75","10","","","1","10","training","adjacent","GF","7","6","M.jpg","R.jpg","1","0","0","",""
"","feedback","","html-keyboard-response","73","533881","0.0-1.0-96.0-0.0","0","0","59955","","null","","","null","10","","","","","","","","","","","","","","","",""
"","time_out","","html-keyboard-response","74","535894","0.0-1.0-98.0-0.0","0","0","59955","","null","","","null","10","","","","","","","","","","","","","","","",""
"","ITI","","html-keyboard-response","75","536899","0.0-1.0-99.0","0","0","59955","","null","","","null","10","","","","","","","","","","","","","","","NaN",""
"","S1","","html-keyboard-response","76","537202","0.0-1.0-101.0","0","0","59955","","null","","","null","11","","","","","","","","","","","","","","","",""
"","ISI","","html-keyboard-response","77","537357","0.0-1.0-102.0","0","0","59955","","null","","","null","11","NaN","","","","","","","","","","","","","","",""
"","S2","","html-keyboard-response","78","537610","0.0-1.0-103.0","0","0","59955","","null","","","null","11","","NaN","","","","","","","","","","","","","",""
"","response","","html-keyboard-response","79","538143","0.0-1.0-104.0-0.0","0","0","59955","","529","","","68","11","","","1","11","training","adjacent","BC","2","3","L.jpg","O.jpg","0","1","0","",""
"","feedback","","html-keyboard-response","80","539149","0.0-1.0-105.0-0.0","0","0","59955","","null","","","null","11","","","","","","","","","","","","","","","",""
"","time_out","","html-keyboard-response","81","541154","0.0-1.0-107.0-0.0","0","0","59955","","null","","","null","11","","","","","","","","","","","","","","","",""
"","ITI","","html-keyboard-response","82","542222","0.0-1.0-108.0","0","0","59955","","null","","","null","11","","","","","","","","","","","","","","","NaN",""
"","S1","","html-keyboard-response","83","542478","0.0-1.0-110.0","0","0","59955","","null","","","null","12","","","","","","","","","","","","","","","",""
"","ISI","","html-keyboard-response","84","542634","0.0-1.0-111.0","0","0","59955","","null","","","null","12","NaN","","","","","","","","","","","","","","",""
"","S2","","html-keyboard-response","85","542746","0.0-1.0-112.0","0","0","59955","","108","","","68","12","","d","1","12","training","adjacent","DC","4","3","N.jpg","O.jpg","0","0","1","",""
"","feedback","","html-keyboard-response","86","543785","0.0-1.0-114.0-0.0","0","0","59955","","null","","","null","12","","","","","","","","","","","","","","","",""
"","ITI","","html-keyboard-response","87","544792","0.0-1.0-117.0","0","0","59955","","null","","","null","12","","","","","","","","","","","","","","","NaN",""
"","S1","","html-keyboard-response","88","545046","0.0-1.0-119.0","0","0","59955","","null","","","null","13","","","","","","","","","","","","","","","",""
"","ISI","","html-keyboard-response","89","545207","0.0-1.0-120.0","0","0","59955","","null","","","null","13","NaN","","","","","","","","","","","","","","",""
"","S2","","html-keyboard-response","90","545460","0.0-1.0-121.0","0","0","59955","","null","","","null","13","","NaN","","","","","","","","","","","","","",""
"","response","","html-keyboard-response","91","545568","0.0-1.0-122.0-0.0","0","0","59955","","98","","","75","13","","","1","13","training","adjacent","CD","3","4","O.jpg","N.jpg","1","1","1","",""
"","feedback","","html-keyboard-response","92","546583","0.0-1.0-123.0-0.0","0","0","59955","","null","","","null","13","","","","","","","","","","","","","","","",""
"","ITI","","html-keyboard-response","93","547594","0.0-1.0-126.0","0","0","59955","","null","","","null","13","","","","","","","","","","","","","","","NaN",""
"","S1","","html-keyboard-response","94","547847","0.0-1.0-128.0","0","0","59955","","null","","","null","14","","","","","","","","","","","","","","","",""
"","ISI","","html-keyboard-response","95","548002","0.0-1.0-129.0","0","0","59955","","null","","","null","14","NaN","","","","","","","","","","","","","","",""
"","S2","","html-keyboard-response","96","548266","0.0-1.0-130.0","0","0","59955","","null","","","null","14","","NaN","","","","","","","","","","","","","",""
"","response","","html-keyboard-response","97","548768","0.0-1.0-131.0-0.0","0","0","59955","","493","","","75","14","","","1","14","training","adjacent","DE","4","5","N.jpg","Q.jpg","1","1","1","",""
"","feedback","","html-keyboard-response","98","549795","0.0-1.0-132.0-0.0","0","0","59955","","null","","","null","14","","","","","","","","","","","","","","","",""
"","ITI","","html-keyboard-response","99","550811","0.0-1.0-135.0","0","0","59955","","null","","","null","14","","","","","","","","","","","","","","","NaN",""
"","S1","","html-keyboard-response","100","551087","0.0-1.0-137.0","0","0","59955","","null","","","null","15","","","","","","","","","","","","","","","",""
"","ISI","","html-keyboard-response","101","551274","0.0-1.0-138.0","0","0","59955","","null","","","null","15","NaN","","","","","","","","","","","","","","",""
"","S2","","html-keyboard-response","102","551531","0.0-1.0-139.0","0","0","59955","","null","","","null","15","","NaN","","","","","","","","","","","","","",""
"","response","","html-keyboard-response","103","551808","0.0-1.0-140.0-0.0","0","0","59955","","267","","","75","15","","","1","15","training","adjacent","GF","7","6","M.jpg","R.jpg","1","0","0","",""
"","feedback","","html-keyboard-response","104","552815","0.0-1.0-141.0-0.0","0","0","59955","","null","","","null","15","","","","","","","","","","","","","","","",""
"","time_out","","html-keyboard-response","105","554828","0.0-1.0-143.0-0.0","0","0","59955","","null","","","null","15","","","","","","","","","","","","","","","",""
"","ITI","","html-keyboard-response","106","555835","0.0-1.0-144.0","0","0","59955","","460","","","75","15","","","","","","","","","","","","","","","k",""
"","S1","","html-keyboard-response","107","556118","0.0-1.0-146.0","0","0","59955","","null","","","null","16","","","","","","","","","","","","","","","",""
"","ISI","","html-keyboard-response","108","556310","0.0-1.0-147.0","0","0","59955","","null","","","null","16","NaN","","","","","","","","","","","","","","",""
"","S2","","html-keyboard-response","109","556331","0.0-1.0-148.0","0","0","59955","","18","","","75","16","","k","1","16","training","adjacent","GF","7","6","M.jpg","R.jpg","1","0","0","",""
"","feedback","","html-keyboard-response","110","557345","0.0-1.0-150.0-0.0","0","0","59955","","null","","","null","16","","","","","","","","","","","","","","","",""
"","time_out","","html-keyboard-response","111","559353","0.0-1.0-152.0-0.0","0","0","59955","","null","","","null","16","","","","","","","","","","","","","","","",""
"","ITI","","html-keyboard-response","112","560362","0.0-1.0-153.0","0","0","59955","","null","","","null","16","","","","","","","","","","","","","","","NaN",""
"","S1","","html-keyboard-response","113","560681","0.0-1.0-155.0","0","0","59955","","null","","","null","17","","","","","","","","","","","","","","","",""
"","ISI","","html-keyboard-response","114","560855","0.0-1.0-156.0","0","0","59955","","null","","","null","17","NaN","","","","","","","","","","","","","","",""
"","S2","","html-keyboard-response","115","561181","0.0-1.0-157.0","0","0","59955","","null","","","null","17","","NaN","","","","","","","","","","","","","",""
"","response","","html-keyboard-response","116","561222","0.0-1.0-158.0-0.0","0","0","59955","","39","","","75","17","","","1","17","training","adjacent","DC","4","3","N.jpg","O.jpg","1","0","0","",""
"","feedback","","html-keyboard-response","117","562232","0.0-1.0-159.0-0.0","0","0","59955","","null","","","null","17","","","","","","","","","","","","","","","",""
"","time_out","","html-keyboard-response","118","564377","0.0-1.0-161.0-0.0","0","0","59955","","null","","","null","17","","","","","","","","","","","","","","","",""
"","ITI","","html-keyboard-response","119","565412","0.0-1.0-162.0","0","0","59955","","null","","","null","17","","","","","","","","","","","","","","","NaN",""
"","S1","","html-keyboard-response","120","565675","0.0-1.0-164.0","0","0","59955","","null","","","null","18","","","","","","","","","","","","","","","",""
"","ISI","","html-keyboard-response","121","565837","0.0-1.0-165.0","0","0","59955","","null","","","null","18","NaN","","","","","","","","","","","","","","",""
"","S2","","html-keyboard-response","122","566128","0.0-1.0-166.0","0","0","59955","","null","","","null","18","","NaN","","","","","","","","","","","","","",""
"","response","","html-keyboard-response","123","566646","0.0-1.0-167.0-0.0","0","0","59955","","513","","","75","18","","","1","18","training","adjacent","EF","5","6","Q.jpg","R.jpg","1","1","1","",""
"","feedback","","html-keyboard-response","124","567685","0.0-1.0-168.0-0.0","0","0","59955","","null","","","null","18","","","","","","","","","","","","","","","",""
"","ITI","","html-keyboard-response","125","568704","0.0-1.0-171.0","0","0","59955","","null","","","null","18","","","","","","","","","","","","","","","NaN",""
"","S1","","html-keyboard-response","126","569006","0.0-1.0-173.0","0","0","59955","","null","","","null","19","","","","","","","","","","","","","","","",""
"","ISI","","html-keyboard-response","127","569161","0.0-1.0-174.0","0","0","59955","","null","","","null","19","NaN","","","","","","","","","","","","","","",""
"","S2","","html-keyboard-response","128","569417","0.0-1.0-175.0","0","0","59955","","null","","","null","19","","NaN","","","","","","","","","","","","","",""
"","response","","html-keyboard-response","129","571173","0.0-1.0-176.0-0.0","0","0","59955","","null","","","null","19","","","1","19","training","adjacent","DE","4","5","N.jpg","Q.jpg","NaN","1","0","",""
"","too_slow_prompt","","html-keyboard-response","130","572203","0.0-1.0-178.0-0.0","1","0","59955","","null","","","null","","","","","","","","","","","","","","","","",""
"","time_out","","html-keyboard-response","131","574217","0.0-1.0-179.0-0.0","0","0","59955","","null","","","null","19","","","","","","","","","","","","","","","",""
"","ITI","","html-keyboard-response","132","575229","0.0-1.0-180.0","0","0","59955","","625","","","75","19","","","","","","","","","","","","","","","k",""
"","S1","","html-keyboard-response","133","575484","0.0-1.0-182.0","0","0","59955","","null","","","null","20","","","","","","","","","","","","","","","",""
"","ISI","","html-keyboard-response","134","575637","0.0-1.0-183.0","0","0","59955","","null","","","null","20","NaN","","","","","","","","","","","","","","",""
"","S2","","html-keyboard-response","135","575897","0.0-1.0-184.0","0","0","59955","","null","","","null","20","","NaN","","","","","","","","","","","","","",""
"","response","","html-keyboard-response","136","576185","0.0-1.0-185.0-0.0","0","0","59955","","285","","","75","20","","","1","20","training","adjacent","FG","6","7","R.jpg","M.jpg","1","1","1","",""
"","feedback","","html-keyboard-response","137","577190","0.0-1.0-186.0-0.0","0","0","59955","","null","","","null","20","","","","","","","","","","","","","","","",""
"","ITI","","html-keyboard-response","138","578199","0.0-1.0-189.0","0","0","59955","","null","","","null","20","","","","","","","","","","","","","","","NaN",""
"","S1","","html-keyboard-response","139","578458","0.0-1.0-191.0","0","0","59955","","null","","","null","21","","","","","","","","","","","","","","","",""
"","ISI","","html-keyboard-response","140","578612","0.0-1.0-192.0","0","0","59955","","null","","","null","21","NaN","","","","","","","","","","","","","","",""
"","S2","","html-keyboard-response","141","578866","0.0-1.0-193.0","0","0","59955","","null","","","null","21","","NaN","","","","","","","","","","","","","",""
"","response","","html-keyboard-response","142","579863","0.0-1.0-194.0-0.0","0","0","59955","","991","","","75","21","","","1","21","training","adjacent","CD","3","4","O.jpg","N.jpg","1","1","1","",""
"","feedback","","html-keyboard-response","143","580878","0.0-1.0-195.0-0.0","0","0","59955","","null","","","null","21","","","","","","","","","","","","","","","",""
"","ITI","","html-keyboard-response","144","581886","0.0-1.0-198.0","0","0","59955","","null","","","null","21","","","","","","","","","","","","","","","NaN",""
"","S1","","html-keyboard-response","145","582146","0.0-1.0-200.0","0","0","59955","","null","","","null","22","","","","","","","","","","","","","","","",""
"","ISI","","html-keyboard-response","146","582303","0.0-1.0-201.0","0","0","59955","","null","","","null","22","NaN","","","","","","","","","","","","","","",""
"","S2","","html-keyboard-response","147","582704","0.0-1.0-202.0","0","0","59955","","null","","","null","22","","NaN","","","","","","","","","","","","","",""
"","response","","html-keyboard-response","148","582985","0.0-1.0-203.0-0.0","0","0","59955","","277","","","75","22","","","1","22","training","adjacent","FE","6","5","R.jpg","Q.jpg","1","0","0","",""
"","feedback","","html-keyboard-response","149","583989","0.0-1.0-204.0-0.0","0","0","59955","","null","","","null","22","","","","","","","","","","","","","","","",""
"","time_out","","html-keyboard-response","150","586001","0.0-1.0-206.0-0.0","0","0","59955","","null","","","null","22","","","","","","","","","","","","","","","",""
"","ITI","","html-keyboard-response","151","587076","0.0-1.0-207.0","0","0","59955","","null","","","null","22","","","","","","","","","","","","","","","NaN",""
"","S1","","html-keyboard-response","152","587334","0.0-1.0-209.0","0","0","59955","","null","","","null","23","","","","","","","","","","","","","","","",""
"","ISI","","html-keyboard-response","153","587509","0.0-1.0-210.0","0","0","59955","","null","","","null","23","NaN","","","","","","","","","","","","","","",""
"","S2","","html-keyboard-response","154","587770","0.0-1.0-211.0","0","0","59955","","null","","","null","23","","NaN","","","","","","","","","","","","","",""
"","response","","html-keyboard-response","155","588106","0.0-1.0-212.0-0.0","0","0","59955","","326","","","75","23","","","1","23","training","adjacent","EF","5","6","Q.jpg","R.jpg","1","1","1","",""
"","feedback","","html-keyboard-response","156","589140","0.0-1.0-213.0-0.0","0","0","59955","","null","","","null","23","","","","","","","","","","","","","","","",""
"","ITI","","html-keyboard-response","157","590144","0.0-1.0-216.0","0","0","59955","","null","","","null","23","","","","","","","","","","","","","","","NaN",""
"","S1","","html-keyboard-response","158","590397","0.0-1.0-218.0","0","0","59955","","null","","","null","24","","","","","","","","","","","","","","","",""
"","ISI","","html-keyboard-response","159","590565","0.0-1.0-219.0","0","0","59955","","null","","","null","24","NaN","","","","","","","","","","","","","","",""
"","S2","","html-keyboard-response","160","590823","0.0-1.0-220.0","0","0","59955","","null","","","null","24","","NaN","","","","","","","","","","","","","",""
"","response","","html-keyboard-response","161","591135","0.0-1.0-221.0-0.0","0","0","59955","","306","","","75","24","","","1","24","training","adjacent","FG","6","7","R.jpg","M.jpg","1","1","1","",""
"","feedback","","html-keyboard-response","162","592142","0.0-1.0-222.0-0.0","0","0","59955","","null","","","null","24","","","","","","","","","","","","","","","",""
"","ITI","","html-keyboard-response","163","593148","0.0-1.0-225.0","0","0","59955","","null","","","null","24","","","","","","","","","","","","","","","NaN",""
"","S1","","html-keyboard-response","164","593403","0.0-1.0-227.0","0","0","59955","","null","","","null","25","","","","","","","","","","","","","","","",""
"","ISI","","html-keyboard-response","165","593556","0.0-1.0-228.0","0","0","59955","","null","","","null","25","NaN","","","","","","","","","","","","","","",""
"","S2","","html-keyboard-response","166","593812","0.0-1.0-229.0","0","0","59955","","null","","","null","25","","NaN","","","","","","","","","","","","","",""
"","response","","html-keyboard-response","167","594341","0.0-1.0-230.0-0.0","0","0","59955","","525","","","75","25","","","1","25","training","adjacent","BC","2","3","L.jpg","O.jpg","1","1","1","",""
"","feedback","","html-keyboard-response","168","595347","0.0-1.0-231.0-0.0","0","0","59955","","null","","","null","25","","","","","","","","","","","","","","","",""
"","ITI","","html-keyboard-response","169","596353","0.0-1.0-234.0","0","0","59955","","null","","","null","25","","","","","","","","","","","","","","","NaN",""
"","S1","","html-keyboard-response","170","596633","0.0-1.0-236.0","0","0","59955","","null","","","null","26","","","","","","","","","","","","","","","",""
"","ISI","","html-keyboard-response","171","596875","0.0-1.0-237.0","0","0","59955","","null","","","null","26","NaN","","","","","","","","","","","","","","",""
"","S2","","html-keyboard-response","172","597159","0.0-1.0-238.0","0","0","59955","","null","","","null","26","","NaN","","","","","","","","","","","","","",""
"","response","","html-keyboard-response","173","597405","0.0-1.0-239.0-0.0","0","0","59955","","208","","","75","26","","","1","26","training","adjacent","ED","5","4","Q.jpg","N.jpg","1","0","0","",""
"","feedback","","html-keyboard-response","174","598413","0.0-1.0-240.0-0.0","0","0","59955","","null","","","null","26","","","","","","","","","","","","","","","",""
"","time_out","","html-keyboard-response","175","600443","0.0-1.0-242.0-0.0","0","0","59955","","null","","","null","26","","","","","","","","","","","","","","","",""
"","ITI","","html-keyboard-response","176","601457","0.0-1.0-243.0","0","0","59955","","938","","","75","26","","","","","","","","","","","","","","","k",""
"","S1","","html-keyboard-response","177","601713","0.0-1.0-245.0","0","0","59955","","null","","","null","27","","","","","","","","","","","","","","","",""
"","ISI","","html-keyboard-response","178","601868","0.0-1.0-246.0","0","0","59955","","null","","","null","27","NaN","","","","","","","","","","","","","","",""
"","S2","","html-keyboard-response","179","601877","0.0-1.0-247.0","0","0","59955","","1","","","75","27","","k","1","27","training","adjacent","AB","1","2","P.jpg","L.jpg","1","1","1","",""
"","feedback","","html-keyboard-response","180","602883","0.0-1.0-249.0-0.0","0","0","59955","","null","","","null","27","","","","","","","","","","","","","","","",""
"","ITI","","html-keyboard-response","181","603890","0.0-1.0-252.0","0","0","59955","","null","","","null","27","","","","","","","","","","","","","","","NaN",""
"","S1","","html-keyboard-response","182","604145","0.0-1.0-254.0","0","0","59955","","null","","","null","28","","","","","","","","","","","","","","","",""
"","ISI","","html-keyboard-response","183","604300","0.0-1.0-255.0","0","0","59955","","null","","","null","28","NaN","","","","","","","","","","","","","","",""
"","S2","","html-keyboard-response","184","604688","0.0-1.0-256.0","0","0","59955","","382","","","75","28","","k","1","28","training","adjacent","BA","2","1","L.jpg","P.jpg","1","0","0","",""
"","feedback","","html-keyboard-response","185","605693","0.0-1.0-258.0-0.0","0","0","59955","","null","","","null","28","","","","","","","","","","","","","","","",""
"","time_out","","html-keyboard-response","186","607703","0.0-1.0-260.0-0.0","0","0","59955","","null","","","null","28","","","","","","","","","","","","","","","",""
"","ITI","","html-keyboard-response","187","608722","0.0-1.0-261.0","0","0","59955","","null","","","null","28","","","","","","","","","","","","","","","NaN",""
"","S1","","html-keyboard-response","188","608986","0.0-1.0-263.0","0","0","59955","","null","","","null","29","","","","","","","","","","","","","","","",""
"","ISI","","html-keyboard-response","189","609139","0.0-1.0-264.0","0","0","59955","","138","","","75","29","k","","","","","","","","","","","","","","",""
"","S2","","html-keyboard-response","190","609394","0.0-1.0-265.0","0","0","59955","","null","","","null","29","","NaN","","","","","","","","","","","","","",""
"","response","","html-keyboard-response","191","609563","0.0-1.0-266.0-0.0","0","0","59955","","168","","","75","29","","","1","29","training","adjacent","CD","3","4","O.jpg","N.jpg","1","1","1","",""
"","feedback","","html-keyboard-response","192","610573","0.0-1.0-267.0-0.0","0","0","59955","","null","","","null","29","","","","","","","","","","","","","","","",""
"","ITI","","html-keyboard-response","193","611591","0.0-1.0-270.0","0","0","59955","","null","","","null","29","","","","","","","","","","","","","","","NaN",""
"","S1","","html-keyboard-response","194","611845","0.0-1.0-272.0","0","0","59955","","null","","","null","30","","","","","","","","","","","","","","","",""
"","ISI","","html-keyboard-response","195","611998","0.0-1.0-273.0","0","0","59955","","null","","","null","30","NaN","","","","","","","","","","","","","","",""
"","S2","","html-keyboard-response","196","612262","0.0-1.0-274.0","0","0","59955","","null","","","null","30","","NaN","","","","","","","","","","","","","",""
"","response","","html-keyboard-response","197","612676","0.0-1.0-275.0-0.0","0","0","59955","","409","","","75","30","","","1","30","training","adjacent","ED","5","4","Q.jpg","N.jpg","1","0","0","",""
"","feedback","","html-keyboard-response","198","613791","0.0-1.0-276.0-0.0","0","0","59955","","null","","","null","30","","","","","","","","","","","","","","","",""
"","time_out","","html-keyboard-response","199","615800","0.0-1.0-278.0-0.0","0","0","59955","","null","","","null","30","","","","","","","","","","","","","","","",""
"","ITI","","html-keyboard-response","200","616808","0.0-1.0-279.0","0","0","59955","","null","","","null","30","","","","","","","","","","","","","","","NaN",""
"","S1","","html-keyboard-response","201","617067","0.0-1.0-281.0","0","0","59955","","null","","","null","31","","","","","","","","","","","","","","","",""
"","ISI","","html-keyboard-response","202","617230","0.0-1.0-282.0","0","0","59955","","null","","","null","31","NaN","","","","","","","","","","","","","","",""
"","S2","","html-keyboard-response","203","617299","0.0-1.0-283.0","0","0","59955","","56","","","75","31","","k","1","31","training","adjacent","ED","5","4","Q.jpg","N.jpg","1","0","0","",""
"","feedback","","html-keyboard-response","204","618303","0.0-1.0-285.0-0.0","0","0","59955","","null","","","null","31","","","","","","","","","","","","","","","",""
"","time_out","","html-keyboard-response","205","620321","0.0-1.0-287.0-0.0","0","0","59955","","null","","","null","31","","","","","","","","","","","","","","","",""
"","ITI","","html-keyboard-response","206","621328","0.0-1.0-288.0","0","0","59955","","323","","","75","31","","","","","","","","","","","","","","","k",""
"","S1","","html-keyboard-response","207","621594","0.0-1.0-290.0","0","0","59955","","null","","","null","32","","","","","","","","","","","","","","","",""
"","ISI","","html-keyboard-response","208","621748","0.0-1.0-291.0","0","0","59955","","null","","","null","32","NaN","","","","","","","","","","","","","","",""
"","S2","","html-keyboard-response","209","622062","0.0-1.0-292.0","0","0","59955","","null","","","null","32","","NaN","","","","","","","","","","","","","",""
"","response","","html-keyboard-response","210","622747","0.0-1.0-293.0-0.0","0","0","59955","","676","","","75","32","","","1","32","training","adjacent","BA","2","1","L.jpg","P.jpg","1","0","0","",""
"","feedback","","html-keyboard-response","211","623757","0.0-1.0-294.0-0.0","0","0","59955","","null","","","null","32","","","","","","","","","","","","","","","",""
"","time_out","","html-keyboard-response","212","625836","0.0-1.0-296.0-0.0","0","0","59955","","null","","","null","32","","","","","","","","","","","","","","","",""
"","ITI","","html-keyboard-response","213","626842","0.0-1.0-297.0","0","0","59955","","407","","","75","32","","","","","","","","","","","","","","","k",""
"","S1","","html-keyboard-response","214","627096","0.0-1.0-299.0","0","0","59955","","null","","","null","33","","","","","","","","","","","","","","","",""
"","ISI","","html-keyboard-response","215","627257","0.0-1.0-300.0","0","0","59955","","null","","","null","33","NaN","","","","","","","","","","","","","","",""
"","S2","","html-keyboard-response","216","627342","0.0-1.0-301.0","0","0","59955","","81","","","75","33","","k","1","33","training","adjacent","BC","2","3","L.jpg","O.jpg","1","1","1","",""
"","feedback","","html-keyboard-response","217","628359","0.0-1.0-303.0-0.0","0","0","59955","","null","","","null","33","","","","","","","","","","","","","","","",""
"","ITI","","html-keyboard-response","218","629371","0.0-1.0-306.0","0","0","59955","","null","","","null","33","","","","","","","","","","","","","","","NaN",""
"","S1","","html-keyboard-response","219","629629","0.0-1.0-308.0","0","0","59955","","null","","","null","34","","","","","","","","","","","","","","","",""
"","ISI","","html-keyboard-response","220","629785","0.0-1.0-309.0","0","0","59955","","null","","","null","34","NaN","","","","","","","","","","","","","","",""
"","S2","","html-keyboard-response","221","630070","0.0-1.0-310.0","0","0","59955","","null","","","null","34","","NaN","","","","","","","","","","","","","",""
"","response","","html-keyboard-response","222","630304","0.0-1.0-311.0-0.0","0","0","59955","","230","","","75","34","","","1","34","training","adjacent","DC","4","3","N.jpg","O.jpg","1","0","0","",""
"","feedback","","html-keyboard-response","223","631319","0.0-1.0-312.0-0.0","0","0","59955","","null","","","null","34","","","","","","","","","","","","","","","",""
"","time_out","","html-keyboard-response","224","633360","0.0-1.0-314.0-0.0","0","0","59955","","null","","","null","34","","","","","","","","","","","","","","","",""
"","ITI","","html-keyboard-response","225","634377","0.0-1.0-315.0","0","0","59955","","null","","","null","34","","","","","","","","","","","","","","","NaN",""
"","S1","","html-keyboard-response","226","634633","0.0-1.0-317.0","0","0","59955","","null","","","null","35","","","","","","","","","","","","","","","",""
"","ISI","","html-keyboard-response","227","634790","0.0-1.0-318.0","0","0","59955","","null","","","null","35","NaN","","","","","","","","","","","","","","",""
"","S2","","html-keyboard-response","228","635360","0.0-1.0-319.0","0","0","59955","","null","","","null","35","","NaN","","","","","","","","","","","","","",""
"","response","","html-keyboard-response","229","635373","0.0-1.0-320.0-0.0","0","0","59955","","10","","","75","35","","","1","35","training","adjacent","ED","5","4","Q.jpg","N.jpg","1","0","0","",""
"","feedback","","html-keyboard-response","230","636377","0.0-1.0-321.0-0.0","0","0","59955","","null","","","null","35","","","","","","","","","","","","","","","",""
"","time_out","","html-keyboard-response","231","638387","0.0-1.0-323.0-0.0","0","0","59955","","null","","","null","35","","","","","","","","","","","","","","","",""
"","ITI","","html-keyboard-response","232","639430","0.0-1.0-324.0","0","0","59955","","null","","","null","35","","","","","","","","","","","","","","","NaN",""
"","S1","","html-keyboard-response","233","639731","0.0-1.0-326.0","0","0","59955","","null","","","null","36","","","","","","","","","","","","","","","",""
"","ISI","","html-keyboard-response","234","639900","0.0-1.0-327.0","0","0","59955","","null","","","null","36","NaN","","","","","","","","","","","","","","",""
"","S2","","html-keyboard-response","235","640166","0.0-1.0-328.0","0","0","59955","","261","","","75","36","","k","1","36","training","adjacent","FE","6","5","R.jpg","Q.jpg","1","0","0","",""
"","feedback","","html-keyboard-response","236","641179","0.0-1.0-330.0-0.0","0","0","59955","","null","","","null","36","","","","","","","","","","","","","","","",""
"","time_out","","html-keyboard-response","237","643191","0.0-1.0-332.0-0.0","0","0","59955","","null","","","null","36","","","","","","","","","","","","","","","",""
"","ITI","","html-keyboard-response","238","644208","0.0-1.0-333.0","0","0","59955","","926","","","75","36","","","","","","","","","","","","","","","k",""
"","S1","","html-keyboard-response","239","644473","0.0-1.0-335.0","0","0","59955","","null","","","null","37","","","","","","","","","","","","","","","",""
"","ISI","","html-keyboard-response","240","644629","0.0-1.0-336.0","0","0","59955","","null","","","null","37","NaN","","","","","","","","","","","","","","",""
"","S2","","html-keyboard-response","241","644781","0.0-1.0-337.0","0","0","59955","","145","","","75","37","","k","1","37","training","adjacent","CB","3","2","O.jpg","L.jpg","1","0","0","",""
"","feedback","","html-keyboard-response","242","645794","0.0-1.0-339.0-0.0","0","0","59955","","null","","","null","37","","","","","","","","","","","","","","","",""
"","time_out","","html-keyboard-response","243","647895","0.0-1.0-341.0-0.0","0","0","59955","","null","","","null","37","","","","","","","","","","","","","","","",""
"","ITI","","html-keyboard-response","244","648900","0.0-1.0-342.0","0","0","59955","","65","","","75","37","","","","","","","","","","","","","","","k",""
"","S1","","html-keyboard-response","245","649162","0.0-1.0-344.0","0","0","59955","","null","","","null","38","","","","","","","","","","","","","","","",""
"","ISI","","html-keyboard-response","246","649322","0.0-1.0-345.0","0","0","59955","","null","","","null","38","NaN","","","","","","","","","","","","","","",""
"","S2","","html-keyboard-response","247","649648","0.0-1.0-346.0","0","0","59955","","null","","","null","38","","NaN","","","","","","","","","","","","","",""
"","response","","html-keyboard-response","248","649710","0.0-1.0-347.0-0.0","0","0","59955","","58","","","75","38","","","1","38","training","adjacent","CB","3","2","O.jpg","L.jpg","1","0","0","",""
"","feedback","","html-keyboard-response","249","650715","0.0-1.0-348.0-0.0","0","0","59955","","null","","","null","38","","","","","","","","","","","","","","","",""
"","time_out","","html-keyboard-response","250","652727","0.0-1.0-350.0-0.0","0","0","59955","","null","","","null","38","","","","","","","","","","","","","","","",""
"","ITI","","html-keyboard-response","251","653739","0.0-1.0-351.0","0","0","59955","","null","","","null","38","","","","","","","","","","","","","","","NaN",""
"","S1","","html-keyboard-response","252","654013","0.0-1.0-353.0","0","0","59955","","null","","","null","39","","","","","","","","","","","","","","","",""
"","ISI","","html-keyboard-response","253","654167","0.0-1.0-354.0","0","0","59955","","null","","","null","39","NaN","","","","","","","","","","","","","","",""
"","S2","","html-keyboard-response","254","654544","0.0-1.0-355.0","0","0","59955","","null","","","null","39","","NaN","","","","","","","","","","","","","",""
"","response","","html-keyboard-response","255","654547","0.0-1.0-356.0-0.0","0","0","59955","","0","","","75","39","","","1","39","training","adjacent","DE","4","5","N.jpg","Q.jpg","1","1","1","",""
"","feedback","","html-keyboard-response","256","655554","0.0-1.0-357.0-0.0","0","0","59955","","null","","","null","39","","","","","","","","","","","","","","","",""
"","ITI","","html-keyboard-response","257","656566","0.0-1.0-360.0","0","0","59955","","null","","","null","39","","","","","","","","","","","","","","","NaN",""
"","S1","","html-keyboard-response","258","656825","0.0-1.0-362.0","0","0","59955","","null","","","null","40","","","","","","","","","","","","","","","",""
"","ISI","","html-keyboard-response","259","656987","0.0-1.0-363.0","0","0","59955","","null","","","null","40","NaN","","","","","","","","","","","","","","",""
"","S2","","html-keyboard-response","260","657257","0.0-1.0-364.0","0","0","59955","","null","","","null","40","","NaN","","","","","","","","","","","","","",""
"","response","","html-keyboard-response","261","657803","0.0-1.0-365.0-0.0","0","0","59955","","542","","","75","40","","","1","40","training","adjacent","FG","6","7","R.jpg","M.jpg","1","1","1","",""
"","feedback","","html-keyboard-response","262","658808","0.0-1.0-366.0-0.0","0","0","59955","","null","","","null","40","","","","","","","","","","","","","","","",""
"","ITI","","html-keyboard-response","263","659942","0.0-1.0-369.0","0","0","59955","","null","","","null","40","","","","","","","","","","","","","","","NaN",""
"","S1","","html-keyboard-response","264","660205","0.0-1.0-371.0","0","0","59955","","null","","","null","41","","","","","","","","","","","","","","","",""
"","ISI","","html-keyboard-response","265","660374","0.0-1.0-372.0","0","0","59955","","null","","","null","41","NaN","","","","","","","","","","","","","","",""
"","S2","","html-keyboard-response","266","660649","0.0-1.0-373.0","0","0","59955","","null","","","null","41","","NaN","","","","","","","","","","","","","",""
"","response","","html-keyboard-response","267","661052","0.0-1.0-374.0-0.0","0","0","59955","","400","","","75","41","","","1","41","training","adjacent","DC","4","3","N.jpg","O.jpg","1","0","0","",""
"","feedback","","html-keyboard-response","268","662062","0.0-1.0-375.0-0.0","0","0","59955","","null","","","null","41","","","","","","","","","","","","","","","",""
"","time_out","","html-keyboard-response","269","664078","0.0-1.0-377.0-0.0","0","0","59955","","null","","","null","41","","","","","","","","","","","","","","","",""
"","ITI","","html-keyboard-response","270","665086","0.0-1.0-378.0","0","0","59955","","206","","","75","41","","","","","","","","","","","","","","","k",""
"","S1","","html-keyboard-response","271","665343","0.0-1.0-380.0","0","0","59955","","null","","","null","42","","","","","","","","","","","","","","","",""
"","ISI","","html-keyboard-response","272","665504","0.0-1.0-381.0","0","0","59955","","null","","","null","42","NaN","","","","","","","","","","","","","","",""
"","S2","","html-keyboard-response","273","665765","0.0-1.0-382.0","0","0","59955","","null","","","null","42","","NaN","","","","","","","","","","","","","",""
"","response","","html-keyboard-response","274","665890","0.0-1.0-383.0-0.0","0","0","59955","","121","","","75","42","","","1","42","training","adjacent","DE","4","5","N.jpg","Q.jpg","1","1","1","",""
"","feedback","","html-keyboard-response","275","666917","0.0-1.0-384.0-0.0","0","0","59955","","null","","","null","42","","","","","","","","","","","","","","","",""
"","ITI","","html-keyboard-response","276","667923","0.0-1.0-387.0","0","0","59955","","null","","","null","42","","","","","","","","","","","","","","","NaN",""
"","S1","","html-keyboard-response","277","668178","0.0-1.0-389.0","0","0","59955","","null","","","null","43","","","","","","","","","","","","","","","",""
"","ISI","","html-keyboard-response","278","668332","0.0-1.0-390.0","0","0","59955","","null","","","null","43","NaN","","","","","","","","","","","","","","",""
"","S2","","html-keyboard-response","279","668695","0.0-1.0-391.0","0","0","59955","","null","","","null","43","","NaN","","","","","","","","","","","","","",""
"","response","","html-keyboard-response","280","670449","0.0-1.0-392.0-0.0","0","0","59955","","null","","","null","43","","","1","43","training","adjacent","BC","2","3","L.jpg","O.jpg","NaN","1","0","",""
"","too_slow_prompt","","html-keyboard-response","281","671757","0.0-1.0-394.0-0.0","1","0","59955","","null","","","null","","","","","","","","","","","","","","","","",""
"","time_out","","html-keyboard-response","282","673774","0.0-1.0-395.0-0.0","0","0","59955","","null","","","null","43","","","","","","","","","","","","","","","",""
"","ITI","","html-keyboard-response","283","674849","0.0-1.0-396.0","0","0","59955","","781","","","75","43","","","","","","","","","","","","","","","k",""
"","S1","","html-keyboard-response","284","675135","0.0-1.0-398.0","0","0","59955","","null","","","null","44","","","","","","","","","","","","","","","",""
"","ISI","","html-keyboard-response","285","675319","0.0-1.0-399.0","0","0","59955","","null","","","null","44","NaN","","","","","","","","","","","","","","",""
"","S2","","html-keyboard-response","286","675576","0.0-1.0-400.0","0","0","59955","","null","","","null","44","","NaN","","","","","","","","","","","","","",""
"","response","","html-keyboard-response","287","676640","0.0-1.0-401.0-0.0","0","0","59955","","1060","","","75","44","","","1","44","training","adjacent","AB","1","2","P.jpg","L.jpg","1","1","1","",""
"","feedback","","html-keyboard-response","288","677655","0.0-1.0-402.0-0.0","0","0","59955","","null","","","null","44","","","","","","","","","","","","","","","",""
"","ITI","","html-keyboard-response","289","678678","0.0-1.0-405.0","0","0","59955","","null","","","null","44","","","","","","","","","","","","","","","NaN",""
"","S1","","html-keyboard-response","290","678996","0.0-1.0-407.0","0","0","59955","","null","","","null","45","","","","","","","","","","","","","","","",""
"","ISI","","html-keyboard-response","291","679151","0.0-1.0-408.0","0","0","59955","","null","","","null","45","NaN","","","","","","","","","","","","","","",""
"","S2","","html-keyboard-response","292","679466","0.0-1.0-409.0","0","0","59955","","null","","","null","45","","NaN","","","","","","","","","","","","","",""
"","response","","html-keyboard-response","293","680124","0.0-1.0-410.0-0.0","0","0","59955","","522","","","75","45","","","1","45","training","adjacent","BA","2","1","L.jpg","P.jpg","1","0","0","",""
"","feedback","","html-keyboard-response","294","681129","0.0-1.0-411.0-0.0","0","0","59955","","null","","","null","45","","","","","","","","","","","","","","","",""
"","time_out","","html-keyboard-response","295","683139","0.0-1.0-413.0-0.0","0","0","59955","","null","","","null","45","","","","","","","","","","","","","","","",""
"","ITI","","html-keyboard-response","296","684158","0.0-1.0-414.0","0","0","59955","","null","","","null","45","","","","","","","","","","","","","","","NaN",""
"","S1","","html-keyboard-response","297","684413","0.0-1.0-416.0","0","0","59955","","null","","","null","46","","","","","","","","","","","","","","","",""
"","ISI","","html-keyboard-response","298","684573","0.0-1.0-417.0","0","0","59955","","null","","","null","46","NaN","","","","","","","","","","","","","","",""
"","S2","","html-keyboard-response","299","684857","0.0-1.0-418.0","0","0","59955","","null","","","null","46","","NaN","","","","","","","","","","","","","",""
"","response","","html-keyboard-response","300","685041","0.0-1.0-419.0-0.0","0","0","59955","","181","","","75","46","","","1","46","training","adjacent","BA","2","1","L.jpg","P.jpg","1","0","0","",""
"","feedback","","html-keyboard-response","301","686046","0.0-1.0-420.0-0.0","0","0","59955","","null","","","null","46","","","","","","","","","","","","","","","",""
"","time_out","","html-keyboard-response","302","688156","0.0-1.0-422.0-0.0","0","0","59955","","null","","","null","46","","","","","","","","","","","","","","","",""
"","ITI","","html-keyboard-response","303","689166","0.0-1.0-423.0","0","0","59955","","null","","","null","46","","","","","","","","","","","","","","","NaN",""
"","S1","","html-keyboard-response","304","689475","0.0-1.0-425.0","0","0","59955","","null","","","null","47","","","","","","","","","","","","","","","",""
"","ISI","","html-keyboard-response","305","689634","0.0-1.0-426.0","0","0","59955","","null","","","null","47","NaN","","","","","","","","","","","","","","",""
"","S2","","html-keyboard-response","306","689892","0.0-1.0-427.0","0","0","59955","","null","","","null","47","","NaN","","","","","","","","","","","","","",""
"","response","","html-keyboard-response","307","690174","0.0-1.0-428.0-0.0","0","0","59955","","279","","","75","47","","","1","47","training","adjacent","CB","3","2","O.jpg","L.jpg","1","0","0","",""
"","feedback","","html-keyboard-response","308","691179","0.0-1.0-429.0-0.0","0","0","59955","","null","","","null","47","","","","","","","","","","","","","","","",""
"","time_out","","html-keyboard-response","309","693181","0.0-1.0-431.0-0.0","0","0","59955","","null","","","null","47","","","","","","","","","","","","","","","",""
"","ITI","","html-keyboard-response","310","694233","0.0-1.0-432.0","0","0","59955","","null","","","null","47","","","","","","","","","","","","","","","NaN",""
"","block_over","","html-keyboard-response","311","729808","0.0-1.0-433.0-0.0","0","0","59955","","35566","","","32","47","","","","","","","","","","","","","","","",""
"","S1","","html-keyboard-response","312","730066","0.0-1.0-434.0","0","0","59955","","null","","","null","48","","","","","","","","","","","","","","","",""
"","ISI","","html-keyboard-response","313","730221","0.0-1.0-435.0","0","0","59955","","null","","","null","48","NaN","","","","","","","","","","","","","","",""
"","S2","","html-keyboard-response","314","730483","0.0-1.0-436.0","0","0","59955","","null","","","null","48","","NaN","","","","","","","","","","","","","",""
"","response","","html-keyboard-response","315","731476","0.0-1.0-437.0-0.0","0","0","59955","","985","","","75","48","","","2","48","training","adjacent","CD","3","4","O.jpg","N.jpg","1","1","1","",""
"","feedback","","html-keyboard-response","316","732514","0.0-1.0-438.0-0.0","0","0","59955","","null","","","null","48","","","","","","","","","","","","","","","",""
"","ITI","","html-keyboard-response","317","733524","0.0-1.0-441.0","0","0","59955","","null","","","null","48","","","","","","","","","","","","","","","NaN",""
"","S1","","html-keyboard-response","318","733779","0.0-1.0-443.0","0","0","59955","","null","","","null","49","","","","","","","","","","","","","","","",""
"","ISI","","html-keyboard-response","319","734054","0.0-1.0-444.0","0","0","59955","","null","","","null","49","NaN","","","","","","","","","","","","","","",""
"","S2","","html-keyboard-response","320","734341","0.0-1.0-445.0","0","0","59955","","null","","","null","49","","NaN","","","","","","","","","","","","","",""
"","response","","html-keyboard-response","321","734647","0.0-1.0-446.0-0.0","0","0","59955","","300","","","75","49","","","2","49","training","adjacent","FE","6","5","R.jpg","Q.jpg","1","0","0","",""
"","feedback","","html-keyboard-response","322","735655","0.0-1.0-447.0-0.0","0","0","59955","","null","","","null","49","","","","","","","","","","","","","","","",""
"","time_out","","html-keyboard-response","323","737661","0.0-1.0-449.0-0.0","0","0","59955","","null","","","null","49","","","","","","","","","","","","","","","",""
"","ITI","","html-keyboard-response","324","738667","0.0-1.0-450.0","0","0","59955","","null","","","null","49","","","","","","","","","","","","","","","NaN",""
"","S1","","html-keyboard-response","325","738922","0.0-1.0-452.0","0","0","59955","","null","","","null","50","","","","","","","","","","","","","","","",""
"","ISI","","html-keyboard-response","326","739091","0.0-1.0-453.0","0","0","59955","","6","","","75","50","k","","","","","","","","","","","","","","",""
"","S2","","html-keyboard-response","327","739349","0.0-1.0-454.0","0","0","59955","","null","","","null","50","","NaN","","","","","","","","","","","","","",""
"","response","","html-keyboard-response","328","739831","0.0-1.0-455.0-0.0","0","0","59955","","477","","","75","50","","","2","50","training","adjacent","AB","1","2","P.jpg","L.jpg","1","1","1","",""
"","feedback","","html-keyboard-response","329","740839","0.0-1.0-456.0-0.0","0","0","59955","","null","","","null","50","","","","","","","","","","","","","","","",""
"","ITI","","html-keyboard-response","330","741861","0.0-1.0-459.0","0","0","59955","","null","","","null","50","","","","","","","","","","","","","","","NaN",""
"","S1","","html-keyboard-response","331","742134","0.0-1.0-461.0","0","0","59955","","null","","","null","51","","","","","","","","","","","","","","","",""
"","ISI","","html-keyboard-response","332","742296","0.0-1.0-462.0","0","0","59955","","null","","","null","51","NaN","","","","","","","","","","","","","","",""
"","S2","","html-keyboard-response","333","742556","0.0-1.0-463.0","0","0","59955","","null","","","null","51","","NaN","","","","","","","","","","","","","",""
"","response","","html-keyboard-response","334","743386","0.0-1.0-464.0-0.0","0","0","59955","","821","","","75","51","","","2","51","training","adjacent","AB","1","2","P.jpg","L.jpg","1","1","1","",""
"","feedback","","html-keyboard-response","335","744406","0.0-1.0-465.0-0.0","0","0","59955","","null","","","null","51","","","","","","","","","","","","","","","",""
"","ITI","","html-keyboard-response","336","745415","0.0-1.0-468.0","0","0","59955","","null","","","null","51","","","","","","","","","","","","","","","NaN",""
"","S1","","html-keyboard-response","337","745669","0.0-1.0-470.0","0","0","59955","","null","","","null","52","","","","","","","","","","","","","","","",""
"","ISI","","html-keyboard-response","338","745821","0.0-1.0-471.0","0","0","59955","","null","","","null","52","NaN","","","","","","","","","","","","","","",""
"","S2","","html-keyboard-response","339","746078","0.0-1.0-472.0","0","0","59955","","null","","","null","52","","NaN","","","","","","","","","","","","","",""
"","response","","html-keyboard-response","340","746592","0.0-1.0-473.0-0.0","0","0","59955","","507","","","75","52","","","2","52","training","adjacent","ED","5","4","Q.jpg","N.jpg","1","0","0","",""
"","feedback","","html-keyboard-response","341","747597","0.0-1.0-474.0-0.0","0","0","59955","","null","","","null","52","","","","","","","","","","","","","","","",""
"","time_out","","html-keyboard-response","342","749644","0.0-1.0-476.0-0.0","0","0","59955","","null","","","null","52","","","","","","","","","","","","","","","",""
"","ITI","","html-keyboard-response","343","750664","0.0-1.0-477.0","0","0","59955","","null","","","null","52","","","","","","","","","","","","","","","NaN",""
"","S1","","html-keyboard-response","344","750922","0.0-1.0-479.0","0","0","59955","","null","","","null","53","","","","","","","","","","","","","","","",""
"","ISI","","html-keyboard-response","345","751087","0.0-1.0-480.0","0","0","59955","","null","","","null","53","NaN","","","","","","","","","","","","","","",""
"","S2","","html-keyboard-response","346","751386","0.0-1.0-481.0","0","0","59955","","null","","","null","53","","NaN","","","","","","","","","","","","","",""
"","response","","html-keyboard-response","347","751683","0.0-1.0-482.0-0.0","0","0","59955","","292","","","75","53","","","2","53","training","adjacent","CD","3","4","O.jpg","N.jpg","1","1","1","",""
"","feedback","","html-keyboard-response","348","752690","0.0-1.0-483.0-0.0","0","0","59955","","null","","","null","53","","","","","","","","","","","","","","","",""
"","ITI","","html-keyboard-response","349","753751","0.0-1.0-486.0","0","0","59955","","null","","","null","53","","","","","","","","","","","","","","","NaN",""
"","S1","","html-keyboard-response","350","754006","0.0-1.0-488.0","0","0","59955","","null","","","null","54","","","","","","","","","","","","","","","",""
"","ISI","","html-keyboard-response","351","754166","0.0-1.0-489.0","0","0","59955","","null","","","null","54","NaN","","","","","","","","","","","","","","",""
"","S2","","html-keyboard-response","352","754425","0.0-1.0-490.0","0","0","59955","","null","","","null","54","","NaN","","","","","","","","","","","","","",""
"","response","","html-keyboard-response","353","755096","0.0-1.0-491.0-0.0","0","0","59955","","623","","","75","54","","","2","54","training","adjacent","AB","1","2","P.jpg","L.jpg","1","1","1","",""
"","feedback","","html-keyboard-response","354","756099","0.0-1.0-492.0-0.0","0","0","59955","","null","","","null","54","","","","","","","","","","","","","","","",""
"","ITI","","html-keyboard-response","355","757218","0.0-1.0-495.0","0","0","59955","","null","","","null","54","","","","","","","","","","","","","","","NaN",""
"","S1","","html-keyboard-response","356","757482","0.0-1.0-497.0","0","0","59955","","null","","","null","55","","","","","","","","","","","","","","","",""
"","ISI","","html-keyboard-response","357","757638","0.0-1.0-498.0","0","0","59955","","null","","","null","55","NaN","","","","","","","","","","","","","","",""
"","S2","","html-keyboard-response","358","757907","0.0-1.0-499.0","0","0","59955","","null","","","null","55","","NaN","","","","","","","","","","","","","",""
"","response","","html-keyboard-response","359","758623","0.0-1.0-500.0-0.0","0","0","59955","","713","","","75","55","","","2","55","training","adjacent","DE","4","5","N.jpg","Q.jpg","1","1","1","",""
"","feedback","","html-keyboard-response","360","759628","0.0-1.0-501.0-0.0","0","0","59955","","null","","","null","55","","","","","","","","","","","","","","","",""
"","ITI","","html-keyboard-response","361","760643","0.0-1.0-504.0","0","0","59955","","null","","","null","55","","","","","","","","","","","","","","","NaN",""
"","S1","","html-keyboard-response","362","760899","0.0-1.0-506.0","0","0","59955","","null","","","null","56","","","","","","","","","","","","","","","",""
"","ISI","","html-keyboard-response","363","761061","0.0-1.0-507.0","0","0","59955","","null","","","null","56","NaN","","","","","","","","","","","","","","",""
"","S2","","html-keyboard-response","364","761389","0.0-1.0-508.0","0","0","59955","","null","","","null","56","","NaN","","","","","","","","","","","","","",""
"","response","","html-keyboard-response","365","762023","0.0-1.0-509.0-0.0","0","0","59955","","629","","","75","56","","","2","56","training","adjacent","FE","6","5","R.jpg","Q.jpg","1","0","0","",""
"","feedback","","html-keyboard-response","366","763049","0.0-1.0-510.0-0.0","0","0","59955","","null","","","null","56","","","","","","","","","","","","","","","",""
"","time_out","","html-keyboard-response","367","765070","0.0-1.0-512.0-0.0","0","0","59955","","null","","","null","56","","","","","","","","","","","","","","","",""
"","ITI","","html-keyboard-response","368","766079","0.0-1.0-513.0","0","0","59955","","null","","","null","56","","","","","","","","","","","","","","","NaN",""
"","S1","","html-keyboard-response","369","766335","0.0-1.0-515.0","0","0","59955","","null","","","null","57","","","","","","","","","","","","","","","",""
"","ISI","","html-keyboard-response","370","766490","0.0-1.0-516.0","0","0","59955","","null","","","null","57","NaN","","","","","","","","","","","","","","",""
"","S2","","html-keyboard-response","371","766803","0.0-1.0-517.0","0","0","59955","","null","","","null","57","","NaN","","","","","","","","","","","","","",""
"","response","","html-keyboard-response","372","767284","0.0-1.0-518.0-0.0","0","0","59955","","477","","","75","57","","","2","57","training","adjacent","DC","4","3","N.jpg","O.jpg","1","0","0","",""
"","feedback","","html-keyboard-response","373","768290","0.0-1.0-519.0-0.0","0","0","59955","","null","","","null","57","","","","","","","","","","","","","","","",""
"","time_out","","html-keyboard-response","374","770296","0.0-1.0-521.0-0.0","0","0","59955","","null","","","null","57","","","","","","","","","","","","","","","",""
"","ITI","","html-keyboard-response","375","771349","0.0-1.0-522.0","0","0","59955","","null","","","null","57","","","","","","","","","","","","","","","NaN",""
"","S1","","html-keyboard-response","376","771607","0.0-1.0-524.0","0","0","59955","","null","","","null","58","","","","","","","","","","","","","","","",""
"","ISI","","html-keyboard-response","377","771826","0.0-1.0-525.0","0","0","59955","","null","","","null","58","NaN","","","","","","","","","","","","","","",""
"","S2","","html-keyboard-response","378","771925","0.0-1.0-526.0","0","0","59955","","94","","","75","58","","k","2","58","training","adjacent","DE","4","5","N.jpg","Q.jpg","1","1","1","",""
"","feedback","","html-keyboard-response","379","772976","0.0-1.0-528.0-0.0","0","0","59955","","null","","","null","58","","","","","","","","","","","","","","","",""
"","ITI","","html-keyboard-response","380","773981","0.0-1.0-531.0","0","0","59955","","null","","","null","58","","","","","","","","","","","","","","","NaN",""
"","S1","","html-keyboard-response","381","774239","0.0-1.0-533.0","0","0","59955","","null","","","null","59","","","","","","","","","","","","","","","",""
"","ISI","","html-keyboard-response","382","774436","0.0-1.0-534.0","0","0","59955","","null","","","null","59","NaN","","","","","","","","","","","","","","",""
"","S2","","html-keyboard-response","383","774724","0.0-1.0-535.0","0","0","59955","","null","","","null","59","","NaN","","","","","","","","","","","","","",""
"","response","","html-keyboard-response","384","775209","0.0-1.0-536.0-0.0","0","0","59955","","482","","","75","59","","","2","59","training","adjacent","FE","6","5","R.jpg","Q.jpg","1","0","0","",""
"","feedback","","html-keyboard-response","385","776215","0.0-1.0-537.0-0.0","0","0","59955","","null","","","null","59","","","","","","","","","","","","","","","",""
"","time_out","","html-keyboard-response","386","778313","0.0-1.0-539.0-0.0","0","0","59955","","null","","","null","59","","","","","","","","","","","","","","","",""
"","ITI","","html-keyboard-response","387","779318","0.0-1.0-540.0","0","0","59955","","null","","","null","59","","","","","","","","","","","","","","","NaN",""
"","S1","","html-keyboard-response","388","779572","0.0-1.0-542.0","0","0","59955","","null","","","null","60","","","","","","","","","","","","","","","",""
"","ISI","","html-keyboard-response","389","779739","0.0-1.0-543.0","0","0","59955","","null","","","null","60","NaN","","","","","","","","","","","","","","",""
"","S2","","html-keyboard-response","390","779999","0.0-1.0-544.0","0","0","59955","","null","","","null","60","","NaN","","","","","","","","","","","","","",""
"","response","","html-keyboard-response","391","780112","0.0-1.0-545.0-0.0","0","0","59955","","106","","","75","60","","","2","60","training","adjacent","FG","6","7","R.jpg","M.jpg","1","1","1","",""
"","feedback","","html-keyboard-response","392","781128","0.0-1.0-546.0-0.0","0","0","59955","","null","","","null","60","","","","","","","","","","","","","","","",""
"","ITI","","html-keyboard-response","393","782141","0.0-1.0-549.0","0","0","59955","","null","","","null","60","","","","","","","","","","","","","","","NaN",""
"","S1","","html-keyboard-response","394","782406","0.0-1.0-551.0","0","0","59955","","null","","","null","61","","","","","","","","","","","","","","","",""
"","ISI","","html-keyboard-response","395","782790","0.0-1.0-552.0","0","0","59955","","null","","","null","61","NaN","","","","","","","","","","","","","","",""
"","S2","","html-keyboard-response","396","783046","0.0-1.0-553.0","0","0","59955","","null","","","null","61","","NaN","","","","","","","","","","","","","",""
"","response","","html-keyboard-response","397","783546","0.0-1.0-554.0-0.0","0","0","59955","","499","","","75","61","","","2","61","training","adjacent","EF","5","6","Q.jpg","R.jpg","1","1","1","",""
"","feedback","","html-keyboard-response","398","784551","0.0-1.0-555.0-0.0","0","0","59955","","null","","","null","61","","","","","","","","","","","","","","","",""
"","ITI","","html-keyboard-response","399","785567","0.0-1.0-558.0","0","0","59955","","null","","","null","61","","","","","","","","","","","","","","","NaN",""
"","S1","","html-keyboard-response","400","785825","0.0-1.0-560.0","0","0","59955","","null","","","null","62","","","","","","","","","","","","","","","",""
"","ISI","","html-keyboard-response","401","785980","0.0-1.0-561.0","0","0","59955","","null","","","null","62","NaN","","","","","","","","","","","","","","",""
"","S2","","html-keyboard-response","402","786376","0.0-1.0-562.0","0","0","59955","","null","","","null","62","","NaN","","","","","","","","","","","","","",""
"","response","","html-keyboard-response","403","786988","0.0-1.0-563.0-0.0","0","0","59955","","605","","","75","62","","","2","62","training","adjacent","GF","7","6","M.jpg","R.jpg","1","0","0","",""
"","feedback","","html-keyboard-response","404","787994","0.0-1.0-564.0-0.0","0","0","59955","","null","","","null","62","","","","","","","","","","","","","","","",""
"","time_out","","html-keyboard-response","405","790003","0.0-1.0-566.0-0.0","0","0","59955","","null","","","null","62","","","","","","","","","","","","","","","",""
"","ITI","","html-keyboard-response","406","791008","0.0-1.0-567.0","0","0","59955","","null","","","null","62","","","","","","","","","","","","","","","NaN",""
"","S1","","html-keyboard-response","407","791388","0.0-1.0-569.0","0","0","59955","","null","","","null","63","","","","","","","","","","","","","","","",""
"","ISI","","html-keyboard-response","408","791585","0.0-1.0-570.0","0","0","59955","","null","","","null","63","NaN","","","","","","","","","","","","","","",""
"","S2","","html-keyboard-response","409","791893","0.0-1.0-571.0","0","0","59955","","null","","","null","63","","NaN","","","","","","","","","","","","","",""
"","response","","html-keyboard-response","410","792238","0.0-1.0-572.0-0.0","0","0","59955","","241","","","75","63","","","2","63","training","adjacent","FE","6","5","R.jpg","Q.jpg","1","0","0","",""
"","feedback","","html-keyboard-response","411","793245","0.0-1.0-573.0-0.0","0","0","59955","","null","","","null","63","","","","","","","","","","","","","","","",""
"","time_out","","html-keyboard-response","412","795253","0.0-1.0-575.0-0.0","0","0","59955","","null","","","null","63","","","","","","","","","","","","","","","",""
"","ITI","","html-keyboard-response","413","796258","0.0-1.0-576.0","0","0","59955","","null","","","null","63","","","","","","","","","","","","","","","NaN",""
"","S1","","html-keyboard-response","414","796515","0.0-1.0-578.0","0","0","59955","","null","","","null","64","","","","","","","","","","","","","","","",""
"","ISI","","html-keyboard-response","415","796669","0.0-1.0-579.0","0","0","59955","","null","","","null","64","NaN","","","","","","","","","","","","","","",""
"","S2","","html-keyboard-response","416","796784","0.0-1.0-580.0","0","0","59955","","111","","","75","64","","k","2","64","training","adjacent","ED","5","4","Q.jpg","N.jpg","1","0","0","",""
"","feedback","","html-keyboard-response","417","797905","0.0-1.0-582.0-0.0","0","0","59955","","null","","","null","64","","","","","","","","","","","","","","","",""
"","time_out","","html-keyboard-response","418","799921","0.0-1.0-584.0-0.0","0","0","59955","","null","","","null","64","","","","","","","","","","","","","","","",""
"","ITI","","html-keyboard-response","419","801055","0.0-1.0-585.0","0","0","59955","","null","","","null","64","","","","","","","","","","","","","","","NaN",""
"","S1","","html-keyboard-response","420","801319","0.0-1.0-587.0","0","0","59955","","null","","","null","65","","","","","","","","","","","","","","","",""
"","ISI","","html-keyboard-response","421","801478","0.0-1.0-588.0","0","0","59955","","null","","","null","65","NaN","","","","","","","","","","","","","","",""
"","S2","","html-keyboard-response","422","801819","0.0-1.0-589.0","0","0","59955","","null","","","null","65","","NaN","","","","","","","","","","","","","",""
"","response","","html-keyboard-response","423","802395","0.0-1.0-590.0-0.0","0","0","59955","","565","","","75","65","","","2","65","training","adjacent","DC","4","3","N.jpg","O.jpg","1","0","0","",""
"","feedback","","html-keyboard-response","424","803400","0.0-1.0-591.0-0.0","0","0","59955","","null","","","null","65","","","","","","","","","","","","","","","",""
"","time_out","","html-keyboard-response","425","805408","0.0-1.0-593.0-0.0","0","0","59955","","null","","","null","65","","","","","","","","","","","","","","","",""
"","ITI","","html-keyboard-response","426","806472","0.0-1.0-594.0","0","0","59955","","null","","","null","65","","","","","","","","","","","","","","","NaN",""
"","S1","","html-keyboard-response","427","806739","0.0-1.0-596.0","0","0","59955","","null","","","null","66","","","","","","","","","","","","","","","",""
"","ISI","","html-keyboard-response","428","806900","0.0-1.0-597.0","0","0","59955","","null","","","null","66","NaN","","","","","","","","","","","","","","",""
"","S2","","html-keyboard-response","429","807155","0.0-1.0-598.0","0","0","59955","","null","","","null","66","","NaN","","","","","","","","","","","","","",""
"","response","","html-keyboard-response","430","807661","0.0-1.0-599.0-0.0","0","0","59955","","502","","","75","66","","","2","66","training","adjacent","CD","3","4","O.jpg","N.jpg","1","1","1","",""
"","feedback","","html-keyboard-response","431","808673","0.0-1.0-600.0-0.0","0","0","59955","","null","","","null","66","","","","","","","","","","","","","","","",""
"","ITI","","html-keyboard-response","432","809683","0.0-1.0-603.0","0","0","59955","","null","","","null","66","","","","","","","","","","","","","","","NaN",""
"","S1","","html-keyboard-response","433","809943","0.0-1.0-605.0","0","0","59955","","null","","","null","67","","","","","","","","","","","","","","","",""
"","ISI","","html-keyboard-response","434","810108","0.0-1.0-606.0","0","0","59955","","null","","","null","67","NaN","","","","","","","","","","","","","","",""
"","S2","","html-keyboard-response","435","810398","0.0-1.0-607.0","0","0","59955","","null","","","null","67","","NaN","","","","","","","","","","","","","",""
"","response","","html-keyboard-response","436","811044","0.0-1.0-608.0-0.0","0","0","59955","","642","","","75","67","","","2","67","training","adjacent","FG","6","7","R.jpg","M.jpg","1","1","1","",""
"","feedback","","html-keyboard-response","437","812051","0.0-1.0-609.0-0.0","0","0","59955","","null","","","null","67","","","","","","","","","","","","","","","",""
"","ITI","","html-keyboard-response","438","813058","0.0-1.0-612.0","0","0","59955","","null","","","null","67","","","","","","","","","","","","","","","NaN",""
"","S1","","html-keyboard-response","439","813322","0.0-1.0-614.0","0","0","59955","","null","","","null","68","","","","","","","","","","","","","","","",""
"","ISI","","html-keyboard-response","440","813475","0.0-1.0-615.0","0","0","59955","","null","","","null","68","NaN","","","","","","","","","","","","","","",""
"","S2","","html-keyboard-response","441","813728","0.0-1.0-616.0","0","0","59955","","null","","","null","68","","NaN","","","","","","","","","","","","","",""
"","response","","html-keyboard-response","442","814194","0.0-1.0-617.0-0.0","0","0","59955","","463","","","75","68","","","2","68","training","adjacent","DE","4","5","N.jpg","Q.jpg","1","1","1","",""
"","feedback","","html-keyboard-response","443","815269","0.0-1.0-618.0-0.0","0","0","59955","","null","","","null","68","","","","","","","","","","","","","","","",""
"","ITI","","html-keyboard-response","444","816294","0.0-1.0-621.0","0","0","59955","","null","","","null","68","","","","","","","","","","","","","","","NaN",""
"","S1","","html-keyboard-response","445","816565","0.0-1.0-623.0","0","0","59955","","null","","","null","69","","","","","","","","","","","","","","","",""
"","ISI","","html-keyboard-response","446","816764","0.0-1.0-624.0","0","0","59955","","null","","","null","69","NaN","","","","","","","","","","","","","","",""
"","S2","","html-keyboard-response","447","816852","0.0-1.0-625.0","0","0","59955","","85","","","75","69","","k","2","69","training","adjacent","CD","3","4","O.jpg","N.jpg","1","1","1","",""
"","feedback","","html-keyboard-response","448","817927","0.0-1.0-627.0-0.0","0","0","59955","","null","","","null","69","","","","","","","","","","","","","","","",""
"","ITI","","html-keyboard-response","449","818957","0.0-1.0-630.0","0","0","59955","","995","","","75","69","","","","","","","","","","","","","","","k",""
"","S1","","html-keyboard-response","450","819220","0.0-1.0-632.0","0","0","59955","","null","","","null","70","","","","","","","","","","","","","","","",""
"","ISI","","html-keyboard-response","451","819399","0.0-1.0-633.0","0","0","59955","","null","","","null","70","NaN","","","","","","","","","","","","","","",""
"","S2","","html-keyboard-response","452","819655","0.0-1.0-634.0","0","0","59955","","null","","","null","70","","NaN","","","","","","","","","","","","","",""
"","response","","html-keyboard-response","453","819824","0.0-1.0-635.0-0.0","0","0","59955","","162","","","75","70","","","2","70","training","adjacent","ED","5","4","Q.jpg","N.jpg","1","0","0","",""
"","feedback","","html-keyboard-response","454","820835","0.0-1.0-636.0-0.0","0","0","59955","","null","","","null","70","","","","","","","","","","","","","","","",""
"","time_out","","html-keyboard-response","455","822843","0.0-1.0-638.0-0.0","0","0","59955","","null","","","null","70","","","","","","","","","","","","","","","",""
"","ITI","","html-keyboard-response","456","823980","0.0-1.0-639.0","0","0","59955","","290","","","75","70","","","","","","","","","","","","","","","k",""
"","S1","","html-keyboard-response","457","824253","0.0-1.0-641.0","0","0","59955","","null","","","null","71","","","","","","","","","","","","","","","",""
"","ISI","","html-keyboard-response","458","824411","0.0-1.0-642.0","0","0","59955","","null","","","null","71","NaN","","","","","","","","","","","","","","",""
"","S2","","html-keyboard-response","459","824497","0.0-1.0-643.0","0","0","59955","","80","","","75","71","","k","2","71","training","adjacent","DE","4","5","N.jpg","Q.jpg","1","1","1","",""
"","feedback","","html-keyboard-response","460","825526","0.0-1.0-645.0-0.0","0","0","59955","","null","","","null","71","","","","","","","","","","","","","","","",""
"","ITI","","html-keyboard-response","461","826542","0.0-1.0-648.0","0","0","59955","","null","","","null","71","","","","","","","","","","","","","","","NaN",""
"","S1","","html-keyboard-response","462","826805","0.0-1.0-650.0","0","0","59955","","null","","","null","72","","","","","","","","","","","","","","","",""
"","ISI","","html-keyboard-response","463","826973","0.0-1.0-651.0","0","0","59955","","null","","","null","72","NaN","","","","","","","","","","","","","","",""
"","S2","","html-keyboard-response","464","827231","0.0-1.0-652.0","0","0","59955","","null","","","null","72","","NaN","","","","","","","","","","","","","",""
"","response","","html-keyboard-response","465","828310","0.0-1.0-653.0-0.0","0","0","59955","","1073","","","75","72","","","2","72","training","adjacent","CB","3","2","O.jpg","L.jpg","1","0","0","",""
"","feedback","","html-keyboard-response","466","829316","0.0-1.0-654.0-0.0","0","0","59955","","null","","","null","72","","","","","","","","","","","","","","","",""
"","time_out","","html-keyboard-response","467","831322","0.0-1.0-656.0-0.0","0","0","59955","","null","","","null","72","","","","","","","","","","","","","","","",""
"","ITI","","html-keyboard-response","468","832328","0.0-1.0-657.0","0","0","59955","","null","","","null","72","","","","","","","","","","","","","","","NaN",""
"","S1","","html-keyboard-response","469","832639","0.0-1.0-659.0","0","0","59955","","null","","","null","73","","","","","","","","","","","","","","","",""
"","ISI","","html-keyboard-response","470","832803","0.0-1.0-660.0","0","0","59955","","null","","","null","73","NaN","","","","","","","","","","","","","","",""
"","S2","","html-keyboard-response","471","833013","0.0-1.0-661.0","0","0","59955","","202","","","75","73","","k","2","73","training","adjacent","GF","7","6","M.jpg","R.jpg","1","0","0","",""
"","feedback","","html-keyboard-response","472","834124","0.0-1.0-663.0-0.0","0","0","59955","","null","","","null","73","","","","","","","","","","","","","","","",""
"","time_out","","html-keyboard-response","473","836132","0.0-1.0-665.0-0.0","0","0","59955","","null","","","null","73","","","","","","","","","","","","","","","",""
"","ITI","","html-keyboard-response","474","837134","0.0-1.0-666.0","0","0","59955","","null","","","null","73","","","","","","","","","","","","","","","NaN",""
"","S1","","html-keyboard-response","475","837391","0.0-1.0-668.0","0","0","59955","","null","","","null","74","","","","","","","","","","","","","","","",""
"","ISI","","html-keyboard-response","476","837545","0.0-1.0-669.0","0","0","59955","","null","","","null","74","NaN","","","","","","","","","","","","","","",""
"","S2","","html-keyboard-response","477","837885","0.0-1.0-670.0","0","0","59955","","null","","","null","74","","NaN","","","","","","","","","","","","","",""
"","response","","html-keyboard-response","478","837987","0.0-1.0-671.0-0.0","0","0","59955","","98","","","75","74","","","2","74","training","adjacent","FG","6","7","R.jpg","M.jpg","1","1","1","",""
"","feedback","","html-keyboard-response","479","838992","0.0-1.0-672.0-0.0","0","0","59955","","null","","","null","74","","","","","","","","","","","","","","","",""
"","ITI","","html-keyboard-response","480","839997","0.0-1.0-675.0","0","0","59955","","null","","","null","74","","","","","","","","","","","","","","","NaN",""
"","S1","","html-keyboard-response","481","840303","0.0-1.0-677.0","0","0","59955","","null","","","null","75","","","","","","","","","","","","","","","",""
"","ISI","","html-keyboard-response","482","840500","0.0-1.0-678.0","0","0","59955","","null","","","null","75","NaN","","","","","","","","","","","","","","",""
"","S2","","html-keyboard-response","483","840757","0.0-1.0-679.0","0","0","59955","","null","","","null","75","","NaN","","","","","","","","","","","","","",""
"","response","","html-keyboard-response","484","842517","0.0-1.0-680.0-0.0","0","0","59955","","null","","","null","75","","","2","75","training","adjacent","BC","2","3","L.jpg","O.jpg","NaN","1","0","",""
"","too_slow_prompt","","html-keyboard-response","485","843540","0.0-1.0-682.0-0.0","1","0","59955","","null","","","null","","","","","","","","","","","","","","","","",""
"","time_out","","html-keyboard-response","486","845557","0.0-1.0-683.0-0.0","0","0","59955","","null","","","null","75","","","","","","","","","","","","","","","",""
"","ITI","","html-keyboard-response","487","846564","0.0-1.0-684.0","0","0","59955","","null","","","null","75","","","","","","","","","","","","","","","NaN",""
"","S1","","html-keyboard-response","488","846825","0.0-1.0-686.0","0","0","59955","","null","","","null","76","","","","","","","","","","","","","","","",""
"","ISI","","html-keyboard-response","489","846998","0.0-1.0-687.0","0","0","59955","","null","","","null","76","NaN","","","","","","","","","","","","","","",""
"","S2","","html-keyboard-response","490","847252","0.0-1.0-688.0","0","0","59955","","null","","","null","76","","NaN","","","","","","","","","","","","","",""
"","response","","html-keyboard-response","491","848350","0.0-1.0-689.0-0.0","0","0","59955","","1090","","","75","76","","","2","76","training","adjacent","CB","3","2","O.jpg","L.jpg","1","0","0","",""
"","feedback","","html-keyboard-response","492","849359","0.0-1.0-690.0-0.0","0","0","59955","","null","","","null","76","","","","","","","","","","","","","","","",""
"","time_out","","html-keyboard-response","493","851369","0.0-1.0-692.0-0.0","0","0","59955","","null","","","null","76","","","","","","","","","","","","","","","",""
"","ITI","","html-keyboard-response","494","852381","0.0-1.0-693.0","0","0","59955","","null","","","null","76","","","","","","","","","","","","","","","NaN",""
"","S1","","html-keyboard-response","495","852636","0.0-1.0-695.0","0","0","59955","","null","","","null","77","","","","","","","","","","","","","","","",""
"","ISI","","html-keyboard-response","496","852792","0.0-1.0-696.0","0","0","59955","","null","","","null","77","NaN","","","","","","","","","","","","","","",""
"","S2","","html-keyboard-response","497","853053","0.0-1.0-697.0","0","0","59955","","null","","","null","77","","NaN","","","","","","","","","","","","","",""
"","response","","html-keyboard-response","498","853113","0.0-1.0-698.0-0.0","0","0","59955","","54","","","75","77","","","2","77","training","adjacent","FG","6","7","R.jpg","M.jpg","1","1","1","",""
"","feedback","","html-keyboard-response","499","854391","0.0-1.0-699.0-0.0","0","0","59955","","null","","","null","77","","","","","","","","","","","","","","","",""
"","ITI","","html-keyboard-response","500","855398","0.0-1.0-702.0","0","0","59955","","null","","","null","77","","","","","","","","","","","","","","","NaN",""
"","S1","","html-keyboard-response","501","855652","0.0-1.0-704.0","0","0","59955","","null","","","null","78","","","","","","","","","","","","","","","",""
"","ISI","","html-keyboard-response","502","855812","0.0-1.0-705.0","0","0","59955","","null","","","null","78","NaN","","","","","","","","","","","","","","",""
"","S2","","html-keyboard-response","503","856073","0.0-1.0-706.0","0","0","59955","","null","","","null","78","","NaN","","","","","","","","","","","","","",""
"","response","","html-keyboard-response","504","856384","0.0-1.0-707.0-0.0","0","0","59955","","305","","","75","78","","","2","78","training","adjacent","BC","2","3","L.jpg","O.jpg","1","1","1","",""
"","feedback","","html-keyboard-response","505","857436","0.0-1.0-708.0-0.0","0","0","59955","","null","","","null","78","","","","","","","","","","","","","","","",""
"","ITI","","html-keyboard-response","506","858517","0.0-1.0-711.0","0","0","59955","","null","","","null","78","","","","","","","","","","","","","","","NaN",""
"","S1","","html-keyboard-response","507","858778","0.0-1.0-713.0","0","0","59955","","null","","","null","79","","","","","","","","","","","","","","","",""
"","ISI","","html-keyboard-response","508","858932","0.0-1.0-714.0","0","0","59955","","null","","","null","79","NaN","","","","","","","","","","","","","","",""
"","S2","","html-keyboard-response","509","859187","0.0-1.0-715.0","0","0","59955","","null","","","null","79","","NaN","","","","","","","","","","","","","",""
"","response","","html-keyboard-response","510","859700","0.0-1.0-716.0-0.0","0","0","59955","","507","","","75","79","","","2","79","training","adjacent","GF","7","6","M.jpg","R.jpg","1","0","0","",""
"","feedback","","html-keyboard-response","511","860717","0.0-1.0-717.0-0.0","0","0","59955","","null","","","null","79","","","","","","","","","","","","","","","",""
"","time_out","","html-keyboard-response","512","862727","0.0-1.0-719.0-0.0","0","0","59955","","null","","","null","79","","","","","","","","","","","","","","","",""
"","ITI","","html-keyboard-response","513","863730","0.0-1.0-720.0","0","0","59955","","null","","","null","79","","","","","","","","","","","","","","","NaN",""
"","S1","","html-keyboard-response","514","863984","0.0-1.0-722.0","0","0","59955","","null","","","null","80","","","","","","","","","","","","","","","",""
"","ISI","","html-keyboard-response","515","864140","0.0-1.0-723.0","0","0","59955","","62","","","75","80","k","","","","","","","","","","","","","","",""
"","S2","","html-keyboard-response","516","864393","0.0-1.0-724.0","0","0","59955","","null","","","null","80","","NaN","","","","","","","","","","","","","",""
"","response","","html-keyboard-response","517","865216","0.0-1.0-725.0-0.0","0","0","59955","","798","","","75","80","","","2","80","training","adjacent","CB","3","2","O.jpg","L.jpg","1","0","0","",""
"","feedback","","html-keyboard-response","518","866225","0.0-1.0-726.0-0.0","0","0","59955","","null","","","null","80","","","","","","","","","","","","","","","",""
"","time_out","","html-keyboard-response","519","868280","0.0-1.0-728.0-0.0","0","0","59955","","null","","","null","80","","","","","","","","","","","","","","","",""
"","ITI","","html-keyboard-response","520","869290","0.0-1.0-729.0","0","0","59955","","null","","","null","80","","","","","","","","","","","","","","","NaN",""
"","S1","","html-keyboard-response","521","869546","0.0-1.0-731.0","0","0","59955","","null","","","null","81","","","","","","","","","","","","","","","",""
"","ISI","","html-keyboard-response","522","869715","0.0-1.0-732.0","0","0","59955","","null","","","null","81","NaN","","","","","","","","","","","","","","",""
"","S2","","html-keyboard-response","523","869981","0.0-1.0-733.0","0","0","59955","","null","","","null","81","","NaN","","","","","","","","","","","","","",""
"","response","","html-keyboard-response","524","870521","0.0-1.0-734.0-0.0","0","0","59955","","532","","","75","81","","","2","81","training","adjacent","DC","4","3","N.jpg","O.jpg","1","0","0","",""
"","feedback","","html-keyboard-response","525","871530","0.0-1.0-735.0-0.0","0","0","59955","","null","","","null","81","","","","","","","","","","","","","","","",""
"","time_out","","html-keyboard-response","526","873581","0.0-1.0-737.0-0.0","0","0","59955","","null","","","null","81","","","","","","","","","","","","","","","",""
"","ITI","","html-keyboard-response","527","874589","0.0-1.0-738.0","0","0","59955","","null","","","null","81","","","","","","","","","","","","","","","NaN",""
"","S1","","html-keyboard-response","528","874846","0.0-1.0-740.0","0","0","59955","","null","","","null","82","","","","","","","","","","","","","","","",""
"","ISI","","html-keyboard-response","529","875012","0.0-1.0-741.0","0","0","59955","","null","","","null","82","NaN","","","","","","","","","","","","","","",""
"","S2","","html-keyboard-response","530","875267","0.0-1.0-742.0","0","0","59955","","null","","","null","82","","NaN","","","","","","","","","","","","","",""
"","response","","html-keyboard-response","531","875816","0.0-1.0-743.0-0.0","0","0","59955","","544","","","75","82","","","2","82","training","adjacent","ED","5","4","Q.jpg","N.jpg","1","0","0","",""
"","feedback","","html-keyboard-response","532","876850","0.0-1.0-744.0-0.0","0","0","59955","","null","","","null","82","","","","","","","","","","","","","","","",""
"","time_out","","html-keyboard-response","533","878856","0.0-1.0-746.0-0.0","0","0","59955","","null","","","null","82","","","","","","","","","","","","","","","",""
"","ITI","","html-keyboard-response","534","879865","0.0-1.0-747.0","0","0","59955","","null","","","null","82","","","","","","","","","","","","","","","NaN",""
"","S1","","html-keyboard-response","535","880147","0.0-1.0-749.0","0","0","59955","","null","","","null","83","","","","","","","","","","","","","","","",""
"","ISI","","html-keyboard-response","536","880339","0.0-1.0-750.0","0","0","59955","","null","","","null","83","NaN","","","","","","","","","","","","","","",""
"","S2","","html-keyboard-response","537","880439","0.0-1.0-751.0","0","0","59955","","89","","","75","83","","k","2","83","training","adjacent","BA","2","1","L.jpg","P.jpg","1","0","0","",""
"","feedback","","html-keyboard-response","538","881453","0.0-1.0-753.0-0.0","0","0","59955","","null","","","null","83","","","","","","","","","","","","","","","",""
"","time_out","","html-keyboard-response","539","883474","0.0-1.0-755.0-0.0","0","0","59955","","null","","","null","83","","","","","","","","","","","","","","","",""
"","ITI","","html-keyboard-response","540","884483","0.0-1.0-756.0","0","0","59955","","553","","","75","83","","","","","","","","","","","","","","","k",""
"","S1","","html-keyboard-response","541","884740","0.0-1.0-758.0","0","0","59955","","null","","","null","84","","","","","","","","","","","","","","","",""
"","ISI","","html-keyboard-response","542","884898","0.0-1.0-759.0","0","0","59955","","null","","","null","84","NaN","","","","","","","","","","","","","","",""
"","S2","","html-keyboard-response","543","885158","0.0-1.0-760.0","0","0","59955","","null","","","null","84","","NaN","","","","","","","","","","","","","",""
"","response","","html-keyboard-response","544","885229","0.0-1.0-761.0-0.0","0","0","59955","","67","","","75","84","","","2","84","training","adjacent","EF","5","6","Q.jpg","R.jpg","1","1","1","",""
"","feedback","","html-keyboard-response","545","886237","0.0-1.0-762.0-0.0","0","0","59955","","null","","","null","84","","","","","","","","","","","","","","","",""
"","ITI","","html-keyboard-response","546","887243","0.0-1.0-765.0","0","0","59955","","null","","","null","84","","","","","","","","","","","","","","","NaN",""
"","S1","","html-keyboard-response","547","887497","0.0-1.0-767.0","0","0","59955","","null","","","null","85","","","","","","","","","","","","","","","",""
"","ISI","","html-keyboard-response","548","887765","0.0-1.0-768.0","0","0","59955","","null","","","null","85","NaN","","","","","","","","","","","","","","",""
"","S2","","html-keyboard-response","549","888026","0.0-1.0-769.0","0","0","59955","","null","","","null","85","","NaN","","","","","","","","","","","","","",""
"","response","","html-keyboard-response","550","888092","0.0-1.0-770.0-0.0","0","0","59955","","56","","","75","85","","","2","85","training","adjacent","BA","2","1","L.jpg","P.jpg","1","0","0","",""
"","feedback","","html-keyboard-response","551","889096","0.0-1.0-771.0-0.0","0","0","59955","","null","","","null","85","","","","","","","","","","","","","","","",""
"","time_out","","html-keyboard-response","552","891115","0.0-1.0-773.0-0.0","0","0","59955","","null","","","null","85","","","","","","","","","","","","","","","",""
"","ITI","","html-keyboard-response","553","892125","0.0-1.0-774.0","0","0","59955","","null","","","null","85","","","","","","","","","","","","","","","NaN",""
"","S1","","html-keyboard-response","554","892384","0.0-1.0-776.0","0","0","59955","","null","","","null","86","","","","","","","","","","","","","","","",""
"","ISI","","html-keyboard-response","555","892539","0.0-1.0-777.0","0","0","59955","","null","","","null","86","NaN","","","","","","","","","","","","","","",""
"","S2","","html-keyboard-response","556","892765","0.0-1.0-778.0","0","0","59955","","220","","","75","86","","k","2","86","training","adjacent","BC","2","3","L.jpg","O.jpg","1","1","1","",""
"","feedback","","html-keyboard-response","557","893781","0.0-1.0-780.0-0.0","0","0","59955","","null","","","null","86","","","","","","","","","","","","","","","",""
"","ITI","","html-keyboard-response","558","894846","0.0-1.0-783.0","0","0","59955","","null","","","null","86","","","","","","","","","","","","","","","NaN",""
"","S1","","html-keyboard-response","559","895102","0.0-1.0-785.0","0","0","59955","","null","","","null","87","","","","","","","","","","","","","","","",""
"","ISI","","html-keyboard-response","560","895258","0.0-1.0-786.0","0","0","59955","","null","","","null","87","NaN","","","","","","","","","","","","","","",""
"","S2","","html-keyboard-response","561","895514","0.0-1.0-787.0","0","0","59955","","null","","","null","87","","NaN","","","","","","","","","","","","","",""
"","response","","html-keyboard-response","562","895892","0.0-1.0-788.0-0.0","0","0","59955","","373","","","75","87","","","2","87","training","adjacent","BC","2","3","L.jpg","O.jpg","1","1","1","",""
"","feedback","","html-keyboard-response","563","896909","0.0-1.0-789.0-0.0","0","0","59955","","null","","","null","87","","","","","","","","","","","","","","","",""
"","ITI","","html-keyboard-response","564","897933","0.0-1.0-792.0","0","0","59955","","null","","","null","87","","","","","","","","","","","","","","","NaN",""
"","S1","","html-keyboard-response","565","898195","0.0-1.0-794.0","0","0","59955","","null","","","null","88","","","","","","","","","","","","","","","",""
"","ISI","","html-keyboard-response","566","898351","0.0-1.0-795.0","0","0","59955","","null","","","null","88","NaN","","","","","","","","","","","","","","",""
"","S2","","html-keyboard-response","567","898606","0.0-1.0-796.0","0","0","59955","","null","","","null","88","","NaN","","","","","","","","","","","","","",""
"","response","","html-keyboard-response","568","898766","0.0-1.0-797.0-0.0","0","0","59955","","153","","","75","88","","","2","88","training","adjacent","AB","1","2","P.jpg","L.jpg","1","1","1","",""
"","feedback","","html-keyboard-response","569","899772","0.0-1.0-798.0-0.0","0","0","59955","","null","","","null","88","","","","","","","","","","","","","","","",""
"","ITI","","html-keyboard-response","570","900806","0.0-1.0-801.0","0","0","59955","","null","","","null","88","","","","","","","","","","","","","","","NaN",""
"","S1","","html-keyboard-response","571","901064","0.0-1.0-803.0","0","0","59955","","null","","","null","89","","","","","","","","","","","","","","","",""
"","ISI","","html-keyboard-response","572","901220","0.0-1.0-804.0","0","0","59955","","null","","","null","89","NaN","","","","","","","","","","","","","","",""
"","S2","","html-keyboard-response","573","901488","0.0-1.0-805.0","0","0","59955","","null","","","null","89","","NaN","","","","","","","","","","","","","",""
"","response","","html-keyboard-response","574","902134","0.0-1.0-806.0-0.0","0","0","59955","","641","","","75","89","","","2","89","training","adjacent","EF","5","6","Q.jpg","R.jpg","1","1","1","",""
"","feedback","","html-keyboard-response","575","903158","0.0-1.0-807.0-0.0","0","0","59955","","null","","","null","89","","","","","","","","","","","","","","","",""
"","ITI","","html-keyboard-response","576","904166","0.0-1.0-810.0","0","0","59955","","null","","","null","89","","","","","","","","","","","","","","","NaN",""
"","S1","","html-keyboard-response","577","904429","0.0-1.0-812.0","0","0","59955","","null","","","null","90","","","","","","","","","","","","","","","",""
"","ISI","","html-keyboard-response","578","904582","0.0-1.0-813.0","0","0","59955","","null","","","null","90","NaN","","","","","","","","","","","","","","",""
"","S2","","html-keyboard-response","579","904837","0.0-1.0-814.0","0","0","59955","","null","","","null","90","","NaN","","","","","","","","","","","","","",""
