"success","ttype","start_time","trial_type","trial_index","time_elapsed","internal_node_id","warning","missed_checkup","PID","view_history","rt","responses","repeat_instructions","key_press","index","keypress_isi","keypress_S2","block","trial_num","phase","group_type","pair_type","S1_stim","S2_stim","S1_img","S2_img","S1_chosen","S1_higher","accuracy","keypress_iti","total_bonus_tally"
"true","full_screen","d07292022hr1933","fullscreen","0","2865","0.0-0.0","0","0","82072","","","","","","","","","","","","","","","","","","","","","",""
"","instructions","","instructions","1","42341","0.0-1.0-0.0-0.0","0","0","82072","[{""page_index"":0,""viewing_time"":5840},{""page_index"":1,""viewing_time"":14961},{""page_index"":2,""viewing_time"":16552},{""page_index"":3,""viewing_time"":2119}]","39473","","","","","","","","","","","","","","","","","","","",""
"","comprehension_check","","survey-multi-choice","2","68177","0.0-1.0-0.0-1.0","0","0","82072","","25828","{""Q0"":""True"",""Q1"":""D"",""Q2"":""When you see the prompt 'MAKE A CHOICE' after the second image was presented"",""Q3"":""Green mark"",""Q4"":""either D or K""}","0","","","","","","","","","","","","","","","","","",""
"","start_exp","","html-keyboard-response","3","70195","0.0-1.0-1.0","0","0","82072","","2009","","","32","","","","","","","","","","","","","","","","",""
"","S1","","html-keyboard-response","4","70452","0.0-1.0-2.0","0","0","82072","","null","","","null","0","","","","","","","","","","","","","","","",""
"","ISI","","html-keyboard-response","5","72456","0.0-1.0-3.0","0","0","82072","","null","","","null","0","NaN","","","","","","","","","","","","","","",""
"","S2","","html-keyboard-response","6","72712","0.0-1.0-4.0","0","0","82072","","null","","","null","0","","NaN","","","","","","","","","","","","","",""
"","response","","html-keyboard-response","7","73920","0.0-1.0-5.0","0","0","82072","","1203","","","68","0","","","1","0","training","adjacent","CB","3","2","M.jpg","N.jpg","1","0","0","",""
"","feedback","","html-keyboard-response","8","74926","0.0-1.0-6.0-0.0","0","0","82072","","null","","","null","0","","","","","","","","","","","","","","","",""
"","time_out","","html-keyboard-response","9","76931","0.0-1.0-8.0-0.0","0","0","82072","","null","","","null","0","","","","","","","","","","","","","","","",""
"","ITI","","html-keyboard-response","10","77936","0.0-1.0-9.0","0","0","82072","","null","","","null","0","","","","","","","","","","","","","","","NaN",""
"","S1","","html-keyboard-response","11","78189","0.0-1.0-11.0","0","0","82072","","null","","","null","1","","","","","","","","","","","","","","","",""
"","ISI","","html-keyboard-response","12","80194","0.0-1.0-12.0","0","0","82072","","null","","","null","1","NaN","","","","","","","","","","","","","","",""
"","S2","","html-keyboard-response","13","80462","0.0-1.0-13.0","0","0","82072","","null","","","null","1","","NaN","","","","","","","","","","","","","",""
"","response","","html-keyboard-response","14","81143","0.0-1.0-14.0","0","0","82072","","678","","","75","1","","","1","1","training","adjacent","AB","1","2","R.jpg","N.jpg","0","1","0","",""
"","feedback","","html-keyboard-response","15","82148","0.0-1.0-15.0-0.0","0","0","82072","","null","","","null","1","","","","","","","","","","","","","","","",""
"","time_out","","html-keyboard-response","16","84152","0.0-1.0-17.0-0.0","0","0","82072","","null","","","null","1","","","","","","","","","","","","","","","",""
"","ITI","","html-keyboard-response","17","85155","0.0-1.0-18.0","0","0","82072","","null","","","null","1","","","","","","","","","","","","","","","NaN",""
"","S1","","html-keyboard-response","18","85409","0.0-1.0-20.0","0","0","82072","","null","","","null","2","","","","","","","","","","","","","","","",""
"","ISI","","html-keyboard-response","19","87411","0.0-1.0-21.0","0","0","82072","","null","","","null","2","NaN","","","","","","","","","","","","","","",""
"","S2","","html-keyboard-response","20","87665","0.0-1.0-22.0","0","0","82072","","null","","","null","2","","NaN","","","","","","","","","","","","","",""
"","response","","html-keyboard-response","21","88339","0.0-1.0-23.0","0","0","82072","","669","","","68","2","","","1","2","training","adjacent","DE","4","5","P.jpg","Q.jpg","1","1","1","",""
"","feedback","","html-keyboard-response","22","89345","0.0-1.0-24.0-0.0","0","0","82072","","null","","","null","2","","","","","","","","","","","","","","","",""
"","ITI","","html-keyboard-response","23","90349","0.0-1.0-27.0","0","0","82072","","null","","","null","2","","","","","","","","","","","","","","","NaN",""
"","S1","","html-keyboard-response","24","90604","0.0-1.0-29.0","0","0","82072","","null","","","null","3","","","","","","","","","","","","","","","",""
"","ISI","","html-keyboard-response","25","92608","0.0-1.0-30.0","0","0","82072","","null","","","null","3","NaN","","","","","","","","","","","","","","",""
"","S2","","html-keyboard-response","26","92863","0.0-1.0-31.0","0","0","82072","","null","","","null","3","","NaN","","","","","","","","","","","","","",""
"","response","","html-keyboard-response","27","93648","0.0-1.0-32.0","0","0","82072","","781","","","75","3","","","1","3","training","adjacent","CB","3","2","M.jpg","N.jpg","0","0","1","",""
"","feedback","","html-keyboard-response","28","94654","0.0-1.0-33.0-0.0","0","0","82072","","null","","","null","3","","","","","","","","","","","","","","","",""
"","ITI","","html-keyboard-response","29","95658","0.0-1.0-36.0","0","0","82072","","null","","","null","3","","","","","","","","","","","","","","","NaN",""
"","S1","","html-keyboard-response","30","95913","0.0-1.0-38.0","0","0","82072","","null","","","null","4","","","","","","","","","","","","","","","",""
"","ISI","","html-keyboard-response","31","97920","0.0-1.0-39.0","0","0","82072","","null","","","null","4","NaN","","","","","","","","","","","","","","",""
"","S2","","html-keyboard-response","32","98175","0.0-1.0-40.0","0","0","82072","","null","","","null","4","","NaN","","","","","","","","","","","","","",""
"","response","","html-keyboard-response","33","98653","0.0-1.0-41.0","0","0","82072","","473","","","75","4","","","1","4","training","adjacent","DE","4","5","P.jpg","Q.jpg","0","1","0","",""
"","feedback","","html-keyboard-response","34","99665","0.0-1.0-42.0-0.0","0","0","82072","","null","","","null","4","","","","","","","","","","","","","","","",""
"","time_out","","html-keyboard-response","35","101669","0.0-1.0-44.0-0.0","0","0","82072","","null","","","null","4","","","","","","","","","","","","","","","",""
"","ITI","","html-keyboard-response","36","102673","0.0-1.0-45.0","0","0","82072","","null","","","null","4","","","","","","","","","","","","","","","NaN",""
"","S1","","html-keyboard-response","37","102926","0.0-1.0-47.0","0","0","82072","","null","","","null","5","","","","","","","","","","","","","","","",""
"","ISI","","html-keyboard-response","38","104928","0.0-1.0-48.0","0","0","82072","","null","","","null","5","NaN","","","","","","","","","","","","","","",""
"","S2","","html-keyboard-response","39","105182","0.0-1.0-49.0","0","0","82072","","null","","","null","5","","NaN","","","","","","","","","","","","","",""
"","response","","html-keyboard-response","40","105663","0.0-1.0-50.0","0","0","82072","","478","","","68","5","","","1","5","training","adjacent","FE","6","5","O.jpg","Q.jpg","1","0","0","",""
"","feedback","","html-keyboard-response","41","106668","0.0-1.0-51.0-0.0","0","0","82072","","null","","","null","5","","","","","","","","","","","","","","","",""
"","time_out","","html-keyboard-response","42","108672","0.0-1.0-53.0-0.0","0","0","82072","","null","","","null","5","","","","","","","","","","","","","","","",""
"","ITI","","html-keyboard-response","43","109676","0.0-1.0-54.0","0","0","82072","","null","","","null","5","","","","","","","","","","","","","","","NaN",""
"","S1","","html-keyboard-response","44","109932","0.0-1.0-56.0","0","0","82072","","null","","","null","6","","","","","","","","","","","","","","","",""
"","ISI","","html-keyboard-response","45","111936","0.0-1.0-57.0","0","0","82072","","null","","","null","6","NaN","","","","","","","","","","","","","","",""
"","S2","","html-keyboard-response","46","112190","0.0-1.0-58.0","0","0","82072","","null","","","null","6","","NaN","","","","","","","","","","","","","",""
"","response","","html-keyboard-response","47","112476","0.0-1.0-59.0","0","0","82072","","283","","","75","6","","","1","6","training","adjacent","CD","3","4","M.jpg","P.jpg","0","1","0","",""
"","feedback","","html-keyboard-response","48","113481","0.0-1.0-60.0-0.0","0","0","82072","","null","","","null","6","","","","","","","","","","","","","","","",""
"","time_out","","html-keyboard-response","49","115484","0.0-1.0-62.0-0.0","0","0","82072","","null","","","null","6","","","","","","","","","","","","","","","",""
"","ITI","","html-keyboard-response","50","116487","0.0-1.0-63.0","0","0","82072","","null","","","null","6","","","","","","","","","","","","","","","NaN",""
"","S1","","html-keyboard-response","51","116741","0.0-1.0-65.0","0","0","82072","","null","","","null","7","","","","","","","","","","","","","","","",""
"","ISI","","html-keyboard-response","52","118752","0.0-1.0-66.0","0","0","82072","","null","","","null","7","NaN","","","","","","","","","","","","","","",""
"","S2","","html-keyboard-response","53","119006","0.0-1.0-67.0","0","0","82072","","null","","","null","7","","NaN","","","","","","","","","","","","","",""
"","response","","html-keyboard-response","54","119622","0.0-1.0-68.0","0","0","82072","","611","","","75","7","","","1","7","training","adjacent","FG","6","7","O.jpg","L.jpg","0","1","0","",""
"","feedback","","html-keyboard-response","55","120628","0.0-1.0-69.0-0.0","0","0","82072","","null","","","null","7","","","","","","","","","","","","","","","",""
"","time_out","","html-keyboard-response","56","122631","0.0-1.0-71.0-0.0","0","0","82072","","null","","","null","7","","","","","","","","","","","","","","","",""
"","ITI","","html-keyboard-response","57","123635","0.0-1.0-72.0","0","0","82072","","null","","","null","7","","","","","","","","","","","","","","","NaN",""
"","S1","","html-keyboard-response","58","123890","0.0-1.0-74.0","0","0","82072","","null","","","null","8","","","","","","","","","","","","","","","",""
"","ISI","","html-keyboard-response","59","125894","0.0-1.0-75.0","0","0","82072","","null","","","null","8","NaN","","","","","","","","","","","","","","",""
"","S2","","html-keyboard-response","60","126149","0.0-1.0-76.0","0","0","82072","","null","","","null","8","","NaN","","","","","","","","","","","","","",""
"","response","","html-keyboard-response","61","126623","0.0-1.0-77.0","0","0","82072","","470","","","68","8","","","1","8","training","adjacent","GF","7","6","L.jpg","O.jpg","1","0","0","",""
"","feedback","","html-keyboard-response","62","127628","0.0-1.0-78.0-0.0","0","0","82072","","null","","","null","8","","","","","","","","","","","","","","","",""
"","time_out","","html-keyboard-response","63","129632","0.0-1.0-80.0-0.0","0","0","82072","","null","","","null","8","","","","","","","","","","","","","","","",""
"","ITI","","html-keyboard-response","64","130637","0.0-1.0-81.0","0","0","82072","","null","","","null","8","","","","","","","","","","","","","","","NaN",""
"","S1","","html-keyboard-response","65","130891","0.0-1.0-83.0","0","0","82072","","null","","","null","9","","","","","","","","","","","","","","","",""
"","ISI","","html-keyboard-response","66","132895","0.0-1.0-84.0","0","0","82072","","null","","","null","9","NaN","","","","","","","","","","","","","","",""
"","S2","","html-keyboard-response","67","133148","0.0-1.0-85.0","0","0","82072","","null","","","null","9","","NaN","","","","","","","","","","","","","",""
"","response","","html-keyboard-response","68","133827","0.0-1.0-86.0","0","0","82072","","676","","","68","9","","","1","9","training","adjacent","DC","4","3","P.jpg","M.jpg","1","0","0","",""
"","feedback","","html-keyboard-response","69","134830","0.0-1.0-87.0-0.0","0","0","82072","","null","","","null","9","","","","","","","","","","","","","","","",""
"","time_out","","html-keyboard-response","70","136836","0.0-1.0-89.0-0.0","0","0","82072","","null","","","null","9","","","","","","","","","","","","","","","",""
"","ITI","","html-keyboard-response","71","137841","0.0-1.0-90.0","0","0","82072","","null","","","null","9","","","","","","","","","","","","","","","NaN",""
"","S1","","html-keyboard-response","72","138097","0.0-1.0-92.0","0","0","82072","","null","","","null","10","","","","","","","","","","","","","","","",""
"","ISI","","html-keyboard-response","73","140102","0.0-1.0-93.0","0","0","82072","","null","","","null","10","NaN","","","","","","","","","","","","","","",""
"","S2","","html-keyboard-response","74","140355","0.0-1.0-94.0","0","0","82072","","null","","","null","10","","NaN","","","","","","","","","","","","","",""
"","response","","html-keyboard-response","75","140952","0.0-1.0-95.0","0","0","82072","","593","","","75","10","","","1","10","training","adjacent","BA","2","1","N.jpg","R.jpg","0","0","1","",""
"","feedback","","html-keyboard-response","76","141957","0.0-1.0-96.0-0.0","0","0","82072","","null","","","null","10","","","","","","","","","","","","","","","",""
"","ITI","","html-keyboard-response","77","142962","0.0-1.0-99.0","0","0","82072","","null","","","null","10","","","","","","","","","","","","","","","NaN",""
"","S1","","html-keyboard-response","78","143217","0.0-1.0-101.0","0","0","82072","","null","","","null","11","","","","","","","","","","","","","","","",""
"","ISI","","html-keyboard-response","79","145221","0.0-1.0-102.0","0","0","82072","","null","","","null","11","NaN","","","","","","","","","","","","","","",""
"","S2","","html-keyboard-response","80","145478","0.0-1.0-103.0","0","0","82072","","null","","","null","11","","NaN","","","","","","","","","","","","","",""
"","response","","html-keyboard-response","81","146073","0.0-1.0-104.0","0","0","82072","","592","","","75","11","","","1","11","training","adjacent","EF","5","6","Q.jpg","O.jpg","0","1","0","",""
"","feedback","","html-keyboard-response","82","147076","0.0-1.0-105.0-0.0","0","0","82072","","null","","","null","11","","","","","","","","","","","","","","","",""
"","time_out","","html-keyboard-response","83","149080","0.0-1.0-107.0-0.0","0","0","82072","","null","","","null","11","","","","","","","","","","","","","","","",""
"","ITI","","html-keyboard-response","84","150084","0.0-1.0-108.0","0","0","82072","","null","","","null","11","","","","","","","","","","","","","","","NaN",""
"","S1","","html-keyboard-response","85","150339","0.0-1.0-110.0","0","0","82072","","null","","","null","12","","","","","","","","","","","","","","","",""
"","ISI","","html-keyboard-response","86","152345","0.0-1.0-111.0","0","0","82072","","null","","","null","12","NaN","","","","","","","","","","","","","","",""
"","S2","","html-keyboard-response","87","152598","0.0-1.0-112.0","0","0","82072","","null","","","null","12","","NaN","","","","","","","","","","","","","",""
"","response","","html-keyboard-response","88","153087","0.0-1.0-113.0","0","0","82072","","485","","","68","12","","","1","12","training","adjacent","CD","3","4","M.jpg","P.jpg","1","1","1","",""
"","feedback","","html-keyboard-response","89","154091","0.0-1.0-114.0-0.0","0","0","82072","","null","","","null","12","","","","","","","","","","","","","","","",""
"","ITI","","html-keyboard-response","90","155094","0.0-1.0-117.0","0","0","82072","","null","","","null","12","","","","","","","","","","","","","","","NaN",""
"","S1","","html-keyboard-response","91","155346","0.0-1.0-119.0","0","0","82072","","null","","","null","13","","","","","","","","","","","","","","","",""
"","ISI","","html-keyboard-response","92","157349","0.0-1.0-120.0","0","0","82072","","null","","","null","13","NaN","","","","","","","","","","","","","","",""
"","S2","","html-keyboard-response","93","157601","0.0-1.0-121.0","0","0","82072","","null","","","null","13","","NaN","","","","","","","","","","","","","",""
"","response","","html-keyboard-response","94","157962","0.0-1.0-122.0","0","0","82072","","357","","","75","13","","","1","13","training","adjacent","FG","6","7","O.jpg","L.jpg","0","1","0","",""
"","feedback","","html-keyboard-response","95","158967","0.0-1.0-123.0-0.0","0","0","82072","","null","","","null","13","","","","","","","","","","","","","","","",""
"","time_out","","html-keyboard-response","96","160968","0.0-1.0-125.0-0.0","0","0","82072","","null","","","null","13","","","","","","","","","","","","","","","",""
"","ITI","","html-keyboard-response","97","161986","0.0-1.0-126.0","0","0","82072","","null","","","null","13","","","","","","","","","","","","","","","NaN",""
"","S1","","html-keyboard-response","98","162240","0.0-1.0-128.0","0","0","82072","","null","","","null","14","","","","","","","","","","","","","","","",""
"","ISI","","html-keyboard-response","99","164245","0.0-1.0-129.0","0","0","82072","","null","","","null","14","NaN","","","","","","","","","","","","","","",""
"","S2","","html-keyboard-response","100","164501","0.0-1.0-130.0","0","0","82072","","null","","","null","14","","NaN","","","","","","","","","","","","","",""
"","response","","html-keyboard-response","101","165442","0.0-1.0-131.0","0","0","82072","","937","","","68","14","","","1","14","training","adjacent","FG","6","7","O.jpg","L.jpg","1","1","1","",""
"","feedback","","html-keyboard-response","102","166446","0.0-1.0-132.0-0.0","0","0","82072","","null","","","null","14","","","","","","","","","","","","","","","",""
"","ITI","","html-keyboard-response","103","167451","0.0-1.0-135.0","0","0","82072","","null","","","null","14","","","","","","","","","","","","","","","NaN",""
"","S1","","html-keyboard-response","104","167705","0.0-1.0-137.0","0","0","82072","","null","","","null","15","","","","","","","","","","","","","","","",""
"","ISI","","html-keyboard-response","105","169708","0.0-1.0-138.0","0","0","82072","","null","","","null","15","NaN","","","","","","","","","","","","","","",""
"","S2","","html-keyboard-response","106","169964","0.0-1.0-139.0","0","0","82072","","null","","","null","15","","NaN","","","","","","","","","","","","","",""
"","response","","html-keyboard-response","107","170570","0.0-1.0-140.0","0","0","82072","","604","","","75","15","","","1","15","training","adjacent","DC","4","3","P.jpg","M.jpg","0","0","1","",""
"","feedback","","html-keyboard-response","108","171575","0.0-1.0-141.0-0.0","0","0","82072","","null","","","null","15","","","","","","","","","","","","","","","",""
"","ITI","","html-keyboard-response","109","172578","0.0-1.0-144.0","0","0","82072","","null","","","null","15","","","","","","","","","","","","","","","NaN",""
"","S1","","html-keyboard-response","110","172832","0.0-1.0-146.0","0","0","82072","","null","","","null","16","","","","","","","","","","","","","","","",""
"","ISI","","html-keyboard-response","111","174835","0.0-1.0-147.0","0","0","82072","","null","","","null","16","NaN","","","","","","","","","","","","","","",""
"","S2","","html-keyboard-response","112","175092","0.0-1.0-148.0","0","0","82072","","null","","","null","16","","NaN","","","","","","","","","","","","","",""
"","response","","html-keyboard-response","113","175545","0.0-1.0-149.0","0","0","82072","","450","","","68","16","","","1","16","training","adjacent","GF","7","6","L.jpg","O.jpg","1","0","0","",""
"","feedback","","html-keyboard-response","114","176548","0.0-1.0-150.0-0.0","0","0","82072","","null","","","null","16","","","","","","","","","","","","","","","",""
"","time_out","","html-keyboard-response","115","178552","0.0-1.0-152.0-0.0","0","0","82072","","null","","","null","16","","","","","","","","","","","","","","","",""
"","ITI","","html-keyboard-response","116","179554","0.0-1.0-153.0","0","0","82072","","null","","","null","16","","","","","","","","","","","","","","","NaN",""
"","S1","","html-keyboard-response","117","179807","0.0-1.0-155.0","0","0","82072","","null","","","null","17","","","","","","","","","","","","","","","",""
"","ISI","","html-keyboard-response","118","181809","0.0-1.0-156.0","0","0","82072","","null","","","null","17","NaN","","","","","","","","","","","","","","",""
"","S2","","html-keyboard-response","119","182065","0.0-1.0-157.0","0","0","82072","","null","","","null","17","","NaN","","","","","","","","","","","","","",""
"","response","","html-keyboard-response","120","182554","0.0-1.0-158.0","0","0","82072","","484","","","75","17","","","1","17","training","adjacent","BA","2","1","N.jpg","R.jpg","0","0","1","",""
"","feedback","","html-keyboard-response","121","183558","0.0-1.0-159.0-0.0","0","0","82072","","null","","","null","17","","","","","","","","","","","","","","","",""
"","ITI","","html-keyboard-response","122","184561","0.0-1.0-162.0","0","0","82072","","null","","","null","17","","","","","","","","","","","","","","","NaN",""
"","S1","","html-keyboard-response","123","184816","0.0-1.0-164.0","0","0","82072","","null","","","null","18","","","","","","","","","","","","","","","",""
"","ISI","","html-keyboard-response","124","186820","0.0-1.0-165.0","0","0","82072","","null","","","null","18","NaN","","","","","","","","","","","","","","",""
"","S2","","html-keyboard-response","125","187074","0.0-1.0-166.0","0","0","82072","","null","","","null","18","","NaN","","","","","","","","","","","","","",""
"","response","","html-keyboard-response","126","187432","0.0-1.0-167.0","0","0","82072","","356","","","68","18","","","1","18","training","adjacent","FG","6","7","O.jpg","L.jpg","1","1","1","",""
"","feedback","","html-keyboard-response","127","188437","0.0-1.0-168.0-0.0","0","0","82072","","null","","","null","18","","","","","","","","","","","","","","","",""
"","ITI","","html-keyboard-response","128","189440","0.0-1.0-171.0","0","0","82072","","null","","","null","18","","","","","","","","","","","","","","","NaN",""
"","S1","","html-keyboard-response","129","189693","0.0-1.0-173.0","0","0","82072","","null","","","null","19","","","","","","","","","","","","","","","",""
"","ISI","","html-keyboard-response","130","191698","0.0-1.0-174.0","0","0","82072","","null","","","null","19","NaN","","","","","","","","","","","","","","",""
"","S2","","html-keyboard-response","131","191951","0.0-1.0-175.0","0","0","82072","","null","","","null","19","","NaN","","","","","","","","","","","","","",""
"","response","","html-keyboard-response","132","192353","0.0-1.0-176.0","0","0","82072","","398","","","75","19","","","1","19","training","adjacent","GF","7","6","L.jpg","O.jpg","0","0","1","",""
"","feedback","","html-keyboard-response","133","193355","0.0-1.0-177.0-0.0","0","0","82072","","null","","","null","19","","","","","","","","","","","","","","","",""
"","ITI","","html-keyboard-response","134","194360","0.0-1.0-180.0","0","0","82072","","null","","","null","19","","","","","","","","","","","","","","","NaN",""
"","S1","","html-keyboard-response","135","194615","0.0-1.0-182.0","0","0","82072","","null","","","null","20","","","","","","","","","","","","","","","",""
"","ISI","","html-keyboard-response","136","196619","0.0-1.0-183.0","0","0","82072","","null","","","null","20","NaN","","","","","","","","","","","","","","",""
"","S2","","html-keyboard-response","137","196872","0.0-1.0-184.0","0","0","82072","","null","","","null","20","","NaN","","","","","","","","","","","","","",""
"","response","","html-keyboard-response","138","197216","0.0-1.0-185.0","0","0","82072","","341","","","68","20","","","1","20","training","adjacent","AB","1","2","R.jpg","N.jpg","1","1","1","",""
"","feedback","","html-keyboard-response","139","198221","0.0-1.0-186.0-0.0","0","0","82072","","null","","","null","20","","","","","","","","","","","","","","","",""
"","ITI","","html-keyboard-response","140","199227","0.0-1.0-189.0","0","0","82072","","null","","","null","20","","","","","","","","","","","","","","","NaN",""
"","S1","","html-keyboard-response","141","199481","0.0-1.0-191.0","0","0","82072","","null","","","null","21","","","","","","","","","","","","","","","",""
"","ISI","","html-keyboard-response","142","201485","0.0-1.0-192.0","0","0","82072","","null","","","null","21","NaN","","","","","","","","","","","","","","",""
"","S2","","html-keyboard-response","143","201739","0.0-1.0-193.0","0","0","82072","","null","","","null","21","","NaN","","","","","","","","","","","","","",""
"","response","","html-keyboard-response","144","202125","0.0-1.0-194.0","0","0","82072","","383","","","75","21","","","1","21","training","adjacent","CB","3","2","M.jpg","N.jpg","0","0","1","",""
"","feedback","","html-keyboard-response","145","203131","0.0-1.0-195.0-0.0","0","0","82072","","null","","","null","21","","","","","","","","","","","","","","","",""
"","ITI","","html-keyboard-response","146","204135","0.0-1.0-198.0","0","0","82072","","null","","","null","21","","","","","","","","","","","","","","","NaN",""
"","S1","","html-keyboard-response","147","204393","0.0-1.0-200.0","0","0","82072","","null","","","null","22","","","","","","","","","","","","","","","",""
"","ISI","","html-keyboard-response","148","206412","0.0-1.0-201.0","0","0","82072","","null","","","null","22","NaN","","","","","","","","","","","","","","",""
"","S2","","html-keyboard-response","149","206667","0.0-1.0-202.0","0","0","82072","","null","","","null","22","","NaN","","","","","","","","","","","","","",""
"","response","","html-keyboard-response","150","207082","0.0-1.0-203.0","0","0","82072","","412","","","75","22","","","1","22","training","adjacent","CB","3","2","M.jpg","N.jpg","0","0","1","",""
"","feedback","","html-keyboard-response","151","208087","0.0-1.0-204.0-0.0","0","0","82072","","null","","","null","22","","","","","","","","","","","","","","","",""
"","ITI","","html-keyboard-response","152","209090","0.0-1.0-207.0","0","0","82072","","null","","","null","22","","","","","","","","","","","","","","","NaN",""
"","S1","","html-keyboard-response","153","209347","0.0-1.0-209.0","0","0","82072","","null","","","null","23","","","","","","","","","","","","","","","",""
"","ISI","","html-keyboard-response","154","211351","0.0-1.0-210.0","0","0","82072","","null","","","null","23","NaN","","","","","","","","","","","","","","",""
"","S2","","html-keyboard-response","155","211606","0.0-1.0-211.0","0","0","82072","","null","","","null","23","","NaN","","","","","","","","","","","","","",""
"","response","","html-keyboard-response","156","212032","0.0-1.0-212.0","0","0","82072","","422","","","68","23","","","1","23","training","adjacent","FE","6","5","O.jpg","Q.jpg","1","0","0","",""
"","feedback","","html-keyboard-response","157","213036","0.0-1.0-213.0-0.0","0","0","82072","","null","","","null","23","","","","","","","","","","","","","","","",""
"","time_out","","html-keyboard-response","158","215041","0.0-1.0-215.0-0.0","0","0","82072","","null","","","null","23","","","","","","","","","","","","","","","",""
"","ITI","","html-keyboard-response","159","216044","0.0-1.0-216.0","0","0","82072","","null","","","null","23","","","","","","","","","","","","","","","NaN",""
"","S1","","html-keyboard-response","160","216298","0.0-1.0-218.0","0","0","82072","","null","","","null","24","","","","","","","","","","","","","","","",""
"","ISI","","html-keyboard-response","161","218303","0.0-1.0-219.0","0","0","82072","","null","","","null","24","NaN","","","","","","","","","","","","","","",""
"","S2","","html-keyboard-response","162","218557","0.0-1.0-220.0","0","0","82072","","null","","","null","24","","NaN","","","","","","","","","","","","","",""
"","response","","html-keyboard-response","163","218971","0.0-1.0-221.0","0","0","82072","","411","","","68","24","","","1","24","training","adjacent","CD","3","4","M.jpg","P.jpg","1","1","1","",""
"","feedback","","html-keyboard-response","164","219976","0.0-1.0-222.0-0.0","0","0","82072","","null","","","null","24","","","","","","","","","","","","","","","",""
"","ITI","","html-keyboard-response","165","220979","0.0-1.0-225.0","0","0","82072","","null","","","null","24","","","","","","","","","","","","","","","NaN",""
"","S1","","html-keyboard-response","166","221233","0.0-1.0-227.0","0","0","82072","","null","","","null","25","","","","","","","","","","","","","","","",""
"","ISI","","html-keyboard-response","167","223237","0.0-1.0-228.0","0","0","82072","","null","","","null","25","NaN","","","","","","","","","","","","","","",""
"","S2","","html-keyboard-response","168","223490","0.0-1.0-229.0","0","0","82072","","null","","","null","25","","NaN","","","","","","","","","","","","","",""
"","response","","html-keyboard-response","169","223620","0.0-1.0-230.0","0","0","82072","","126","","","68","25","","","1","25","training","adjacent","AB","1","2","R.jpg","N.jpg","1","1","1","",""
"","feedback","","html-keyboard-response","170","224625","0.0-1.0-231.0-0.0","0","0","82072","","null","","","null","25","","","","","","","","","","","","","","","",""
"","ITI","","html-keyboard-response","171","225628","0.0-1.0-234.0","0","0","82072","","null","","","null","25","","","","","","","","","","","","","","","NaN",""
"","S1","","html-keyboard-response","172","225881","0.0-1.0-236.0","0","0","82072","","null","","","null","26","","","","","","","","","","","","","","","",""
"","ISI","","html-keyboard-response","173","227886","0.0-1.0-237.0","0","0","82072","","null","","","null","26","NaN","","","","","","","","","","","","","","",""
"","S2","","html-keyboard-response","174","228158","0.0-1.0-238.0","0","0","82072","","null","","","null","26","","NaN","","","","","","","","","","","","","",""
"","response","","html-keyboard-response","175","228925","0.0-1.0-239.0","0","0","82072","","762","","","75","26","","","1","26","training","adjacent","DE","4","5","P.jpg","Q.jpg","0","1","0","",""
"","feedback","","html-keyboard-response","176","229928","0.0-1.0-240.0-0.0","0","0","82072","","null","","","null","26","","","","","","","","","","","","","","","",""
"","time_out","","html-keyboard-response","177","231932","0.0-1.0-242.0-0.0","0","0","82072","","null","","","null","26","","","","","","","","","","","","","","","",""
"","ITI","","html-keyboard-response","178","232938","0.0-1.0-243.0","0","0","82072","","null","","","null","26","","","","","","","","","","","","","","","NaN",""
"","S1","","html-keyboard-response","179","233194","0.0-1.0-245.0","0","0","82072","","null","","","null","27","","","","","","","","","","","","","","","",""
"","ISI","","html-keyboard-response","180","235200","0.0-1.0-246.0","0","0","82072","","null","","","null","27","NaN","","","","","","","","","","","","","","",""
"","S2","","html-keyboard-response","181","235455","0.0-1.0-247.0","0","0","82072","","null","","","null","27","","NaN","","","","","","","","","","","","","",""
"","response","","html-keyboard-response","182","236060","0.0-1.0-248.0","0","0","82072","","602","","","75","27","","","1","27","training","adjacent","EF","5","6","Q.jpg","O.jpg","0","1","0","",""
"","feedback","","html-keyboard-response","183","237064","0.0-1.0-249.0-0.0","0","0","82072","","null","","","null","27","","","","","","","","","","","","","","","",""
"","time_out","","html-keyboard-response","184","239068","0.0-1.0-251.0-0.0","0","0","82072","","null","","","null","27","","","","","","","","","","","","","","","",""
"","ITI","","html-keyboard-response","185","240070","0.0-1.0-252.0","0","0","82072","","null","","","null","27","","","","","","","","","","","","","","","NaN",""
"","S1","","html-keyboard-response","186","240324","0.0-1.0-254.0","0","0","82072","","null","","","null","28","","","","","","","","","","","","","","","",""
"","ISI","","html-keyboard-response","187","242327","0.0-1.0-255.0","0","0","82072","","null","","","null","28","NaN","","","","","","","","","","","","","","",""
"","S2","","html-keyboard-response","188","242581","0.0-1.0-256.0","0","0","82072","","null","","","null","28","","NaN","","","","","","","","","","","","","",""
"","response","","html-keyboard-response","189","243196","0.0-1.0-257.0","0","0","82072","","612","","","75","28","","","1","28","training","adjacent","ED","5","4","Q.jpg","P.jpg","0","0","1","",""
"","feedback","","html-keyboard-response","190","244201","0.0-1.0-258.0-0.0","0","0","82072","","null","","","null","28","","","","","","","","","","","","","","","",""
"","ITI","","html-keyboard-response","191","245206","0.0-1.0-261.0","0","0","82072","","null","","","null","28","","","","","","","","","","","","","","","NaN",""
"","S1","","html-keyboard-response","192","245461","0.0-1.0-263.0","0","0","82072","","null","","","null","29","","","","","","","","","","","","","","","",""
"","ISI","","html-keyboard-response","193","247465","0.0-1.0-264.0","0","0","82072","","null","","","null","29","NaN","","","","","","","","","","","","","","",""
"","S2","","html-keyboard-response","194","247718","0.0-1.0-265.0","0","0","82072","","null","","","null","29","","NaN","","","","","","","","","","","","","",""
"","response","","html-keyboard-response","195","248598","0.0-1.0-266.0","0","0","82072","","876","","","75","29","","","1","29","training","adjacent","EF","5","6","Q.jpg","O.jpg","0","1","0","",""
"","feedback","","html-keyboard-response","196","249601","0.0-1.0-267.0-0.0","0","0","82072","","null","","","null","29","","","","","","","","","","","","","","","",""
"","time_out","","html-keyboard-response","197","251606","0.0-1.0-269.0-0.0","0","0","82072","","null","","","null","29","","","","","","","","","","","","","","","",""
"","ITI","","html-keyboard-response","198","252610","0.0-1.0-270.0","0","0","82072","","null","","","null","29","","","","","","","","","","","","","","","NaN",""
"","S1","","html-keyboard-response","199","252865","0.0-1.0-272.0","0","0","82072","","null","","","null","30","","","","","","","","","","","","","","","",""
"","ISI","","html-keyboard-response","200","254869","0.0-1.0-273.0","0","0","82072","","null","","","null","30","NaN","","","","","","","","","","","","","","",""
"","S2","","html-keyboard-response","201","255121","0.0-1.0-274.0","0","0","82072","","null","","","null","30","","NaN","","","","","","","","","","","","","",""
"","response","","html-keyboard-response","202","255762","0.0-1.0-275.0","0","0","82072","","638","","","75","30","","","1","30","training","adjacent","FE","6","5","O.jpg","Q.jpg","0","0","1","",""
"","feedback","","html-keyboard-response","203","256767","0.0-1.0-276.0-0.0","0","0","82072","","null","","","null","30","","","","","","","","","","","","","","","",""
"","ITI","","html-keyboard-response","204","257773","0.0-1.0-279.0","0","0","82072","","null","","","null","30","","","","","","","","","","","","","","","NaN",""
"","S1","","html-keyboard-response","205","258030","0.0-1.0-281.0","0","0","82072","","null","","","null","31","","","","","","","","","","","","","","","",""
"","ISI","","html-keyboard-response","206","260033","0.0-1.0-282.0","0","0","82072","","null","","","null","31","NaN","","","","","","","","","","","","","","",""
"","S2","","html-keyboard-response","207","260287","0.0-1.0-283.0","0","0","82072","","null","","","null","31","","NaN","","","","","","","","","","","","","",""
"","response","","html-keyboard-response","208","260636","0.0-1.0-284.0","0","0","82072","","347","","","68","31","","","1","31","training","adjacent","BC","2","3","N.jpg","M.jpg","1","1","1","",""
"","feedback","","html-keyboard-response","209","261639","0.0-1.0-285.0-0.0","0","0","82072","","null","","","null","31","","","","","","","","","","","","","","","",""
"","ITI","","html-keyboard-response","210","262642","0.0-1.0-288.0","0","0","82072","","null","","","null","31","","","","","","","","","","","","","","","NaN",""
"","S1","","html-keyboard-response","211","262898","0.0-1.0-290.0","0","0","82072","","null","","","null","32","","","","","","","","","","","","","","","",""
"","ISI","","html-keyboard-response","212","264901","0.0-1.0-291.0","0","0","82072","","null","","","null","32","NaN","","","","","","","","","","","","","","",""
"","S2","","html-keyboard-response","213","265156","0.0-1.0-292.0","0","0","82072","","null","","","null","32","","NaN","","","","","","","","","","","","","",""
"","response","","html-keyboard-response","214","265606","0.0-1.0-293.0","0","0","82072","","448","","","68","32","","","1","32","training","adjacent","AB","1","2","R.jpg","N.jpg","1","1","1","",""
"","feedback","","html-keyboard-response","215","266612","0.0-1.0-294.0-0.0","0","0","82072","","null","","","null","32","","","","","","","","","","","","","","","",""
"","ITI","","html-keyboard-response","216","267616","0.0-1.0-297.0","0","0","82072","","null","","","null","32","","","","","","","","","","","","","","","NaN",""
"","S1","","html-keyboard-response","217","267868","0.0-1.0-299.0","0","0","82072","","null","","","null","33","","","","","","","","","","","","","","","",""
"","ISI","","html-keyboard-response","218","269871","0.0-1.0-300.0","0","0","82072","","null","","","null","33","NaN","","","","","","","","","","","","","","",""
"","S2","","html-keyboard-response","219","270126","0.0-1.0-301.0","0","0","82072","","null","","","null","33","","NaN","","","","","","","","","","","","","",""
"","response","","html-keyboard-response","220","270863","0.0-1.0-302.0","0","0","82072","","734","","","68","33","","","1","33","training","adjacent","BC","2","3","N.jpg","M.jpg","1","1","1","",""
"","feedback","","html-keyboard-response","221","271868","0.0-1.0-303.0-0.0","0","0","82072","","null","","","null","33","","","","","","","","","","","","","","","",""
"","ITI","","html-keyboard-response","222","272872","0.0-1.0-306.0","0","0","82072","","null","","","null","33","","","","","","","","","","","","","","","NaN",""
"","S1","","html-keyboard-response","223","273128","0.0-1.0-308.0","0","0","82072","","null","","","null","34","","","","","","","","","","","","","","","",""
"","ISI","","html-keyboard-response","224","275133","0.0-1.0-309.0","0","0","82072","","null","","","null","34","NaN","","","","","","","","","","","","","","",""
"","S2","","html-keyboard-response","225","275388","0.0-1.0-310.0","0","0","82072","","null","","","null","34","","NaN","","","","","","","","","","","","","",""
"","response","","html-keyboard-response","226","275891","0.0-1.0-311.0","0","0","82072","","500","","","68","34","","","1","34","training","adjacent","EF","5","6","Q.jpg","O.jpg","1","1","1","",""
"","feedback","","html-keyboard-response","227","276893","0.0-1.0-312.0-0.0","0","0","82072","","null","","","null","34","","","","","","","","","","","","","","","",""
"","ITI","","html-keyboard-response","228","277899","0.0-1.0-315.0","0","0","82072","","null","","","null","34","","","","","","","","","","","","","","","NaN",""
"","S1","","html-keyboard-response","229","278152","0.0-1.0-317.0","0","0","82072","","null","","","null","35","","","","","","","","","","","","","","","",""
"","ISI","","html-keyboard-response","230","280158","0.0-1.0-318.0","0","0","82072","","null","","","null","35","NaN","","","","","","","","","","","","","","",""
"","S2","","html-keyboard-response","231","280412","0.0-1.0-319.0","0","0","82072","","null","","","null","35","","NaN","","","","","","","","","","","","","",""
"","response","","html-keyboard-response","232","280711","0.0-1.0-320.0","0","0","82072","","294","","","75","35","","","1","35","training","adjacent","GF","7","6","L.jpg","O.jpg","0","0","1","",""
"","feedback","","html-keyboard-response","233","281716","0.0-1.0-321.0-0.0","0","0","82072","","null","","","null","35","","","","","","","","","","","","","","","",""
"","ITI","","html-keyboard-response","234","282720","0.0-1.0-324.0","0","0","82072","","null","","","null","35","","","","","","","","","","","","","","","NaN",""
"","S1","","html-keyboard-response","235","282974","0.0-1.0-326.0","0","0","82072","","null","","","null","36","","","","","","","","","","","","","","","",""
"","ISI","","html-keyboard-response","236","284978","0.0-1.0-327.0","0","0","82072","","null","","","null","36","NaN","","","","","","","","","","","","","","",""
"","S2","","html-keyboard-response","237","285232","0.0-1.0-328.0","0","0","82072","","null","","","null","36","","NaN","","","","","","","","","","","","","",""
"","response","","html-keyboard-response","238","285733","0.0-1.0-329.0","0","0","82072","","497","","","68","36","","","1","36","training","adjacent","BC","2","3","N.jpg","M.jpg","1","1","1","",""
"","feedback","","html-keyboard-response","239","286736","0.0-1.0-330.0-0.0","0","0","82072","","null","","","null","36","","","","","","","","","","","","","","","",""
"","ITI","","html-keyboard-response","240","287739","0.0-1.0-333.0","0","0","82072","","null","","","null","36","","","","","","","","","","","","","","","NaN",""
"","S1","","html-keyboard-response","241","287993","0.0-1.0-335.0","0","0","82072","","null","","","null","37","","","","","","","","","","","","","","","",""
"","ISI","","html-keyboard-response","242","289996","0.0-1.0-336.0","0","0","82072","","null","","","null","37","NaN","","","","","","","","","","","","","","",""
"","S2","","html-keyboard-response","243","290253","0.0-1.0-337.0","0","0","82072","","null","","","null","37","","NaN","","","","","","","","","","","","","",""
"","response","","html-keyboard-response","244","290650","0.0-1.0-338.0","0","0","82072","","394","","","75","37","","","1","37","training","adjacent","BA","2","1","N.jpg","R.jpg","0","0","1","",""
"","feedback","","html-keyboard-response","245","291655","0.0-1.0-339.0-0.0","0","0","82072","","null","","","null","37","","","","","","","","","","","","","","","",""
"","ITI","","html-keyboard-response","246","292659","0.0-1.0-342.0","0","0","82072","","null","","","null","37","","","","","","","","","","","","","","","NaN",""
"","S1","","html-keyboard-response","247","292914","0.0-1.0-344.0","0","0","82072","","null","","","null","38","","","","","","","","","","","","","","","",""
"","ISI","","html-keyboard-response","248","294918","0.0-1.0-345.0","0","0","82072","","null","","","null","38","NaN","","","","","","","","","","","","","","",""
"","S2","","html-keyboard-response","249","295172","0.0-1.0-346.0","0","0","82072","","null","","","null","38","","NaN","","","","","","","","","","","","","",""
"","response","","html-keyboard-response","250","295616","0.0-1.0-347.0","0","0","82072","","440","","","68","38","","","1","38","training","adjacent","BC","2","3","N.jpg","M.jpg","1","1","1","",""
"","feedback","","html-keyboard-response","251","296619","0.0-1.0-348.0-0.0","0","0","82072","","null","","","null","38","","","","","","","","","","","","","","","",""
"","ITI","","html-keyboard-response","252","297623","0.0-1.0-351.0","0","0","82072","","null","","","null","38","","","","","","","","","","","","","","","NaN",""
"","S1","","html-keyboard-response","253","297876","0.0-1.0-353.0","0","0","82072","","null","","","null","39","","","","","","","","","","","","","","","",""
"","ISI","","html-keyboard-response","254","299878","0.0-1.0-354.0","0","0","82072","","null","","","null","39","NaN","","","","","","","","","","","","","","",""
"","S2","","html-keyboard-response","255","300132","0.0-1.0-355.0","0","0","82072","","null","","","null","39","","NaN","","","","","","","","","","","","","",""
"","response","","html-keyboard-response","256","300531","0.0-1.0-356.0","0","0","82072","","397","","","68","39","","","1","39","training","adjacent","ED","5","4","Q.jpg","P.jpg","1","0","0","",""
"","feedback","","html-keyboard-response","257","301535","0.0-1.0-357.0-0.0","0","0","82072","","null","","","null","39","","","","","","","","","","","","","","","",""
"","time_out","","html-keyboard-response","258","303540","0.0-1.0-359.0-0.0","0","0","82072","","null","","","null","39","","","","","","","","","","","","","","","",""
"","ITI","","html-keyboard-response","259","304544","0.0-1.0-360.0","0","0","82072","","null","","","null","39","","","","","","","","","","","","","","","NaN",""
"","S1","","html-keyboard-response","260","304798","0.0-1.0-362.0","0","0","82072","","null","","","null","40","","","","","","","","","","","","","","","",""
"","ISI","","html-keyboard-response","261","306800","0.0-1.0-363.0","0","0","82072","","null","","","null","40","NaN","","","","","","","","","","","","","","",""
"","S2","","html-keyboard-response","262","307052","0.0-1.0-364.0","0","0","82072","","null","","","null","40","","NaN","","","","","","","","","","","","","",""
"","response","","html-keyboard-response","263","307670","0.0-1.0-365.0","0","0","82072","","617","","","75","40","","","1","40","training","adjacent","ED","5","4","Q.jpg","P.jpg","0","0","1","",""
"","feedback","","html-keyboard-response","264","308674","0.0-1.0-366.0-0.0","0","0","82072","","null","","","null","40","","","","","","","","","","","","","","","",""
"","ITI","","html-keyboard-response","265","309681","0.0-1.0-369.0","0","0","82072","","null","","","null","40","","","","","","","","","","","","","","","NaN",""
"","S1","","html-keyboard-response","266","309935","0.0-1.0-371.0","0","0","82072","","null","","","null","41","","","","","","","","","","","","","","","",""
"","ISI","","html-keyboard-response","267","311938","0.0-1.0-372.0","0","0","82072","","null","","","null","41","NaN","","","","","","","","","","","","","","",""
"","S2","","html-keyboard-response","268","312192","0.0-1.0-373.0","0","0","82072","","null","","","null","41","","NaN","","","","","","","","","","","","","",""
"","response","","html-keyboard-response","269","312758","0.0-1.0-374.0","0","0","82072","","563","","","75","41","","","1","41","training","adjacent","BA","2","1","N.jpg","R.jpg","0","0","1","",""
"","feedback","","html-keyboard-response","270","313775","0.0-1.0-375.0-0.0","0","0","82072","","null","","","null","41","","","","","","","","","","","","","","","",""
"","ITI","","html-keyboard-response","271","314778","0.0-1.0-378.0","0","0","82072","","null","","","null","41","","","","","","","","","","","","","","","NaN",""
"","S1","","html-keyboard-response","272","315031","0.0-1.0-380.0","0","0","82072","","null","","","null","42","","","","","","","","","","","","","","","",""
"","ISI","","html-keyboard-response","273","317035","0.0-1.0-381.0","0","0","82072","","null","","","null","42","NaN","","","","","","","","","","","","","","",""
"","S2","","html-keyboard-response","274","317290","0.0-1.0-382.0","0","0","82072","","null","","","null","42","","NaN","","","","","","","","","","","","","",""
"","response","","html-keyboard-response","275","318044","0.0-1.0-383.0","0","0","82072","","751","","","68","42","","","1","42","training","adjacent","DE","4","5","P.jpg","Q.jpg","1","1","1","",""
"","feedback","","html-keyboard-response","276","319049","0.0-1.0-384.0-0.0","0","0","82072","","null","","","null","42","","","","","","","","","","","","","","","",""
"","ITI","","html-keyboard-response","277","320053","0.0-1.0-387.0","0","0","82072","","null","","","null","42","","","","","","","","","","","","","","","NaN",""
"","S1","","html-keyboard-response","278","320307","0.0-1.0-389.0","0","0","82072","","null","","","null","43","","","","","","","","","","","","","","","",""
"","ISI","","html-keyboard-response","279","322309","0.0-1.0-390.0","0","0","82072","","null","","","null","43","NaN","","","","","","","","","","","","","","",""
"","S2","","html-keyboard-response","280","322562","0.0-1.0-391.0","0","0","82072","","null","","","null","43","","NaN","","","","","","","","","","","","","",""
"","response","","html-keyboard-response","281","322833","0.0-1.0-392.0","0","0","82072","","270","","","68","43","","","1","43","training","adjacent","DC","4","3","P.jpg","M.jpg","1","0","0","",""
"","feedback","","html-keyboard-response","282","323836","0.0-1.0-393.0-0.0","0","0","82072","","null","","","null","43","","","","","","","","","","","","","","","",""
"","time_out","","html-keyboard-response","283","325846","0.0-1.0-395.0-0.0","0","0","82072","","null","","","null","43","","","","","","","","","","","","","","","",""
"","ITI","","html-keyboard-response","284","326850","0.0-1.0-396.0","0","0","82072","","null","","","null","43","","","","","","","","","","","","","","","NaN",""
"","S1","","html-keyboard-response","285","327104","0.0-1.0-398.0","0","0","82072","","null","","","null","44","","","","","","","","","","","","","","","",""
"","ISI","","html-keyboard-response","286","329108","0.0-1.0-399.0","0","0","82072","","null","","","null","44","NaN","","","","","","","","","","","","","","",""
"","S2","","html-keyboard-response","287","329364","0.0-1.0-400.0","0","0","82072","","null","","","null","44","","NaN","","","","","","","","","","","","","",""
"","response","","html-keyboard-response","288","330076","0.0-1.0-401.0","0","0","82072","","710","","","75","44","","","1","44","training","adjacent","FE","6","5","O.jpg","Q.jpg","0","0","1","",""
"","feedback","","html-keyboard-response","289","331080","0.0-1.0-402.0-0.0","0","0","82072","","null","","","null","44","","","","","","","","","","","","","","","",""
"","ITI","","html-keyboard-response","290","332083","0.0-1.0-405.0","0","0","82072","","null","","","null","44","","","","","","","","","","","","","","","NaN",""
"","S1","","html-keyboard-response","291","332352","0.0-1.0-407.0","0","0","82072","","null","","","null","45","","","","","","","","","","","","","","","",""
"","ISI","","html-keyboard-response","292","334356","0.0-1.0-408.0","0","0","82072","","null","","","null","45","NaN","","","","","","","","","","","","","","",""
"","S2","","html-keyboard-response","293","334611","0.0-1.0-409.0","0","0","82072","","null","","","null","45","","NaN","","","","","","","","","","","","","",""
"","response","","html-keyboard-response","294","335227","0.0-1.0-410.0","0","0","82072","","612","","","75","45","","","1","45","training","adjacent","CD","3","4","M.jpg","P.jpg","0","1","0","",""
"","feedback","","html-keyboard-response","295","336232","0.0-1.0-411.0-0.0","0","0","82072","","null","","","null","45","","","","","","","","","","","","","","","",""
"","time_out","","html-keyboard-response","296","338236","0.0-1.0-413.0-0.0","0","0","82072","","null","","","null","45","","","","","","","","","","","","","","","",""
"","ITI","","html-keyboard-response","297","339240","0.0-1.0-414.0","0","0","82072","","null","","","null","45","","","","","","","","","","","","","","","NaN",""
"","S1","","html-keyboard-response","298","339494","0.0-1.0-416.0","0","0","82072","","null","","","null","46","","","","","","","","","","","","","","","",""
"","ISI","","html-keyboard-response","299","341497","0.0-1.0-417.0","0","0","82072","","null","","","null","46","NaN","","","","","","","","","","","","","","",""
"","S2","","html-keyboard-response","300","341750","0.0-1.0-418.0","0","0","82072","","null","","","null","46","","NaN","","","","","","","","","","","","","",""
"","response","","html-keyboard-response","301","342027","0.0-1.0-419.0","0","0","82072","","275","","","75","46","","","1","46","training","adjacent","ED","5","4","Q.jpg","P.jpg","0","0","1","",""
"","feedback","","html-keyboard-response","302","343031","0.0-1.0-420.0-0.0","0","0","82072","","null","","","null","46","","","","","","","","","","","","","","","",""
"","ITI","","html-keyboard-response","303","344035","0.0-1.0-423.0","0","0","82072","","null","","","null","46","","","","","","","","","","","","","","","NaN",""
"","S1","","html-keyboard-response","304","344289","0.0-1.0-425.0","0","0","82072","","null","","","null","47","","","","","","","","","","","","","","","",""
"","ISI","","html-keyboard-response","305","346294","0.0-1.0-426.0","0","0","82072","","null","","","null","47","NaN","","","","","","","","","","","","","","",""
"","S2","","html-keyboard-response","306","346548","0.0-1.0-427.0","0","0","82072","","null","","","null","47","","NaN","","","","","","","","","","","","","",""
"","response","","html-keyboard-response","307","347098","0.0-1.0-428.0","0","0","82072","","545","","","68","47","","","1","47","training","adjacent","DC","4","3","P.jpg","M.jpg","1","0","0","",""
"","feedback","","html-keyboard-response","308","348103","0.0-1.0-429.0-0.0","0","0","82072","","null","","","null","47","","","","","","","","","","","","","","","",""
"","time_out","","html-keyboard-response","309","350108","0.0-1.0-431.0-0.0","0","0","82072","","null","","","null","47","","","","","","","","","","","","","","","",""
"","ITI","","html-keyboard-response","310","351111","0.0-1.0-432.0","0","0","82072","","null","","","null","47","","","","","","","","","","","","","","","NaN",""
"","block_over","","html-keyboard-response","311","381137","0.0-1.0-433.0-0.0","0","0","82072","","30020","","","32","47","","","","","","","","","","","","","","","",""
"","S1","","html-keyboard-response","312","381391","0.0-1.0-434.0","0","0","82072","","null","","","null","48","","","","","","","","","","","","","","","",""
"","ISI","","html-keyboard-response","313","383397","0.0-1.0-435.0","0","0","82072","","null","","","null","48","NaN","","","","","","","","","","","","","","",""
"","S2","","html-keyboard-response","314","383653","0.0-1.0-436.0","0","0","82072","","null","","","null","48","","NaN","","","","","","","","","","","","","",""
"","response","","html-keyboard-response","315","385658","0.0-1.0-437.0","0","0","82072","","null","","","null","48","","","2","48","training","adjacent","AB","1","2","R.jpg","N.jpg","NaN","1","0","",""
"","too_slow_prompt","","html-keyboard-response","316","386662","0.0-1.0-439.0-0.0","1","0","82072","","null","","","null","","","","","","","","","","","","","","","","",""
"","time_out","","html-keyboard-response","317","388665","0.0-1.0-440.0-0.0","0","0","82072","","null","","","null","48","","","","","","","","","","","","","","","",""
"","ITI","","html-keyboard-response","318","389669","0.0-1.0-441.0","0","0","82072","","null","","","null","48","","","","","","","","","","","","","","","NaN",""
"","S1","","html-keyboard-response","319","389923","0.0-1.0-443.0","0","0","82072","","null","","","null","49","","","","","","","","","","","","","","","",""
"","ISI","","html-keyboard-response","320","391926","0.0-1.0-444.0","0","0","82072","","null","","","null","49","NaN","","","","","","","","","","","","","","",""
"","S2","","html-keyboard-response","321","392179","0.0-1.0-445.0","0","0","82072","","null","","","null","49","","NaN","","","","","","","","","","","","","",""
"","response","","html-keyboard-response","322","392402","0.0-1.0-446.0","0","0","82072","","218","","","68","49","","","2","49","training","adjacent","DC","4","3","P.jpg","M.jpg","1","0","0","",""
"","feedback","","html-keyboard-response","323","393412","0.0-1.0-447.0-0.0","0","0","82072","","null","","","null","49","","","","","","","","","","","","","","","",""
"","time_out","","html-keyboard-response","324","395440","0.0-1.0-449.0-0.0","0","0","82072","","null","","","null","49","","","","","","","","","","","","","","","",""
"","ITI","","html-keyboard-response","325","396445","0.0-1.0-450.0","0","0","82072","","null","","","null","49","","","","","","","","","","","","","","","NaN",""
"","S1","","html-keyboard-response","326","396701","0.0-1.0-452.0","0","0","82072","","null","","","null","50","","","","","","","","","","","","","","","",""
"","ISI","","html-keyboard-response","327","398705","0.0-1.0-453.0","0","0","82072","","132","","","68","50","d","","","","","","","","","","","","","","",""
"","S2","","html-keyboard-response","328","398960","0.0-1.0-454.0","0","0","82072","","null","","","null","50","","NaN","","","","","","","","","","","","","",""
"","response","","html-keyboard-response","329","399076","0.0-1.0-455.0","0","0","82072","","114","","","68","50","","","2","50","training","adjacent","BC","2","3","N.jpg","M.jpg","1","1","1","",""
"","feedback","","html-keyboard-response","330","400079","0.0-1.0-456.0-0.0","0","0","82072","","null","","","null","50","","","","","","","","","","","","","","","",""
"","ITI","","html-keyboard-response","331","401088","0.0-1.0-459.0","0","0","82072","","null","","","null","50","","","","","","","","","","","","","","","NaN",""
"","S1","","html-keyboard-response","332","401342","0.0-1.0-461.0","0","0","82072","","null","","","null","51","","","","","","","","","","","","","","","",""
"","ISI","","html-keyboard-response","333","403346","0.0-1.0-462.0","0","0","82072","","null","","","null","51","NaN","","","","","","","","","","","","","","",""
"","S2","","html-keyboard-response","334","403600","0.0-1.0-463.0","0","0","82072","","null","","","null","51","","NaN","","","","","","","","","","","","","",""
"","response","","html-keyboard-response","335","405432","0.0-1.0-464.0","0","0","82072","","1828","","","75","51","","","2","51","training","adjacent","DC","4","3","P.jpg","M.jpg","0","0","1","",""
"","feedback","","html-keyboard-response","336","406436","0.0-1.0-465.0-0.0","0","0","82072","","null","","","null","51","","","","","","","","","","","","","","","",""
"","ITI","","html-keyboard-response","337","407439","0.0-1.0-468.0","0","0","82072","","null","","","null","51","","","","","","","","","","","","","","","NaN",""
"","S1","","html-keyboard-response","338","407693","0.0-1.0-470.0","0","0","82072","","null","","","null","52","","","","","","","","","","","","","","","",""
"","ISI","","html-keyboard-response","339","409696","0.0-1.0-471.0","0","0","82072","","null","","","null","52","NaN","","","","","","","","","","","","","","",""
"","S2","","html-keyboard-response","340","409950","0.0-1.0-472.0","0","0","82072","","156","","","68","52","","d","","","","","","","","","","","","","",""
"","response","","html-keyboard-response","341","410750","0.0-1.0-473.0","0","0","82072","","796","","","68","52","","","2","52","training","adjacent","FG","6","7","O.jpg","L.jpg","1","1","1","",""
"","feedback","","html-keyboard-response","342","411756","0.0-1.0-474.0-0.0","0","0","82072","","null","","","null","52","","","","","","","","","","","","","","","",""
"","ITI","","html-keyboard-response","343","412763","0.0-1.0-477.0","0","0","82072","","null","","","null","52","","","","","","","","","","","","","","","NaN",""
"","S1","","html-keyboard-response","344","413017","0.0-1.0-479.0","0","0","82072","","null","","","null","53","","","","","","","","","","","","","","","",""
"","ISI","","html-keyboard-response","345","415021","0.0-1.0-480.0","0","0","82072","","null","","","null","53","NaN","","","","","","","","","","","","","","",""
"","S2","","html-keyboard-response","346","415275","0.0-1.0-481.0","0","0","82072","","null","","","null","53","","NaN","","","","","","","","","","","","","",""
"","response","","html-keyboard-response","347","415510","0.0-1.0-482.0","0","0","82072","","232","","","75","53","","","2","53","training","adjacent","ED","5","4","Q.jpg","P.jpg","0","0","1","",""
"","feedback","","html-keyboard-response","348","416514","0.0-1.0-483.0-0.0","0","0","82072","","null","","","null","53","","","","","","","","","","","","","","","",""
"","ITI","","html-keyboard-response","349","417518","0.0-1.0-486.0","0","0","82072","","null","","","null","53","","","","","","","","","","","","","","","NaN",""
"","S1","","html-keyboard-response","350","417773","0.0-1.0-488.0","0","0","82072","","null","","","null","54","","","","","","","","","","","","","","","",""
"","ISI","","html-keyboard-response","351","419776","0.0-1.0-489.0","0","0","82072","","null","","","null","54","NaN","","","","","","","","","","","","","","",""
"","S2","","html-keyboard-response","352","420032","0.0-1.0-490.0","0","0","82072","","null","","","null","54","","NaN","","","","","","","","","","","","","",""
"","response","","html-keyboard-response","353","420468","0.0-1.0-491.0","0","0","82072","","433","","","68","54","","","2","54","training","adjacent","AB","1","2","R.jpg","N.jpg","1","1","1","",""
"","feedback","","html-keyboard-response","354","421471","0.0-1.0-492.0-0.0","0","0","82072","","null","","","null","54","","","","","","","","","","","","","","","",""
"","ITI","","html-keyboard-response","355","422476","0.0-1.0-495.0","0","0","82072","","null","","","null","54","","","","","","","","","","","","","","","NaN",""
"","S1","","html-keyboard-response","356","422732","0.0-1.0-497.0","0","0","82072","","null","","","null","55","","","","","","","","","","","","","","","",""
"","ISI","","html-keyboard-response","357","424737","0.0-1.0-498.0","0","0","82072","","null","","","null","55","NaN","","","","","","","","","","","","","","",""
"","S2","","html-keyboard-response","358","424992","0.0-1.0-499.0","0","0","82072","","null","","","null","55","","NaN","","","","","","","","","","","","","",""
"","response","","html-keyboard-response","359","425518","0.0-1.0-500.0","0","0","82072","","522","","","75","55","","","2","55","training","adjacent","BA","2","1","N.jpg","R.jpg","0","0","1","",""
"","feedback","","html-keyboard-response","360","426522","0.0-1.0-501.0-0.0","0","0","82072","","null","","","null","55","","","","","","","","","","","","","","","",""
"","ITI","","html-keyboard-response","361","427526","0.0-1.0-504.0","0","0","82072","","null","","","null","55","","","","","","","","","","","","","","","NaN",""
"","S1","","html-keyboard-response","362","427782","0.0-1.0-506.0","0","0","82072","","null","","","null","56","","","","","","","","","","","","","","","",""
"","ISI","","html-keyboard-response","363","429785","0.0-1.0-507.0","0","0","82072","","null","","","null","56","NaN","","","","","","","","","","","","","","",""
"","S2","","html-keyboard-response","364","430040","0.0-1.0-508.0","0","0","82072","","null","","","null","56","","NaN","","","","","","","","","","","","","",""
"","response","","html-keyboard-response","365","430754","0.0-1.0-509.0","0","0","82072","","709","","","68","56","","","2","56","training","adjacent","DE","4","5","P.jpg","Q.jpg","1","1","1","",""
"","feedback","","html-keyboard-response","366","431762","0.0-1.0-510.0-0.0","0","0","82072","","null","","","null","56","","","","","","","","","","","","","","","",""
"","ITI","","html-keyboard-response","367","432768","0.0-1.0-513.0","0","0","82072","","null","","","null","56","","","","","","","","","","","","","","","NaN",""
"","S1","","html-keyboard-response","368","433023","0.0-1.0-515.0","0","0","82072","","null","","","null","57","","","","","","","","","","","","","","","",""
"","ISI","","html-keyboard-response","369","435026","0.0-1.0-516.0","0","0","82072","","null","","","null","57","NaN","","","","","","","","","","","","","","",""
"","S2","","html-keyboard-response","370","435280","0.0-1.0-517.0","0","0","82072","","null","","","null","57","","NaN","","","","","","","","","","","","","",""
"","response","","html-keyboard-response","371","435940","0.0-1.0-518.0","0","0","82072","","657","","","68","57","","","2","57","training","adjacent","BC","2","3","N.jpg","M.jpg","1","1","1","",""
"","feedback","","html-keyboard-response","372","436946","0.0-1.0-519.0-0.0","0","0","82072","","null","","","null","57","","","","","","","","","","","","","","","",""
"","ITI","","html-keyboard-response","373","437950","0.0-1.0-522.0","0","0","82072","","null","","","null","57","","","","","","","","","","","","","","","NaN",""
"","S1","","html-keyboard-response","374","438219","0.0-1.0-524.0","0","0","82072","","null","","","null","58","","","","","","","","","","","","","","","",""
"","ISI","","html-keyboard-response","375","440230","0.0-1.0-525.0","0","0","82072","","null","","","null","58","NaN","","","","","","","","","","","","","","",""
"","S2","","html-keyboard-response","376","440483","0.0-1.0-526.0","0","0","82072","","null","","","null","58","","NaN","","","","","","","","","","","","","",""
"","response","","html-keyboard-response","377","441088","0.0-1.0-527.0","0","0","82072","","603","","","75","58","","","2","58","training","adjacent","ED","5","4","Q.jpg","P.jpg","0","0","1","",""
"","feedback","","html-keyboard-response","378","442093","0.0-1.0-528.0-0.0","0","0","82072","","null","","","null","58","","","","","","","","","","","","","","","",""
"","ITI","","html-keyboard-response","379","443111","0.0-1.0-531.0","0","0","82072","","null","","","null","58","","","","","","","","","","","","","","","NaN",""
"","S1","","html-keyboard-response","380","443366","0.0-1.0-533.0","0","0","82072","","null","","","null","59","","","","","","","","","","","","","","","",""
"","ISI","","html-keyboard-response","381","445370","0.0-1.0-534.0","0","0","82072","","null","","","null","59","NaN","","","","","","","","","","","","","","",""
"","S2","","html-keyboard-response","382","445625","0.0-1.0-535.0","0","0","82072","","null","","","null","59","","NaN","","","","","","","","","","","","","",""
"","response","","html-keyboard-response","383","445999","0.0-1.0-536.0","0","0","82072","","370","","","68","59","","","2","59","training","adjacent","AB","1","2","R.jpg","N.jpg","1","1","1","",""
"","feedback","","html-keyboard-response","384","447003","0.0-1.0-537.0-0.0","0","0","82072","","null","","","null","59","","","","","","","","","","","","","","","",""
"","ITI","","html-keyboard-response","385","448008","0.0-1.0-540.0","0","0","82072","","null","","","null","59","","","","","","","","","","","","","","","NaN",""
"","S1","","html-keyboard-response","386","448264","0.0-1.0-542.0","0","0","82072","","null","","","null","60","","","","","","","","","","","","","","","",""
"","ISI","","html-keyboard-response","387","450266","0.0-1.0-543.0","0","0","82072","","null","","","null","60","NaN","","","","","","","","","","","","","","",""
"","S2","","html-keyboard-response","388","450520","0.0-1.0-544.0","0","0","82072","","null","","","null","60","","NaN","","","","","","","","","","","","","",""
"","response","","html-keyboard-response","389","451031","0.0-1.0-545.0","0","0","82072","","508","","","68","60","","","2","60","training","adjacent","CD","3","4","M.jpg","P.jpg","1","1","1","",""
"","feedback","","html-keyboard-response","390","452035","0.0-1.0-546.0-0.0","0","0","82072","","null","","","null","60","","","","","","","","","","","","","","","",""
"","ITI","","html-keyboard-response","391","453038","0.0-1.0-549.0","0","0","82072","","null","","","null","60","","","","","","","","","","","","","","","NaN",""
"","S1","","html-keyboard-response","392","453292","0.0-1.0-551.0","0","0","82072","","null","","","null","61","","","","","","","","","","","","","","","",""
"","ISI","","html-keyboard-response","393","455297","0.0-1.0-552.0","0","0","82072","","null","","","null","61","NaN","","","","","","","","","","","","","","",""
"","S2","","html-keyboard-response","394","455551","0.0-1.0-553.0","0","0","82072","","null","","","null","61","","NaN","","","","","","","","","","","","","",""
"","response","","html-keyboard-response","395","455996","0.0-1.0-554.0","0","0","82072","","440","","","68","61","","","2","61","training","adjacent","FG","6","7","O.jpg","L.jpg","1","1","1","",""
"","feedback","","html-keyboard-response","396","457001","0.0-1.0-555.0-0.0","0","0","82072","","null","","","null","61","","","","","","","","","","","","","","","",""
"","ITI","","html-keyboard-response","397","458006","0.0-1.0-558.0","0","0","82072","","null","","","null","61","","","","","","","","","","","","","","","NaN",""
"","S1","","html-keyboard-response","398","458287","0.0-1.0-560.0","0","0","82072","","null","","","null","62","","","","","","","","","","","","","","","",""
"","ISI","","html-keyboard-response","399","460302","0.0-1.0-561.0","0","0","82072","","null","","","null","62","NaN","","","","","","","","","","","","","","",""
"","S2","","html-keyboard-response","400","460567","0.0-1.0-562.0","0","0","82072","","null","","","null","62","","NaN","","","","","","","","","","","","","",""
"","response","","html-keyboard-response","401","460843","0.0-1.0-563.0","0","0","82072","","274","","","75","62","","","2","62","training","adjacent","GF","7","6","L.jpg","O.jpg","0","0","1","",""
"","feedback","","html-keyboard-response","402","461846","0.0-1.0-564.0-0.0","0","0","82072","","null","","","null","62","","","","","","","","","","","","","","","",""
"","ITI","","html-keyboard-response","403","462851","0.0-1.0-567.0","0","0","82072","","null","","","null","62","","","","","","","","","","","","","","","NaN",""
"","S1","","html-keyboard-response","404","463105","0.0-1.0-569.0","0","0","82072","","null","","","null","63","","","","","","","","","","","","","","","",""
"","ISI","","html-keyboard-response","405","465110","0.0-1.0-570.0","0","0","82072","","null","","","null","63","NaN","","","","","","","","","","","","","","",""
"","S2","","html-keyboard-response","406","465364","0.0-1.0-571.0","0","0","82072","","null","","","null","63","","NaN","","","","","","","","","","","","","",""
"","response","","html-keyboard-response","407","465653","0.0-1.0-572.0","0","0","82072","","286","","","68","63","","","2","63","training","adjacent","FG","6","7","O.jpg","L.jpg","1","1","1","",""
"","feedback","","html-keyboard-response","408","466660","0.0-1.0-573.0-0.0","0","0","82072","","null","","","null","63","","","","","","","","","","","","","","","",""
"","ITI","","html-keyboard-response","409","467665","0.0-1.0-576.0","0","0","82072","","null","","","null","63","","","","","","","","","","","","","","","NaN",""
"","S1","","html-keyboard-response","410","467919","0.0-1.0-578.0","0","0","82072","","null","","","null","64","","","","","","","","","","","","","","","",""
"","ISI","","html-keyboard-response","411","469921","0.0-1.0-579.0","0","0","82072","","null","","","null","64","NaN","","","","","","","","","","","","","","",""
"","S2","","html-keyboard-response","412","470175","0.0-1.0-580.0","0","0","82072","","null","","","null","64","","NaN","","","","","","","","","","","","","",""
"","response","","html-keyboard-response","413","470947","0.0-1.0-581.0","0","0","82072","","768","","","68","64","","","2","64","training","adjacent","DE","4","5","P.jpg","Q.jpg","1","1","1","",""
"","feedback","","html-keyboard-response","414","471952","0.0-1.0-582.0-0.0","0","0","82072","","null","","","null","64","","","","","","","","","","","","","","","",""
"","ITI","","html-keyboard-response","415","472957","0.0-1.0-585.0","0","0","82072","","null","","","null","64","","","","","","","","","","","","","","","NaN",""
"","S1","","html-keyboard-response","416","473211","0.0-1.0-587.0","0","0","82072","","null","","","null","65","","","","","","","","","","","","","","","",""
"","ISI","","html-keyboard-response","417","475215","0.0-1.0-588.0","0","0","82072","","null","","","null","65","NaN","","","","","","","","","","","","","","",""
"","S2","","html-keyboard-response","418","475469","0.0-1.0-589.0","0","0","82072","","null","","","null","65","","NaN","","","","","","","","","","","","","",""
"","response","","html-keyboard-response","419","475966","0.0-1.0-590.0","0","0","82072","","494","","","75","65","","","2","65","training","adjacent","CB","3","2","M.jpg","N.jpg","0","0","1","",""
"","feedback","","html-keyboard-response","420","476970","0.0-1.0-591.0-0.0","0","0","82072","","null","","","null","65","","","","","","","","","","","","","","","",""
"","ITI","","html-keyboard-response","421","477973","0.0-1.0-594.0","0","0","82072","","null","","","null","65","","","","","","","","","","","","","","","NaN",""
"","S1","","html-keyboard-response","422","478227","0.0-1.0-596.0","0","0","82072","","null","","","null","66","","","","","","","","","","","","","","","",""
"","ISI","","html-keyboard-response","423","480241","0.0-1.0-597.0","0","0","82072","","null","","","null","66","NaN","","","","","","","","","","","","","","",""
"","S2","","html-keyboard-response","424","480495","0.0-1.0-598.0","0","0","82072","","null","","","null","66","","NaN","","","","","","","","","","","","","",""
"","response","","html-keyboard-response","425","481036","0.0-1.0-599.0","0","0","82072","","538","","","75","66","","","2","66","training","adjacent","BA","2","1","N.jpg","R.jpg","0","0","1","",""
"","feedback","","html-keyboard-response","426","482041","0.0-1.0-600.0-0.0","0","0","82072","","null","","","null","66","","","","","","","","","","","","","","","",""
"","ITI","","html-keyboard-response","427","483045","0.0-1.0-603.0","0","0","82072","","null","","","null","66","","","","","","","","","","","","","","","NaN",""
"","S1","","html-keyboard-response","428","483300","0.0-1.0-605.0","0","0","82072","","null","","","null","67","","","","","","","","","","","","","","","",""
"","ISI","","html-keyboard-response","429","485303","0.0-1.0-606.0","0","0","82072","","null","","","null","67","NaN","","","","","","","","","","","","","","",""
"","S2","","html-keyboard-response","430","485559","0.0-1.0-607.0","0","0","82072","","null","","","null","67","","NaN","","","","","","","","","","","","","",""
"","response","","html-keyboard-response","431","486288","0.0-1.0-608.0","0","0","82072","","725","","","75","67","","","2","67","training","adjacent","CD","3","4","M.jpg","P.jpg","0","1","0","",""
"","feedback","","html-keyboard-response","432","487293","0.0-1.0-609.0-0.0","0","0","82072","","null","","","null","67","","","","","","","","","","","","","","","",""
"","time_out","","html-keyboard-response","433","489306","0.0-1.0-611.0-0.0","0","0","82072","","null","","","null","67","","","","","","","","","","","","","","","",""
"","ITI","","html-keyboard-response","434","490311","0.0-1.0-612.0","0","0","82072","","null","","","null","67","","","","","","","","","","","","","","","NaN",""
"","S1","","html-keyboard-response","435","490565","0.0-1.0-614.0","0","0","82072","","null","","","null","68","","","","","","","","","","","","","","","",""
"","ISI","","html-keyboard-response","436","492569","0.0-1.0-615.0","0","0","82072","","null","","","null","68","NaN","","","","","","","","","","","","","","",""
"","S2","","html-keyboard-response","437","492823","0.0-1.0-616.0","0","0","82072","","null","","","null","68","","NaN","","","","","","","","","","","","","",""
"","response","","html-keyboard-response","438","493363","0.0-1.0-617.0","0","0","82072","","537","","","68","68","","","2","68","training","adjacent","CB","3","2","M.jpg","N.jpg","1","0","0","",""
"","feedback","","html-keyboard-response","439","494366","0.0-1.0-618.0-0.0","0","0","82072","","null","","","null","68","","","","","","","","","","","","","","","",""
"","time_out","","html-keyboard-response","440","496370","0.0-1.0-620.0-0.0","0","0","82072","","null","","","null","68","","","","","","","","","","","","","","","",""
"","ITI","","html-keyboard-response","441","497374","0.0-1.0-621.0","0","0","82072","","null","","","null","68","","","","","","","","","","","","","","","NaN",""
"","S1","","html-keyboard-response","442","497628","0.0-1.0-623.0","0","0","82072","","null","","","null","69","","","","","","","","","","","","","","","",""
"","ISI","","html-keyboard-response","443","499635","0.0-1.0-624.0","0","0","82072","","null","","","null","69","NaN","","","","","","","","","","","","","","",""
"","S2","","html-keyboard-response","444","499891","0.0-1.0-625.0","0","0","82072","","null","","","null","69","","NaN","","","","","","","","","","","","","",""
"","response","","html-keyboard-response","445","500379","0.0-1.0-626.0","0","0","82072","","483","","","75","69","","","2","69","training","adjacent","BA","2","1","N.jpg","R.jpg","0","0","1","",""
"","feedback","","html-keyboard-response","446","501388","0.0-1.0-627.0-0.0","0","0","82072","","null","","","null","69","","","","","","","","","","","","","","","",""
"","ITI","","html-keyboard-response","447","502397","0.0-1.0-630.0","0","0","82072","","null","","","null","69","","","","","","","","","","","","","","","NaN",""
"","S1","","html-keyboard-response","448","502652","0.0-1.0-632.0","0","0","82072","","null","","","null","70","","","","","","","","","","","","","","","",""
"","ISI","","html-keyboard-response","449","504657","0.0-1.0-633.0","0","0","82072","","null","","","null","70","NaN","","","","","","","","","","","","","","",""
"","S2","","html-keyboard-response","450","504914","0.0-1.0-634.0","0","0","82072","","null","","","null","70","","NaN","","","","","","","","","","","","","",""
"","response","","html-keyboard-response","451","505805","0.0-1.0-635.0","0","0","82072","","889","","","68","70","","","2","70","training","adjacent","DC","4","3","P.jpg","M.jpg","1","0","0","",""
"","feedback","","html-keyboard-response","452","506812","0.0-1.0-636.0-0.0","0","0","82072","","null","","","null","70","","","","","","","","","","","","","","","",""
"","time_out","","html-keyboard-response","453","508816","0.0-1.0-638.0-0.0","0","0","82072","","null","","","null","70","","","","","","","","","","","","","","","",""
"","ITI","","html-keyboard-response","454","509820","0.0-1.0-639.0","0","0","82072","","null","","","null","70","","","","","","","","","","","","","","","NaN",""
"","S1","","html-keyboard-response","455","510074","0.0-1.0-641.0","0","0","82072","","null","","","null","71","","","","","","","","","","","","","","","",""
"","ISI","","html-keyboard-response","456","512079","0.0-1.0-642.0","0","0","82072","","null","","","null","71","NaN","","","","","","","","","","","","","","",""
"","S2","","html-keyboard-response","457","512334","0.0-1.0-643.0","0","0","82072","","null","","","null","71","","NaN","","","","","","","","","","","","","",""
"","response","","html-keyboard-response","458","512807","0.0-1.0-644.0","0","0","82072","","468","","","75","71","","","2","71","training","adjacent","DC","4","3","P.jpg","M.jpg","0","0","1","",""
"","feedback","","html-keyboard-response","459","513814","0.0-1.0-645.0-0.0","0","0","82072","","null","","","null","71","","","","","","","","","","","","","","","",""
"","ITI","","html-keyboard-response","460","514819","0.0-1.0-648.0","0","0","82072","","null","","","null","71","","","","","","","","","","","","","","","NaN",""
"","S1","","html-keyboard-response","461","515074","0.0-1.0-650.0","0","0","82072","","null","","","null","72","","","","","","","","","","","","","","","",""
"","ISI","","html-keyboard-response","462","517078","0.0-1.0-651.0","0","0","82072","","null","","","null","72","NaN","","","","","","","","","","","","","","",""
"","S2","","html-keyboard-response","463","517333","0.0-1.0-652.0","0","0","82072","","null","","","null","72","","NaN","","","","","","","","","","","","","",""
"","response","","html-keyboard-response","464","518042","0.0-1.0-653.0","0","0","82072","","706","","","68","72","","","2","72","training","adjacent","FE","6","5","O.jpg","Q.jpg","1","0","0","",""
"","feedback","","html-keyboard-response","465","519049","0.0-1.0-654.0-0.0","0","0","82072","","null","","","null","72","","","","","","","","","","","","","","","",""
"","time_out","","html-keyboard-response","466","521057","0.0-1.0-656.0-0.0","0","0","82072","","null","","","null","72","","","","","","","","","","","","","","","",""
"","ITI","","html-keyboard-response","467","522061","0.0-1.0-657.0","0","0","82072","","null","","","null","72","","","","","","","","","","","","","","","NaN",""
"","S1","","html-keyboard-response","468","522317","0.0-1.0-659.0","0","0","82072","","null","","","null","73","","","","","","","","","","","","","","","",""
"","ISI","","html-keyboard-response","469","524321","0.0-1.0-660.0","0","0","82072","","null","","","null","73","NaN","","","","","","","","","","","","","","",""
"","S2","","html-keyboard-response","470","524576","0.0-1.0-661.0","0","0","82072","","null","","","null","73","","NaN","","","","","","","","","","","","","",""
"","response","","html-keyboard-response","471","524983","0.0-1.0-662.0","0","0","82072","","403","","","75","73","","","2","73","training","adjacent","FE","6","5","O.jpg","Q.jpg","0","0","1","",""
"","feedback","","html-keyboard-response","472","525986","0.0-1.0-663.0-0.0","0","0","82072","","null","","","null","73","","","","","","","","","","","","","","","",""
"","ITI","","html-keyboard-response","473","526989","0.0-1.0-666.0","0","0","82072","","null","","","null","73","","","","","","","","","","","","","","","NaN",""
"","S1","","html-keyboard-response","474","527252","0.0-1.0-668.0","0","0","82072","","null","","","null","74","","","","","","","","","","","","","","","",""
"","ISI","","html-keyboard-response","475","529256","0.0-1.0-669.0","0","0","82072","","null","","","null","74","NaN","","","","","","","","","","","","","","",""
"","S2","","html-keyboard-response","476","529508","0.0-1.0-670.0","0","0","82072","","null","","","null","74","","NaN","","","","","","","","","","","","","",""
"","response","","html-keyboard-response","477","529937","0.0-1.0-671.0","0","0","82072","","426","","","75","74","","","2","74","training","adjacent","ED","5","4","Q.jpg","P.jpg","0","0","1","",""
"","feedback","","html-keyboard-response","478","530943","0.0-1.0-672.0-0.0","0","0","82072","","null","","","null","74","","","","","","","","","","","","","","","",""
"","ITI","","html-keyboard-response","479","531949","0.0-1.0-675.0","0","0","82072","","null","","","null","74","","","","","","","","","","","","","","","NaN",""
"","S1","","html-keyboard-response","480","532203","0.0-1.0-677.0","0","0","82072","","null","","","null","75","","","","","","","","","","","","","","","",""
"","ISI","","html-keyboard-response","481","534208","0.0-1.0-678.0","0","0","82072","","null","","","null","75","NaN","","","","","","","","","","","","","","",""
"","S2","","html-keyboard-response","482","534462","0.0-1.0-679.0","0","0","82072","","null","","","null","75","","NaN","","","","","","","","","","","","","",""
"","response","","html-keyboard-response","483","535191","0.0-1.0-680.0","0","0","82072","","726","","","68","75","","","2","75","training","adjacent","EF","5","6","Q.jpg","O.jpg","1","1","1","",""
"","feedback","","html-keyboard-response","484","536200","0.0-1.0-681.0-0.0","0","0","82072","","null","","","null","75","","","","","","","","","","","","","","","",""
"","ITI","","html-keyboard-response","485","537204","0.0-1.0-684.0","0","0","82072","","null","","","null","75","","","","","","","","","","","","","","","NaN",""
"","S1","","html-keyboard-response","486","537458","0.0-1.0-686.0","0","0","82072","","null","","","null","76","","","","","","","","","","","","","","","",""
"","ISI","","html-keyboard-response","487","539462","0.0-1.0-687.0","0","0","82072","","null","","","null","76","NaN","","","","","","","","","","","","","","",""
"","S2","","html-keyboard-response","488","539717","0.0-1.0-688.0","0","0","82072","","null","","","null","76","","NaN","","","","","","","","","","","","","",""
"","response","","html-keyboard-response","489","540108","0.0-1.0-689.0","0","0","82072","","387","","","68","76","","","2","76","training","adjacent","CD","3","4","M.jpg","P.jpg","1","1","1","",""
"","feedback","","html-keyboard-response","490","541112","0.0-1.0-690.0-0.0","0","0","82072","","null","","","null","76","","","","","","","","","","","","","","","",""
"","ITI","","html-keyboard-response","491","542116","0.0-1.0-693.0","0","0","82072","","null","","","null","76","","","","","","","","","","","","","","","NaN",""
"","S1","","html-keyboard-response","492","542370","0.0-1.0-695.0","0","0","82072","","null","","","null","77","","","","","","","","","","","","","","","",""
"","ISI","","html-keyboard-response","493","544373","0.0-1.0-696.0","0","0","82072","","null","","","null","77","NaN","","","","","","","","","","","","","","",""
"","S2","","html-keyboard-response","494","544628","0.0-1.0-697.0","0","0","82072","","null","","","null","77","","NaN","","","","","","","","","","","","","",""
"","response","","html-keyboard-response","495","545296","0.0-1.0-698.0","0","0","82072","","664","","","68","77","","","2","77","training","adjacent","EF","5","6","Q.jpg","O.jpg","1","1","1","",""
"","feedback","","html-keyboard-response","496","546300","0.0-1.0-699.0-0.0","0","0","82072","","null","","","null","77","","","","","","","","","","","","","","","",""
"","ITI","","html-keyboard-response","497","547304","0.0-1.0-702.0","0","0","82072","","null","","","null","77","","","","","","","","","","","","","","","NaN",""
"","S1","","html-keyboard-response","498","547557","0.0-1.0-704.0","0","0","82072","","null","","","null","78","","","","","","","","","","","","","","","",""
"","ISI","","html-keyboard-response","499","549560","0.0-1.0-705.0","0","0","82072","","null","","","null","78","NaN","","","","","","","","","","","","","","",""
"","S2","","html-keyboard-response","500","549815","0.0-1.0-706.0","0","0","82072","","null","","","null","78","","NaN","","","","","","","","","","","","","",""
"","response","","html-keyboard-response","501","551819","0.0-1.0-707.0","0","0","82072","","null","","","null","78","","","2","78","training","adjacent","EF","5","6","Q.jpg","O.jpg","NaN","1","0","",""
"","too_slow_prompt","","html-keyboard-response","502","552825","0.0-1.0-709.0-0.0","1","0","82072","","null","","","null","","","","","","","","","","","","","","","","",""
"","time_out","","html-keyboard-response","503","554831","0.0-1.0-710.0-0.0","0","0","82072","","null","","","null","78","","","","","","","","","","","","","","","",""
"","ITI","","html-keyboard-response","504","555835","0.0-1.0-711.0","0","0","82072","","null","","","null","78","","","","","","","","","","","","","","","NaN",""
"","S1","","html-keyboard-response","505","556092","0.0-1.0-713.0","0","0","82072","","null","","","null","79","","","","","","","","","","","","","","","",""
"","ISI","","html-keyboard-response","506","558094","0.0-1.0-714.0","0","0","82072","","null","","","null","79","NaN","","","","","","","","","","","","","","",""
"","S2","","html-keyboard-response","507","558350","0.0-1.0-715.0","0","0","82072","","null","","","null","79","","NaN","","","","","","","","","","","","","",""
"","response","","html-keyboard-response","508","558790","0.0-1.0-716.0","0","0","82072","","437","","","75","79","","","2","79","training","adjacent","GF","7","6","L.jpg","O.jpg","0","0","1","",""
"","feedback","","html-keyboard-response","509","559794","0.0-1.0-717.0-0.0","0","0","82072","","null","","","null","79","","","","","","","","","","","","","","","",""
"","ITI","","html-keyboard-response","510","560801","0.0-1.0-720.0","0","0","82072","","null","","","null","79","","","","","","","","","","","","","","","NaN",""
"","S1","","html-keyboard-response","511","561058","0.0-1.0-722.0","0","0","82072","","null","","","null","80","","","","","","","","","","","","","","","",""
"","ISI","","html-keyboard-response","512","563062","0.0-1.0-723.0","0","0","82072","","null","","","null","80","NaN","","","","","","","","","","","","","","",""
"","S2","","html-keyboard-response","513","563316","0.0-1.0-724.0","0","0","82072","","null","","","null","80","","NaN","","","","","","","","","","","","","",""
"","response","","html-keyboard-response","514","563895","0.0-1.0-725.0","0","0","82072","","575","","","75","80","","","2","80","training","adjacent","CB","3","2","M.jpg","N.jpg","0","0","1","",""
"","feedback","","html-keyboard-response","515","564899","0.0-1.0-726.0-0.0","0","0","82072","","null","","","null","80","","","","","","","","","","","","","","","",""
"","ITI","","html-keyboard-response","516","565903","0.0-1.0-729.0","0","0","82072","","null","","","null","80","","","","","","","","","","","","","","","NaN",""
"","S1","","html-keyboard-response","517","566158","0.0-1.0-731.0","0","0","82072","","null","","","null","81","","","","","","","","","","","","","","","",""
"","ISI","","html-keyboard-response","518","568162","0.0-1.0-732.0","0","0","82072","","325","","","68","81","d","","","","","","","","","","","","","","",""
"","S2","","html-keyboard-response","519","568417","0.0-1.0-733.0","0","0","82072","","null","","","null","81","","NaN","","","","","","","","","","","","","",""
"","response","","html-keyboard-response","520","568779","0.0-1.0-734.0","0","0","82072","","359","","","75","81","","","2","81","training","adjacent","BA","2","1","N.jpg","R.jpg","0","0","1","",""
"","feedback","","html-keyboard-response","521","569784","0.0-1.0-735.0-0.0","0","0","82072","","null","","","null","81","","","","","","","","","","","","","","","",""
"","ITI","","html-keyboard-response","522","570790","0.0-1.0-738.0","0","0","82072","","null","","","null","81","","","","","","","","","","","","","","","NaN",""
"","S1","","html-keyboard-response","523","571044","0.0-1.0-740.0","0","0","82072","","null","","","null","82","","","","","","","","","","","","","","","",""
"","ISI","","html-keyboard-response","524","573049","0.0-1.0-741.0","0","0","82072","","null","","","null","82","NaN","","","","","","","","","","","","","","",""
"","S2","","html-keyboard-response","525","573314","0.0-1.0-742.0","0","0","82072","","null","","","null","82","","NaN","","","","","","","","","","","","","",""
"","response","","html-keyboard-response","526","573882","0.0-1.0-743.0","0","0","82072","","564","","","68","82","","","2","82","training","adjacent","BC","2","3","N.jpg","M.jpg","1","1","1","",""
"","feedback","","html-keyboard-response","527","574888","0.0-1.0-744.0-0.0","0","0","82072","","null","","","null","82","","","","","","","","","","","","","","","",""
"","ITI","","html-keyboard-response","528","575893","0.0-1.0-747.0","0","0","82072","","null","","","null","82","","","","","","","","","","","","","","","NaN",""
"","S1","","html-keyboard-response","529","576149","0.0-1.0-749.0","0","0","82072","","null","","","null","83","","","","","","","","","","","","","","","",""
"","ISI","","html-keyboard-response","530","578153","0.0-1.0-750.0","0","0","82072","","null","","","null","83","NaN","","","","","","","","","","","","","","",""
"","S2","","html-keyboard-response","531","578407","0.0-1.0-751.0","0","0","82072","","null","","","null","83","","NaN","","","","","","","","","","","","","",""
"","response","","html-keyboard-response","532","578746","0.0-1.0-752.0","0","0","82072","","335","","","68","83","","","2","83","training","adjacent","DE","4","5","P.jpg","Q.jpg","1","1","1","",""
"","feedback","","html-keyboard-response","533","579752","0.0-1.0-753.0-0.0","0","0","82072","","null","","","null","83","","","","","","","","","","","","","","","",""
"","ITI","","html-keyboard-response","534","580756","0.0-1.0-756.0","0","0","82072","","null","","","null","83","","","","","","","","","","","","","","","NaN",""
"","S1","","html-keyboard-response","535","581010","0.0-1.0-758.0","0","0","82072","","null","","","null","84","","","","","","","","","","","","","","","",""
"","ISI","","html-keyboard-response","536","583016","0.0-1.0-759.0","0","0","82072","","null","","","null","84","NaN","","","","","","","","","","","","","","",""
"","S2","","html-keyboard-response","537","583271","0.0-1.0-760.0","0","0","82072","","null","","","null","84","","NaN","","","","","","","","","","","","","",""
"","response","","html-keyboard-response","538","583795","0.0-1.0-761.0","0","0","82072","","520","","","75","84","","","2","84","training","adjacent","CB","3","2","M.jpg","N.jpg","0","0","1","",""
"","feedback","","html-keyboard-response","539","584801","0.0-1.0-762.0-0.0","0","0","82072","","null","","","null","84","","","","","","","","","","","","","","","",""
"","ITI","","html-keyboard-response","540","585805","0.0-1.0-765.0","0","0","82072","","null","","","null","84","","","","","","","","","","","","","","","NaN",""
"","S1","","html-keyboard-response","541","586059","0.0-1.0-767.0","0","0","82072","","null","","","null","85","","","","","","","","","","","","","","","",""
"","ISI","","html-keyboard-response","542","588064","0.0-1.0-768.0","0","0","82072","","null","","","null","85","NaN","","","","","","","","","","","","","","",""
"","S2","","html-keyboard-response","543","588317","0.0-1.0-769.0","0","0","82072","","null","","","null","85","","NaN","","","","","","","","","","","","","",""
"","response","","html-keyboard-response","544","588948","0.0-1.0-770.0","0","0","82072","","629","","","68","85","","","2","85","training","adjacent","EF","5","6","Q.jpg","O.jpg","1","1","1","",""
"","feedback","","html-keyboard-response","545","589952","0.0-1.0-771.0-0.0","0","0","82072","","null","","","null","85","","","","","","","","","","","","","","","",""
"","ITI","","html-keyboard-response","546","590956","0.0-1.0-774.0","0","0","82072","","null","","","null","85","","","","","","","","","","","","","","","NaN",""
"","S1","","html-keyboard-response","547","591209","0.0-1.0-776.0","0","0","82072","","null","","","null","86","","","","","","","","","","","","","","","",""
"","ISI","","html-keyboard-response","548","593212","0.0-1.0-777.0","0","0","82072","","null","","","null","86","NaN","","","","","","","","","","","","","","",""
"","S2","","html-keyboard-response","549","593465","0.0-1.0-778.0","0","0","82072","","null","","","null","86","","NaN","","","","","","","","","","","","","",""
"","response","","html-keyboard-response","550","593792","0.0-1.0-779.0","0","0","82072","","326","","","75","86","","","2","86","training","adjacent","GF","7","6","L.jpg","O.jpg","0","0","1","",""
"","feedback","","html-keyboard-response","551","594810","0.0-1.0-780.0-0.0","0","0","82072","","null","","","null","86","","","","","","","","","","","","","","","",""
"","ITI","","html-keyboard-response","552","595814","0.0-1.0-783.0","0","0","82072","","null","","","null","86","","","","","","","","","","","","","","","NaN",""
"","S1","","html-keyboard-response","553","596071","0.0-1.0-785.0","0","0","82072","","null","","","null","87","","","","","","","","","","","","","","","",""
"","ISI","","html-keyboard-response","554","598076","0.0-1.0-786.0","0","0","82072","","null","","","null","87","NaN","","","","","","","","","","","","","","",""
"","S2","","html-keyboard-response","555","598331","0.0-1.0-787.0","0","0","82072","","null","","","null","87","","NaN","","","","","","","","","","","","","",""
"","response","","html-keyboard-response","556","598714","0.0-1.0-788.0","0","0","82072","","380","","","68","87","","","2","87","training","adjacent","FE","6","5","O.jpg","Q.jpg","1","0","0","",""
"","feedback","","html-keyboard-response","557","599718","0.0-1.0-789.0-0.0","0","0","82072","","null","","","null","87","","","","","","","","","","","","","","","",""
"","time_out","","html-keyboard-response","558","601722","0.0-1.0-791.0-0.0","0","0","82072","","null","","","null","87","","","","","","","","","","","","","","","",""
"","ITI","","html-keyboard-response","559","602737","0.0-1.0-792.0","0","0","82072","","null","","","null","87","","","","","","","","","","","","","","","NaN",""
"","S1","","html-keyboard-response","560","602992","0.0-1.0-794.0","0","0","82072","","null","","","null","88","","","","","","","","","","","","","","","",""
"","ISI","","html-keyboard-response","561","604995","0.0-1.0-795.0","0","0","82072","","null","","","null","88","NaN","","","","","","","","","","","","","","",""
"","S2","","html-keyboard-response","562","605250","0.0-1.0-796.0","0","0","82072","","null","","","null","88","","NaN","","","","","","","","","","","","","",""
"","response","","html-keyboard-response","563","605728","0.0-1.0-797.0","0","0","82072","","475","","","75","88","","","2","88","training","adjacent","FG","6","7","O.jpg","L.jpg","0","1","0","",""
"","feedback","","html-keyboard-response","564","606734","0.0-1.0-798.0-0.0","0","0","82072","","null","","","null","88","","","","","","","","","","","","","","","",""
"","time_out","","html-keyboard-response","565","608738","0.0-1.0-800.0-0.0","0","0","82072","","null","","","null","88","","","","","","","","","","","","","","","",""
"","ITI","","html-keyboard-response","566","609741","0.0-1.0-801.0","0","0","82072","","null","","","null","88","","","","","","","","","","","","","","","NaN",""
"","S1","","html-keyboard-response","567","609996","0.0-1.0-803.0","0","0","82072","","null","","","null","89","","","","","","","","","","","","","","","",""
"","ISI","","html-keyboard-response","568","612004","0.0-1.0-804.0","0","0","82072","","null","","","null","89","NaN","","","","","","","","","","","","","","",""
"","S2","","html-keyboard-response","569","612259","0.0-1.0-805.0","0","0","82072","","null","","","null","89","","NaN","","","","","","","","","","","","","",""
"","response","","html-keyboard-response","570","612627","0.0-1.0-806.0","0","0","82072","","363","","","68","89","","","2","89","training","adjacent","BC","2","3","N.jpg","M.jpg","1","1","1","",""
"","feedback","","html-keyboard-response","571","613632","0.0-1.0-807.0-0.0","0","0","82072","","null","","","null","89","","","","","","","","","","","","","","","",""
"","ITI","","html-keyboard-response","572","614638","0.0-1.0-810.0","0","0","82072","","null","","","null","89","","","","","","","","","","","","","","","NaN",""
"","S1","","html-keyboard-response","573","614894","0.0-1.0-812.0","0","0","82072","","null","","","null","90","","","","","","","","","","","","","","","",""
"","ISI","","html-keyboard-response","574","616899","0.0-1.0-813.0","0","0","82072","","null","","","null","90","NaN","","","","","","","","","","","","","","",""
"","S2","","html-keyboard-response","575","617152","0.0-1.0-814.0","0","0","82072","","null","","","null","90","","NaN","","","","","","","","","","","","","",""
"","response","","html-keyboard-response","576","617537","0.0-1.0-815.0","0","0","82072","","382","","","68","90","","","2","90","training","adjacent","CD","3","4","M.jpg","P.jpg","1","1","1","",""
"","feedback","","html-keyboard-response","577","618541","0.0-1.0-816.0-0.0","0","0","82072","","null","","","null","90","","","","","","","","","","","","","","","",""
"","ITI","","html-keyboard-response","578","619546","0.0-1.0-819.0","0","0","82072","","null","","","null","90","","","","","","","","","","","","","","","NaN",""
"","S1","","html-keyboard-response","579","619800","0.0-1.0-821.0","0","0","82072","","null","","","null","91","","","","","","","","","","","","","","","",""
"","ISI","","html-keyboard-response","580","621804","0.0-1.0-822.0","0","0","82072","","null","","","null","91","NaN","","","","","","","","","","","","","","",""
"","S2","","html-keyboard-response","581","622058","0.0-1.0-823.0","0","0","82072","","null","","","null","91","","NaN","","","","","","","","","","","","","",""
"","response","","html-keyboard-response","582","622448","0.0-1.0-824.0","0","0","82072","","387","","","75","91","","","2","91","training","adjacent","FE","6","5","O.jpg","Q.jpg","0","0","1","",""
"","feedback","","html-keyboard-response","583","623453","0.0-1.0-825.0-0.0","0","0","82072","","null","","","null","91","","","","","","","","","","","","","","","",""
"","ITI","","html-keyboard-response","584","624458","0.0-1.0-828.0","0","0","82072","","null","","","null","91","","","","","","","","","","","","","","","NaN",""
