"success","ttype","start_time","trial_type","trial_index","time_elapsed","internal_node_id","warning","missed_checkup","PID","view_history","rt","responses","repeat_instructions","key_press","index","keypress_isi","keypress_S2","block","trial_num","phase","group_type","pair_type","S1_stim","S2_stim","S1_img","S2_img","S1_chosen","S1_higher","accuracy","keypress_iti","total_bonus_tally"
"true","full_screen","d03082023hr2232","fullscreen","0","21528","0.0-0.0","0","0","43013","","","","","","","","","","","","","","","","","","","","","",""
"","instructions","","instructions","1","55265","0.0-1.0-0.0-0.0","0","0","43013","[{""page_index"":0,""viewing_time"":3327},{""page_index"":1,""viewing_time"":23157},{""page_index"":2,""viewing_time"":5428},{""page_index"":3,""viewing_time"":1824}]","33736","","","","","","","","","","","","","","","","","","","",""
"","comprehension_check","","survey-multi-choice","2","78984","0.0-1.0-0.0-1.0","0","0","43013","","23717","{""Q0"":""True"",""Q1"":""K"",""Q2"":""Once the second image appears and while the screen 'MAKE A CHOICE' is shown"",""Q3"":""Green mark"",""Q4"":""either D or K""}","0","","","","","","","","","","","","","","","","","",""
"","start_exp","","html-keyboard-response","3","80644","0.0-1.0-1.0","0","0","43013","","1658","","","32","","","","","","","","","","","","","","","","",""
"","S1","","html-keyboard-response","4","80897","0.0-1.0-2.0","0","0","43013","","null","","","null","0","","","","","","","","","","","","","","","",""
"","ISI","","html-keyboard-response","5","81049","0.0-1.0-3.0","0","0","43013","","null","","","null","0","NaN","","","","","","","","","","","","","","",""
"","S2","","html-keyboard-response","6","81302","0.0-1.0-4.0","0","0","43013","","null","","","null","0","","NaN","","","","","","","","","","","","","",""
"","response","","html-keyboard-response","7","82668","0.0-1.0-5.0-0.0","0","0","43013","","1366","","","75","0","","","1","0","training","adjacent","AB","1","2","Q.jpg","N.jpg","1","1","1","",""
"","feedback","","html-keyboard-response","8","83671","0.0-1.0-6.0-0.0","0","0","43013","","null","","","null","0","","","","","","","","","","","","","","","",""
"","ITI","","html-keyboard-response","9","84673","0.0-1.0-9.0","0","0","43013","","null","","","null","0","","","","","","","","","","","","","","","NaN",""
"","S1","","html-keyboard-response","10","84924","0.0-1.0-11.0","0","0","43013","","null","","","null","1","","","","","","","","","","","","","","","",""
"","ISI","","html-keyboard-response","11","85076","0.0-1.0-12.0","0","0","43013","","null","","","null","1","NaN","","","","","","","","","","","","","","",""
"","S2","","html-keyboard-response","12","85328","0.0-1.0-13.0","0","0","43013","","null","","","null","1","","NaN","","","","","","","","","","","","","",""
"","response","","html-keyboard-response","13","86003","0.0-1.0-14.0-0.0","0","0","43013","","675","","","68","1","","","1","1","training","adjacent","BA","2","1","N.jpg","Q.jpg","0","0","1","",""
"","feedback","","html-keyboard-response","14","87005","0.0-1.0-15.0-0.0","0","0","43013","","null","","","null","1","","","","","","","","","","","","","","","",""
"","ITI","","html-keyboard-response","15","88007","0.0-1.0-18.0","0","0","43013","","null","","","null","1","","","","","","","","","","","","","","","NaN",""
"","S1","","html-keyboard-response","16","88258","0.0-1.0-20.0","0","0","43013","","null","","","null","2","","","","","","","","","","","","","","","",""
"","ISI","","html-keyboard-response","17","88411","0.0-1.0-21.0","0","0","43013","","null","","","null","2","NaN","","","","","","","","","","","","","","",""
"","S2","","html-keyboard-response","18","88662","0.0-1.0-22.0","0","0","43013","","null","","","null","2","","NaN","","","","","","","","","","","","","",""
"","response","","html-keyboard-response","19","89191","0.0-1.0-23.0-0.0","0","0","43013","","529","","","68","2","","","1","2","training","adjacent","FE","6","5","P.jpg","L.jpg","0","0","1","",""
"","feedback","","html-keyboard-response","20","90193","0.0-1.0-24.0-0.0","0","0","43013","","null","","","null","2","","","","","","","","","","","","","","","",""
"","ITI","","html-keyboard-response","21","91196","0.0-1.0-27.0","0","0","43013","","null","","","null","2","","","","","","","","","","","","","","","NaN",""
"","S1","","html-keyboard-response","22","91448","0.0-1.0-29.0","0","0","43013","","null","","","null","3","","","","","","","","","","","","","","","",""
"","ISI","","html-keyboard-response","23","91600","0.0-1.0-30.0","0","0","43013","","null","","","null","3","NaN","","","","","","","","","","","","","","",""
"","S2","","html-keyboard-response","24","91853","0.0-1.0-31.0","0","0","43013","","null","","","null","3","","NaN","","","","","","","","","","","","","",""
"","response","","html-keyboard-response","25","92258","0.0-1.0-32.0-0.0","0","0","43013","","404","","","68","3","","","1","3","training","adjacent","DE","4","5","R.jpg","L.jpg","0","1","0","",""
"","feedback","","html-keyboard-response","26","93260","0.0-1.0-33.0-0.0","0","0","43013","","null","","","null","3","","","","","","","","","","","","","","","",""
"","time_out","","html-keyboard-response","27","95261","0.0-1.0-35.0-0.0","0","0","43013","","null","","","null","3","","","","","","","","","","","","","","","",""
"","ITI","","html-keyboard-response","28","96263","0.0-1.0-36.0","0","0","43013","","null","","","null","3","","","","","","","","","","","","","","","NaN",""
"","S1","","html-keyboard-response","29","96515","0.0-1.0-38.0","0","0","43013","","null","","","null","4","","","","","","","","","","","","","","","",""
"","ISI","","html-keyboard-response","30","96666","0.0-1.0-39.0","0","0","43013","","null","","","null","4","NaN","","","","","","","","","","","","","","",""
"","S2","","html-keyboard-response","31","96919","0.0-1.0-40.0","0","0","43013","","null","","","null","4","","NaN","","","","","","","","","","","","","",""
"","response","","html-keyboard-response","32","97340","0.0-1.0-41.0-0.0","0","0","43013","","420","","","75","4","","","1","4","training","adjacent","EF","5","6","L.jpg","P.jpg","1","1","1","",""
"","feedback","","html-keyboard-response","33","98342","0.0-1.0-42.0-0.0","0","0","43013","","null","","","null","4","","","","","","","","","","","","","","","",""
"","ITI","","html-keyboard-response","34","99343","0.0-1.0-45.0","0","0","43013","","null","","","null","4","","","","","","","","","","","","","","","NaN",""
"","S1","","html-keyboard-response","35","99596","0.0-1.0-47.0","0","0","43013","","null","","","null","5","","","","","","","","","","","","","","","",""
"","ISI","","html-keyboard-response","36","99748","0.0-1.0-48.0","0","0","43013","","null","","","null","5","NaN","","","","","","","","","","","","","","",""
"","S2","","html-keyboard-response","37","99756","0.0-1.0-49.0","0","0","43013","","7","","","68","5","","d","1","5","training","adjacent","BC","2","3","N.jpg","M.jpg","0","1","0","",""
"","feedback","","html-keyboard-response","38","100758","0.0-1.0-51.0-0.0","0","0","43013","","null","","","null","5","","","","","","","","","","","","","","","",""
"","time_out","","html-keyboard-response","39","102760","0.0-1.0-53.0-0.0","0","0","43013","","null","","","null","5","","","","","","","","","","","","","","","",""
"","ITI","","html-keyboard-response","40","103762","0.0-1.0-54.0","0","0","43013","","null","","","null","5","","","","","","","","","","","","","","","NaN",""
"","S1","","html-keyboard-response","41","104013","0.0-1.0-56.0","0","0","43013","","null","","","null","6","","","","","","","","","","","","","","","",""
"","ISI","","html-keyboard-response","42","104166","0.0-1.0-57.0","0","0","43013","","null","","","null","6","NaN","","","","","","","","","","","","","","",""
"","S2","","html-keyboard-response","43","104419","0.0-1.0-58.0","0","0","43013","","null","","","null","6","","NaN","","","","","","","","","","","","","",""
"","response","","html-keyboard-response","44","104744","0.0-1.0-59.0-0.0","0","0","43013","","324","","","75","6","","","1","6","training","adjacent","FE","6","5","P.jpg","L.jpg","1","0","0","",""
"","feedback","","html-keyboard-response","45","105746","0.0-1.0-60.0-0.0","0","0","43013","","null","","","null","6","","","","","","","","","","","","","","","",""
"","time_out","","html-keyboard-response","46","107749","0.0-1.0-62.0-0.0","0","0","43013","","null","","","null","6","","","","","","","","","","","","","","","",""
"","ITI","","html-keyboard-response","47","108750","0.0-1.0-63.0","0","0","43013","","null","","","null","6","","","","","","","","","","","","","","","NaN",""
"","S1","","html-keyboard-response","48","109003","0.0-1.0-65.0","0","0","43013","","null","","","null","7","","","","","","","","","","","","","","","",""
"","ISI","","html-keyboard-response","49","109155","0.0-1.0-66.0","0","0","43013","","138","","","68","7","d","","","","","","","","","","","","","","",""
"","S2","","html-keyboard-response","50","109407","0.0-1.0-67.0","0","0","43013","","null","","","null","7","","NaN","","","","","","","","","","","","","",""
"","response","","html-keyboard-response","51","109839","0.0-1.0-68.0-0.0","0","0","43013","","432","","","68","7","","","1","7","training","adjacent","CB","3","2","M.jpg","N.jpg","0","0","1","",""
"","feedback","","html-keyboard-response","52","110841","0.0-1.0-69.0-0.0","0","0","43013","","null","","","null","7","","","","","","","","","","","","","","","",""
"","ITI","","html-keyboard-response","53","111842","0.0-1.0-72.0","0","0","43013","","null","","","null","7","","","","","","","","","","","","","","","NaN",""
"","S1","","html-keyboard-response","54","112093","0.0-1.0-74.0","0","0","43013","","null","","","null","8","","","","","","","","","","","","","","","",""
"","ISI","","html-keyboard-response","55","112245","0.0-1.0-75.0","0","0","43013","","null","","","null","8","NaN","","","","","","","","","","","","","","",""
"","S2","","html-keyboard-response","56","112496","0.0-1.0-76.0","0","0","43013","","null","","","null","8","","NaN","","","","","","","","","","","","","",""
"","response","","html-keyboard-response","57","112674","0.0-1.0-77.0-0.0","0","0","43013","","176","","","75","8","","","1","8","training","adjacent","FG","6","7","P.jpg","O.jpg","1","1","1","",""
"","feedback","","html-keyboard-response","58","113676","0.0-1.0-78.0-0.0","0","0","43013","","null","","","null","8","","","","","","","","","","","","","","","",""
"","ITI","","html-keyboard-response","59","114678","0.0-1.0-81.0","0","0","43013","","null","","","null","8","","","","","","","","","","","","","","","NaN",""
"","S1","","html-keyboard-response","60","114929","0.0-1.0-83.0","0","0","43013","","null","","","null","9","","","","","","","","","","","","","","","",""
"","ISI","","html-keyboard-response","61","115082","0.0-1.0-84.0","0","0","43013","","null","","","null","9","NaN","","","","","","","","","","","","","","",""
"","S2","","html-keyboard-response","62","115334","0.0-1.0-85.0","0","0","43013","","null","","","null","9","","NaN","","","","","","","","","","","","","",""
"","response","","html-keyboard-response","63","115854","0.0-1.0-86.0-0.0","0","0","43013","","519","","","68","9","","","1","9","training","adjacent","FE","6","5","P.jpg","L.jpg","0","0","1","",""
"","feedback","","html-keyboard-response","64","116856","0.0-1.0-87.0-0.0","0","0","43013","","null","","","null","9","","","","","","","","","","","","","","","",""
"","ITI","","html-keyboard-response","65","117857","0.0-1.0-90.0","0","0","43013","","null","","","null","9","","","","","","","","","","","","","","","NaN",""
"","S1","","html-keyboard-response","66","118109","0.0-1.0-92.0","0","0","43013","","null","","","null","10","","","","","","","","","","","","","","","",""
"","ISI","","html-keyboard-response","67","118262","0.0-1.0-93.0","0","0","43013","","null","","","null","10","NaN","","","","","","","","","","","","","","",""
"","S2","","html-keyboard-response","68","118513","0.0-1.0-94.0","0","0","43013","","null","","","null","10","","NaN","","","","","","","","","","","","","",""
"","response","","html-keyboard-response","69","118922","0.0-1.0-95.0-0.0","0","0","43013","","408","","","75","10","","","1","10","training","adjacent","FE","6","5","P.jpg","L.jpg","1","0","0","",""
"","feedback","","html-keyboard-response","70","119924","0.0-1.0-96.0-0.0","0","0","43013","","null","","","null","10","","","","","","","","","","","","","","","",""
"","time_out","","html-keyboard-response","71","121926","0.0-1.0-98.0-0.0","0","0","43013","","null","","","null","10","","","","","","","","","","","","","","","",""
"","ITI","","html-keyboard-response","72","122927","0.0-1.0-99.0","0","0","43013","","null","","","null","10","","","","","","","","","","","","","","","NaN",""
"","S1","","html-keyboard-response","73","123180","0.0-1.0-101.0","0","0","43013","","null","","","null","11","","","","","","","","","","","","","","","",""
"","ISI","","html-keyboard-response","74","123332","0.0-1.0-102.0","0","0","43013","","null","","","null","11","NaN","","","","","","","","","","","","","","",""
"","S2","","html-keyboard-response","75","123584","0.0-1.0-103.0","0","0","43013","","null","","","null","11","","NaN","","","","","","","","","","","","","",""
"","response","","html-keyboard-response","76","124038","0.0-1.0-104.0-0.0","0","0","43013","","453","","","68","11","","","1","11","training","adjacent","GF","7","6","O.jpg","P.jpg","0","0","1","",""
"","feedback","","html-keyboard-response","77","125040","0.0-1.0-105.0-0.0","0","0","43013","","null","","","null","11","","","","","","","","","","","","","","","",""
"","ITI","","html-keyboard-response","78","126042","0.0-1.0-108.0","0","0","43013","","null","","","null","11","","","","","","","","","","","","","","","NaN",""
"","S1","","html-keyboard-response","79","126294","0.0-1.0-110.0","0","0","43013","","null","","","null","12","","","","","","","","","","","","","","","",""
"","ISI","","html-keyboard-response","80","126446","0.0-1.0-111.0","0","0","43013","","null","","","null","12","NaN","","","","","","","","","","","","","","",""
"","S2","","html-keyboard-response","81","126698","0.0-1.0-112.0","0","0","43013","","null","","","null","12","","NaN","","","","","","","","","","","","","",""
"","response","","html-keyboard-response","82","127133","0.0-1.0-113.0-0.0","0","0","43013","","433","","","75","12","","","1","12","training","adjacent","AB","1","2","Q.jpg","N.jpg","1","1","1","",""
"","feedback","","html-keyboard-response","83","128135","0.0-1.0-114.0-0.0","0","0","43013","","null","","","null","12","","","","","","","","","","","","","","","",""
"","ITI","","html-keyboard-response","84","129136","0.0-1.0-117.0","0","0","43013","","null","","","null","12","","","","","","","","","","","","","","","NaN",""
"","S1","","html-keyboard-response","85","129388","0.0-1.0-119.0","0","0","43013","","null","","","null","13","","","","","","","","","","","","","","","",""
"","ISI","","html-keyboard-response","86","129540","0.0-1.0-120.0","0","0","43013","","null","","","null","13","NaN","","","","","","","","","","","","","","",""
"","S2","","html-keyboard-response","87","129792","0.0-1.0-121.0","0","0","43013","","null","","","null","13","","NaN","","","","","","","","","","","","","",""
"","response","","html-keyboard-response","88","130457","0.0-1.0-122.0-0.0","0","0","43013","","664","","","68","13","","","1","13","training","adjacent","BC","2","3","N.jpg","M.jpg","0","1","0","",""
"","feedback","","html-keyboard-response","89","131459","0.0-1.0-123.0-0.0","0","0","43013","","null","","","null","13","","","","","","","","","","","","","","","",""
"","time_out","","html-keyboard-response","90","133461","0.0-1.0-125.0-0.0","0","0","43013","","null","","","null","13","","","","","","","","","","","","","","","",""
"","ITI","","html-keyboard-response","91","134463","0.0-1.0-126.0","0","0","43013","","null","","","null","13","","","","","","","","","","","","","","","NaN",""
"","S1","","html-keyboard-response","92","134716","0.0-1.0-128.0","0","0","43013","","null","","","null","14","","","","","","","","","","","","","","","",""
"","ISI","","html-keyboard-response","93","134868","0.0-1.0-129.0","0","0","43013","","null","","","null","14","NaN","","","","","","","","","","","","","","",""
"","S2","","html-keyboard-response","94","135120","0.0-1.0-130.0","0","0","43013","","null","","","null","14","","NaN","","","","","","","","","","","","","",""
"","response","","html-keyboard-response","95","135502","0.0-1.0-131.0-0.0","0","0","43013","","382","","","75","14","","","1","14","training","adjacent","CB","3","2","M.jpg","N.jpg","1","0","0","",""
"","feedback","","html-keyboard-response","96","136504","0.0-1.0-132.0-0.0","0","0","43013","","null","","","null","14","","","","","","","","","","","","","","","",""
"","time_out","","html-keyboard-response","97","138506","0.0-1.0-134.0-0.0","0","0","43013","","null","","","null","14","","","","","","","","","","","","","","","",""
"","ITI","","html-keyboard-response","98","139508","0.0-1.0-135.0","0","0","43013","","null","","","null","14","","","","","","","","","","","","","","","NaN",""
"","S1","","html-keyboard-response","99","139761","0.0-1.0-137.0","0","0","43013","","null","","","null","15","","","","","","","","","","","","","","","",""
"","ISI","","html-keyboard-response","100","139914","0.0-1.0-138.0","0","0","43013","","null","","","null","15","NaN","","","","","","","","","","","","","","",""
"","S2","","html-keyboard-response","101","140166","0.0-1.0-139.0","0","0","43013","","null","","","null","15","","NaN","","","","","","","","","","","","","",""
"","response","","html-keyboard-response","102","140590","0.0-1.0-140.0-0.0","0","0","43013","","423","","","68","15","","","1","15","training","adjacent","DE","4","5","R.jpg","L.jpg","0","1","0","",""
"","feedback","","html-keyboard-response","103","141593","0.0-1.0-141.0-0.0","0","0","43013","","null","","","null","15","","","","","","","","","","","","","","","",""
"","time_out","","html-keyboard-response","104","143595","0.0-1.0-143.0-0.0","0","0","43013","","null","","","null","15","","","","","","","","","","","","","","","",""
"","ITI","","html-keyboard-response","105","144597","0.0-1.0-144.0","0","0","43013","","null","","","null","15","","","","","","","","","","","","","","","NaN",""
"","S1","","html-keyboard-response","106","144849","0.0-1.0-146.0","0","0","43013","","null","","","null","16","","","","","","","","","","","","","","","",""
"","ISI","","html-keyboard-response","107","145001","0.0-1.0-147.0","0","0","43013","","null","","","null","16","NaN","","","","","","","","","","","","","","",""
"","S2","","html-keyboard-response","108","145253","0.0-1.0-148.0","0","0","43013","","null","","","null","16","","NaN","","","","","","","","","","","","","",""
"","response","","html-keyboard-response","109","145765","0.0-1.0-149.0-0.0","0","0","43013","","511","","","75","16","","","1","16","training","adjacent","GF","7","6","O.jpg","P.jpg","1","0","0","",""
"","feedback","","html-keyboard-response","110","146767","0.0-1.0-150.0-0.0","0","0","43013","","null","","","null","16","","","","","","","","","","","","","","","",""
"","time_out","","html-keyboard-response","111","148768","0.0-1.0-152.0-0.0","0","0","43013","","null","","","null","16","","","","","","","","","","","","","","","",""
"","ITI","","html-keyboard-response","112","149771","0.0-1.0-153.0","0","0","43013","","null","","","null","16","","","","","","","","","","","","","","","NaN",""
"","S1","","html-keyboard-response","113","150024","0.0-1.0-155.0","0","0","43013","","null","","","null","17","","","","","","","","","","","","","","","",""
"","ISI","","html-keyboard-response","114","150176","0.0-1.0-156.0","0","0","43013","","null","","","null","17","NaN","","","","","","","","","","","","","","",""
"","S2","","html-keyboard-response","115","150427","0.0-1.0-157.0","0","0","43013","","null","","","null","17","","NaN","","","","","","","","","","","","","",""
"","response","","html-keyboard-response","116","150823","0.0-1.0-158.0-0.0","0","0","43013","","395","","","75","17","","","1","17","training","adjacent","DC","4","3","R.jpg","M.jpg","1","0","0","",""
"","feedback","","html-keyboard-response","117","151825","0.0-1.0-159.0-0.0","0","0","43013","","null","","","null","17","","","","","","","","","","","","","","","",""
"","time_out","","html-keyboard-response","118","153828","0.0-1.0-161.0-0.0","0","0","43013","","null","","","null","17","","","","","","","","","","","","","","","",""
"","ITI","","html-keyboard-response","119","154830","0.0-1.0-162.0","0","0","43013","","null","","","null","17","","","","","","","","","","","","","","","NaN",""
"","S1","","html-keyboard-response","120","155081","0.0-1.0-164.0","0","0","43013","","null","","","null","18","","","","","","","","","","","","","","","",""
"","ISI","","html-keyboard-response","121","155234","0.0-1.0-165.0","0","0","43013","","null","","","null","18","NaN","","","","","","","","","","","","","","",""
"","S2","","html-keyboard-response","122","155485","0.0-1.0-166.0","0","0","43013","","null","","","null","18","","NaN","","","","","","","","","","","","","",""
"","response","","html-keyboard-response","123","155888","0.0-1.0-167.0-0.0","0","0","43013","","402","","","68","18","","","1","18","training","adjacent","DC","4","3","R.jpg","M.jpg","0","0","1","",""
"","feedback","","html-keyboard-response","124","156890","0.0-1.0-168.0-0.0","0","0","43013","","null","","","null","18","","","","","","","","","","","","","","","",""
"","ITI","","html-keyboard-response","125","157892","0.0-1.0-171.0","0","0","43013","","null","","","null","18","","","","","","","","","","","","","","","NaN",""
"","S1","","html-keyboard-response","126","158144","0.0-1.0-173.0","0","0","43013","","null","","","null","19","","","","","","","","","","","","","","","",""
"","ISI","","html-keyboard-response","127","158296","0.0-1.0-174.0","0","0","43013","","null","","","null","19","NaN","","","","","","","","","","","","","","",""
"","S2","","html-keyboard-response","128","158548","0.0-1.0-175.0","0","0","43013","","null","","","null","19","","NaN","","","","","","","","","","","","","",""
"","response","","html-keyboard-response","129","158983","0.0-1.0-176.0-0.0","0","0","43013","","434","","","75","19","","","1","19","training","adjacent","ED","5","4","L.jpg","R.jpg","1","0","0","",""
"","feedback","","html-keyboard-response","130","159986","0.0-1.0-177.0-0.0","0","0","43013","","null","","","null","19","","","","","","","","","","","","","","","",""
"","time_out","","html-keyboard-response","131","161987","0.0-1.0-179.0-0.0","0","0","43013","","null","","","null","19","","","","","","","","","","","","","","","",""
"","ITI","","html-keyboard-response","132","162989","0.0-1.0-180.0","0","0","43013","","null","","","null","19","","","","","","","","","","","","","","","NaN",""
"","S1","","html-keyboard-response","133","163241","0.0-1.0-182.0","0","0","43013","","null","","","null","20","","","","","","","","","","","","","","","",""
"","ISI","","html-keyboard-response","134","163392","0.0-1.0-183.0","0","0","43013","","null","","","null","20","NaN","","","","","","","","","","","","","","",""
"","S2","","html-keyboard-response","135","163644","0.0-1.0-184.0","0","0","43013","","null","","","null","20","","NaN","","","","","","","","","","","","","",""
"","response","","html-keyboard-response","136","164096","0.0-1.0-185.0-0.0","0","0","43013","","452","","","68","20","","","1","20","training","adjacent","EF","5","6","L.jpg","P.jpg","0","1","0","",""
"","feedback","","html-keyboard-response","137","165099","0.0-1.0-186.0-0.0","0","0","43013","","null","","","null","20","","","","","","","","","","","","","","","",""
"","time_out","","html-keyboard-response","138","167100","0.0-1.0-188.0-0.0","0","0","43013","","null","","","null","20","","","","","","","","","","","","","","","",""
"","ITI","","html-keyboard-response","139","168102","0.0-1.0-189.0","0","0","43013","","null","","","null","20","","","","","","","","","","","","","","","NaN",""
"","S1","","html-keyboard-response","140","168355","0.0-1.0-191.0","0","0","43013","","null","","","null","21","","","","","","","","","","","","","","","",""
"","ISI","","html-keyboard-response","141","168507","0.0-1.0-192.0","0","0","43013","","null","","","null","21","NaN","","","","","","","","","","","","","","",""
"","S2","","html-keyboard-response","142","168758","0.0-1.0-193.0","0","0","43013","","null","","","null","21","","NaN","","","","","","","","","","","","","",""
"","response","","html-keyboard-response","143","169220","0.0-1.0-194.0-0.0","0","0","43013","","460","","","68","21","","","1","21","training","adjacent","AB","1","2","Q.jpg","N.jpg","0","1","0","",""
"","feedback","","html-keyboard-response","144","170221","0.0-1.0-195.0-0.0","0","0","43013","","null","","","null","21","","","","","","","","","","","","","","","",""
"","time_out","","html-keyboard-response","145","172223","0.0-1.0-197.0-0.0","0","0","43013","","null","","","null","21","","","","","","","","","","","","","","","",""
"","ITI","","html-keyboard-response","146","173225","0.0-1.0-198.0","0","0","43013","","null","","","null","21","","","","","","","","","","","","","","","NaN",""
"","S1","","html-keyboard-response","147","173477","0.0-1.0-200.0","0","0","43013","","null","","","null","22","","","","","","","","","","","","","","","",""
"","ISI","","html-keyboard-response","148","173629","0.0-1.0-201.0","0","0","43013","","null","","","null","22","NaN","","","","","","","","","","","","","","",""
"","S2","","html-keyboard-response","149","173880","0.0-1.0-202.0","0","0","43013","","null","","","null","22","","NaN","","","","","","","","","","","","","",""
"","response","","html-keyboard-response","150","174277","0.0-1.0-203.0-0.0","0","0","43013","","397","","","68","22","","","1","22","training","adjacent","EF","5","6","L.jpg","P.jpg","0","1","0","",""
"","feedback","","html-keyboard-response","151","175280","0.0-1.0-204.0-0.0","0","0","43013","","null","","","null","22","","","","","","","","","","","","","","","",""
"","time_out","","html-keyboard-response","152","177282","0.0-1.0-206.0-0.0","0","0","43013","","null","","","null","22","","","","","","","","","","","","","","","",""
"","ITI","","html-keyboard-response","153","178285","0.0-1.0-207.0","0","0","43013","","null","","","null","22","","","","","","","","","","","","","","","NaN",""
"","S1","","html-keyboard-response","154","178537","0.0-1.0-209.0","0","0","43013","","null","","","null","23","","","","","","","","","","","","","","","",""
"","ISI","","html-keyboard-response","155","178689","0.0-1.0-210.0","0","0","43013","","null","","","null","23","NaN","","","","","","","","","","","","","","",""
"","S2","","html-keyboard-response","156","178940","0.0-1.0-211.0","0","0","43013","","null","","","null","23","","NaN","","","","","","","","","","","","","",""
"","response","","html-keyboard-response","157","179277","0.0-1.0-212.0-0.0","0","0","43013","","335","","","75","23","","","1","23","training","adjacent","CD","3","4","M.jpg","R.jpg","1","1","1","",""
"","feedback","","html-keyboard-response","158","180279","0.0-1.0-213.0-0.0","0","0","43013","","null","","","null","23","","","","","","","","","","","","","","","",""
"","ITI","","html-keyboard-response","159","181281","0.0-1.0-216.0","0","0","43013","","null","","","null","23","","","","","","","","","","","","","","","NaN",""
"","S1","","html-keyboard-response","160","181532","0.0-1.0-218.0","0","0","43013","","null","","","null","24","","","","","","","","","","","","","","","",""
"","ISI","","html-keyboard-response","161","181685","0.0-1.0-219.0","0","0","43013","","null","","","null","24","NaN","","","","","","","","","","","","","","",""
"","S2","","html-keyboard-response","162","181937","0.0-1.0-220.0","0","0","43013","","null","","","null","24","","NaN","","","","","","","","","","","","","",""
"","response","","html-keyboard-response","163","182380","0.0-1.0-221.0-0.0","0","0","43013","","442","","","75","24","","","1","24","training","adjacent","GF","7","6","O.jpg","P.jpg","1","0","0","",""
"","feedback","","html-keyboard-response","164","183381","0.0-1.0-222.0-0.0","0","0","43013","","null","","","null","24","","","","","","","","","","","","","","","",""
"","time_out","","html-keyboard-response","165","185384","0.0-1.0-224.0-0.0","0","0","43013","","null","","","null","24","","","","","","","","","","","","","","","",""
"","ITI","","html-keyboard-response","166","186386","0.0-1.0-225.0","0","0","43013","","null","","","null","24","","","","","","","","","","","","","","","NaN",""
"","S1","","html-keyboard-response","167","186638","0.0-1.0-227.0","0","0","43013","","null","","","null","25","","","","","","","","","","","","","","","",""
"","ISI","","html-keyboard-response","168","186791","0.0-1.0-228.0","0","0","43013","","null","","","null","25","NaN","","","","","","","","","","","","","","",""
"","S2","","html-keyboard-response","169","187043","0.0-1.0-229.0","0","0","43013","","null","","","null","25","","NaN","","","","","","","","","","","","","",""
"","response","","html-keyboard-response","170","187335","0.0-1.0-230.0-0.0","0","0","43013","","290","","","75","25","","","1","25","training","adjacent","CB","3","2","M.jpg","N.jpg","1","0","0","",""
"","feedback","","html-keyboard-response","171","188336","0.0-1.0-231.0-0.0","0","0","43013","","null","","","null","25","","","","","","","","","","","","","","","",""
"","time_out","","html-keyboard-response","172","190338","0.0-1.0-233.0-0.0","0","0","43013","","null","","","null","25","","","","","","","","","","","","","","","",""
"","ITI","","html-keyboard-response","173","191340","0.0-1.0-234.0","0","0","43013","","null","","","null","25","","","","","","","","","","","","","","","NaN",""
"","S1","","html-keyboard-response","174","191592","0.0-1.0-236.0","0","0","43013","","null","","","null","26","","","","","","","","","","","","","","","",""
"","ISI","","html-keyboard-response","175","191744","0.0-1.0-237.0","0","0","43013","","null","","","null","26","NaN","","","","","","","","","","","","","","",""
"","S2","","html-keyboard-response","176","191995","0.0-1.0-238.0","0","0","43013","","null","","","null","26","","NaN","","","","","","","","","","","","","",""
"","response","","html-keyboard-response","177","192562","0.0-1.0-239.0-0.0","0","0","43013","","566","","","68","26","","","1","26","training","adjacent","AB","1","2","Q.jpg","N.jpg","0","1","0","",""
"","feedback","","html-keyboard-response","178","193564","0.0-1.0-240.0-0.0","0","0","43013","","null","","","null","26","","","","","","","","","","","","","","","",""
"","time_out","","html-keyboard-response","179","195566","0.0-1.0-242.0-0.0","0","0","43013","","null","","","null","26","","","","","","","","","","","","","","","",""
"","ITI","","html-keyboard-response","180","196569","0.0-1.0-243.0","0","0","43013","","null","","","null","26","","","","","","","","","","","","","","","NaN",""
"","S1","","html-keyboard-response","181","196821","0.0-1.0-245.0","0","0","43013","","null","","","null","27","","","","","","","","","","","","","","","",""
"","ISI","","html-keyboard-response","182","196973","0.0-1.0-246.0","0","0","43013","","null","","","null","27","NaN","","","","","","","","","","","","","","",""
"","S2","","html-keyboard-response","183","197225","0.0-1.0-247.0","0","0","43013","","null","","","null","27","","NaN","","","","","","","","","","","","","",""
"","response","","html-keyboard-response","184","197744","0.0-1.0-248.0-0.0","0","0","43013","","518","","","75","27","","","1","27","training","adjacent","CD","3","4","M.jpg","R.jpg","1","1","1","",""
"","feedback","","html-keyboard-response","185","198745","0.0-1.0-249.0-0.0","0","0","43013","","null","","","null","27","","","","","","","","","","","","","","","",""
"","ITI","","html-keyboard-response","186","199747","0.0-1.0-252.0","0","0","43013","","null","","","null","27","","","","","","","","","","","","","","","NaN",""
"","S1","","html-keyboard-response","187","200000","0.0-1.0-254.0","0","0","43013","","null","","","null","28","","","","","","","","","","","","","","","",""
"","ISI","","html-keyboard-response","188","200151","0.0-1.0-255.0","0","0","43013","","null","","","null","28","NaN","","","","","","","","","","","","","","",""
"","S2","","html-keyboard-response","189","200403","0.0-1.0-256.0","0","0","43013","","null","","","null","28","","NaN","","","","","","","","","","","","","",""
"","response","","html-keyboard-response","190","200815","0.0-1.0-257.0-0.0","0","0","43013","","410","","","68","28","","","1","28","training","adjacent","DC","4","3","R.jpg","M.jpg","0","0","1","",""
"","feedback","","html-keyboard-response","191","201817","0.0-1.0-258.0-0.0","0","0","43013","","null","","","null","28","","","","","","","","","","","","","","","",""
"","ITI","","html-keyboard-response","192","202819","0.0-1.0-261.0","0","0","43013","","null","","","null","28","","","","","","","","","","","","","","","NaN",""
"","S1","","html-keyboard-response","193","203070","0.0-1.0-263.0","0","0","43013","","null","","","null","29","","","","","","","","","","","","","","","",""
"","ISI","","html-keyboard-response","194","203222","0.0-1.0-264.0","0","0","43013","","null","","","null","29","NaN","","","","","","","","","","","","","","",""
"","S2","","html-keyboard-response","195","203474","0.0-1.0-265.0","0","0","43013","","null","","","null","29","","NaN","","","","","","","","","","","","","",""
"","response","","html-keyboard-response","196","203923","0.0-1.0-266.0-0.0","0","0","43013","","449","","","75","29","","","1","29","training","adjacent","BA","2","1","N.jpg","Q.jpg","1","0","0","",""
"","feedback","","html-keyboard-response","197","204925","0.0-1.0-267.0-0.0","0","0","43013","","null","","","null","29","","","","","","","","","","","","","","","",""
"","time_out","","html-keyboard-response","198","206927","0.0-1.0-269.0-0.0","0","0","43013","","null","","","null","29","","","","","","","","","","","","","","","",""
"","ITI","","html-keyboard-response","199","207929","0.0-1.0-270.0","0","0","43013","","null","","","null","29","","","","","","","","","","","","","","","NaN",""
"","S1","","html-keyboard-response","200","208181","0.0-1.0-272.0","0","0","43013","","null","","","null","30","","","","","","","","","","","","","","","",""
"","ISI","","html-keyboard-response","201","208334","0.0-1.0-273.0","0","0","43013","","null","","","null","30","NaN","","","","","","","","","","","","","","",""
"","S2","","html-keyboard-response","202","208586","0.0-1.0-274.0","0","0","43013","","null","","","null","30","","NaN","","","","","","","","","","","","","",""
"","response","","html-keyboard-response","203","208715","0.0-1.0-275.0-0.0","0","0","43013","","128","","","68","30","","","1","30","training","adjacent","DE","4","5","R.jpg","L.jpg","0","1","0","",""
"","feedback","","html-keyboard-response","204","209717","0.0-1.0-276.0-0.0","0","0","43013","","null","","","null","30","","","","","","","","","","","","","","","",""
"","time_out","","html-keyboard-response","205","211719","0.0-1.0-278.0-0.0","0","0","43013","","null","","","null","30","","","","","","","","","","","","","","","",""
"","ITI","","html-keyboard-response","206","212721","0.0-1.0-279.0","0","0","43013","","null","","","null","30","","","","","","","","","","","","","","","NaN",""
"","S1","","html-keyboard-response","207","212973","0.0-1.0-281.0","0","0","43013","","null","","","null","31","","","","","","","","","","","","","","","",""
"","ISI","","html-keyboard-response","208","213124","0.0-1.0-282.0","0","0","43013","","null","","","null","31","NaN","","","","","","","","","","","","","","",""
"","S2","","html-keyboard-response","209","213376","0.0-1.0-283.0","0","0","43013","","null","","","null","31","","NaN","","","","","","","","","","","","","",""
"","response","","html-keyboard-response","210","213473","0.0-1.0-284.0-0.0","0","0","43013","","96","","","75","31","","","1","31","training","adjacent","DE","4","5","R.jpg","L.jpg","1","1","1","",""
"","feedback","","html-keyboard-response","211","214475","0.0-1.0-285.0-0.0","0","0","43013","","null","","","null","31","","","","","","","","","","","","","","","",""
"","ITI","","html-keyboard-response","212","215477","0.0-1.0-288.0","0","0","43013","","null","","","null","31","","","","","","","","","","","","","","","NaN",""
"","S1","","html-keyboard-response","213","215729","0.0-1.0-290.0","0","0","43013","","null","","","null","32","","","","","","","","","","","","","","","",""
"","ISI","","html-keyboard-response","214","215881","0.0-1.0-291.0","0","0","43013","","null","","","null","32","NaN","","","","","","","","","","","","","","",""
"","S2","","html-keyboard-response","215","216132","0.0-1.0-292.0","0","0","43013","","null","","","null","32","","NaN","","","","","","","","","","","","","",""
"","response","","html-keyboard-response","216","216676","0.0-1.0-293.0-0.0","0","0","43013","","544","","","75","32","","","1","32","training","adjacent","ED","5","4","L.jpg","R.jpg","1","0","0","",""
"","feedback","","html-keyboard-response","217","217678","0.0-1.0-294.0-0.0","0","0","43013","","null","","","null","32","","","","","","","","","","","","","","","",""
"","time_out","","html-keyboard-response","218","219681","0.0-1.0-296.0-0.0","0","0","43013","","null","","","null","32","","","","","","","","","","","","","","","",""
"","ITI","","html-keyboard-response","219","220682","0.0-1.0-297.0","0","0","43013","","null","","","null","32","","","","","","","","","","","","","","","NaN",""
"","S1","","html-keyboard-response","220","220934","0.0-1.0-299.0","0","0","43013","","null","","","null","33","","","","","","","","","","","","","","","",""
"","ISI","","html-keyboard-response","221","221086","0.0-1.0-300.0","0","0","43013","","69","","","68","33","d","","","","","","","","","","","","","","",""
"","S2","","html-keyboard-response","222","221338","0.0-1.0-301.0","0","0","43013","","null","","","null","33","","NaN","","","","","","","","","","","","","",""
"","response","","html-keyboard-response","223","221785","0.0-1.0-302.0-0.0","0","0","43013","","446","","","68","33","","","1","33","training","adjacent","ED","5","4","L.jpg","R.jpg","0","0","1","",""
"","feedback","","html-keyboard-response","224","222787","0.0-1.0-303.0-0.0","0","0","43013","","null","","","null","33","","","","","","","","","","","","","","","",""
"","ITI","","html-keyboard-response","225","223789","0.0-1.0-306.0","0","0","43013","","null","","","null","33","","","","","","","","","","","","","","","NaN",""
"","S1","","html-keyboard-response","226","224040","0.0-1.0-308.0","0","0","43013","","null","","","null","34","","","","","","","","","","","","","","","",""
"","ISI","","html-keyboard-response","227","224192","0.0-1.0-309.0","0","0","43013","","null","","","null","34","NaN","","","","","","","","","","","","","","",""
"","S2","","html-keyboard-response","228","224444","0.0-1.0-310.0","0","0","43013","","null","","","null","34","","NaN","","","","","","","","","","","","","",""
"","response","","html-keyboard-response","229","224836","0.0-1.0-311.0-0.0","0","0","43013","","391","","","75","34","","","1","34","training","adjacent","CD","3","4","M.jpg","R.jpg","1","1","1","",""
"","feedback","","html-keyboard-response","230","225838","0.0-1.0-312.0-0.0","0","0","43013","","null","","","null","34","","","","","","","","","","","","","","","",""
"","ITI","","html-keyboard-response","231","226840","0.0-1.0-315.0","0","0","43013","","null","","","null","34","","","","","","","","","","","","","","","NaN",""
"","S1","","html-keyboard-response","232","227093","0.0-1.0-317.0","0","0","43013","","null","","","null","35","","","","","","","","","","","","","","","",""
"","ISI","","html-keyboard-response","233","227245","0.0-1.0-318.0","0","0","43013","","null","","","null","35","NaN","","","","","","","","","","","","","","",""
"","S2","","html-keyboard-response","234","227498","0.0-1.0-319.0","0","0","43013","","null","","","null","35","","NaN","","","","","","","","","","","","","",""
"","response","","html-keyboard-response","235","228001","0.0-1.0-320.0-0.0","0","0","43013","","502","","","68","35","","","1","35","training","adjacent","BC","2","3","N.jpg","M.jpg","0","1","0","",""
"","feedback","","html-keyboard-response","236","229004","0.0-1.0-321.0-0.0","0","0","43013","","null","","","null","35","","","","","","","","","","","","","","","",""
"","time_out","","html-keyboard-response","237","231006","0.0-1.0-323.0-0.0","0","0","43013","","null","","","null","35","","","","","","","","","","","","","","","",""
"","ITI","","html-keyboard-response","238","232007","0.0-1.0-324.0","0","0","43013","","null","","","null","35","","","","","","","","","","","","","","","NaN",""
"","S1","","html-keyboard-response","239","232259","0.0-1.0-326.0","0","0","43013","","null","","","null","36","","","","","","","","","","","","","","","",""
"","ISI","","html-keyboard-response","240","232412","0.0-1.0-327.0","0","0","43013","","null","","","null","36","NaN","","","","","","","","","","","","","","",""
"","S2","","html-keyboard-response","241","232664","0.0-1.0-328.0","0","0","43013","","null","","","null","36","","NaN","","","","","","","","","","","","","",""
"","response","","html-keyboard-response","242","233018","0.0-1.0-329.0-0.0","0","0","43013","","354","","","75","36","","","1","36","training","adjacent","BA","2","1","N.jpg","Q.jpg","1","0","0","",""
"","feedback","","html-keyboard-response","243","234021","0.0-1.0-330.0-0.0","0","0","43013","","null","","","null","36","","","","","","","","","","","","","","","",""
"","time_out","","html-keyboard-response","244","236024","0.0-1.0-332.0-0.0","0","0","43013","","null","","","null","36","","","","","","","","","","","","","","","",""
"","ITI","","html-keyboard-response","245","237025","0.0-1.0-333.0","0","0","43013","","null","","","null","36","","","","","","","","","","","","","","","NaN",""
"","S1","","html-keyboard-response","246","237277","0.0-1.0-335.0","0","0","43013","","null","","","null","37","","","","","","","","","","","","","","","",""
"","ISI","","html-keyboard-response","247","237429","0.0-1.0-336.0","0","0","43013","","null","","","null","37","NaN","","","","","","","","","","","","","","",""
"","S2","","html-keyboard-response","248","237681","0.0-1.0-337.0","0","0","43013","","null","","","null","37","","NaN","","","","","","","","","","","","","",""
"","response","","html-keyboard-response","249","238060","0.0-1.0-338.0-0.0","0","0","43013","","377","","","68","37","","","1","37","training","adjacent","CB","3","2","M.jpg","N.jpg","0","0","1","",""
"","feedback","","html-keyboard-response","250","239061","0.0-1.0-339.0-0.0","0","0","43013","","null","","","null","37","","","","","","","","","","","","","","","",""
"","ITI","","html-keyboard-response","251","240064","0.0-1.0-342.0","0","0","43013","","null","","","null","37","","","","","","","","","","","","","","","NaN",""
"","S1","","html-keyboard-response","252","240316","0.0-1.0-344.0","0","0","43013","","null","","","null","38","","","","","","","","","","","","","","","",""
"","ISI","","html-keyboard-response","253","240469","0.0-1.0-345.0","0","0","43013","","null","","","null","38","NaN","","","","","","","","","","","","","","",""
"","S2","","html-keyboard-response","254","240721","0.0-1.0-346.0","0","0","43013","","null","","","null","38","","NaN","","","","","","","","","","","","","",""
"","response","","html-keyboard-response","255","241330","0.0-1.0-347.0-0.0","0","0","43013","","608","","","75","38","","","1","38","training","adjacent","FG","6","7","P.jpg","O.jpg","1","1","1","",""
"","feedback","","html-keyboard-response","256","242332","0.0-1.0-348.0-0.0","0","0","43013","","null","","","null","38","","","","","","","","","","","","","","","",""
"","ITI","","html-keyboard-response","257","243333","0.0-1.0-351.0","0","0","43013","","null","","","null","38","","","","","","","","","","","","","","","NaN",""
"","S1","","html-keyboard-response","258","243586","0.0-1.0-353.0","0","0","43013","","null","","","null","39","","","","","","","","","","","","","","","",""
"","ISI","","html-keyboard-response","259","243738","0.0-1.0-354.0","0","0","43013","","null","","","null","39","NaN","","","","","","","","","","","","","","",""
"","S2","","html-keyboard-response","260","243989","0.0-1.0-355.0","0","0","43013","","null","","","null","39","","NaN","","","","","","","","","","","","","",""
"","response","","html-keyboard-response","261","244429","0.0-1.0-356.0-0.0","0","0","43013","","439","","","68","39","","","1","39","training","adjacent","CD","3","4","M.jpg","R.jpg","0","1","0","",""
"","feedback","","html-keyboard-response","262","245432","0.0-1.0-357.0-0.0","0","0","43013","","null","","","null","39","","","","","","","","","","","","","","","",""
"","time_out","","html-keyboard-response","263","247434","0.0-1.0-359.0-0.0","0","0","43013","","null","","","null","39","","","","","","","","","","","","","","","",""
"","ITI","","html-keyboard-response","264","248435","0.0-1.0-360.0","0","0","43013","","null","","","null","39","","","","","","","","","","","","","","","NaN",""
"","S1","","html-keyboard-response","265","248688","0.0-1.0-362.0","0","0","43013","","null","","","null","40","","","","","","","","","","","","","","","",""
"","ISI","","html-keyboard-response","266","248840","0.0-1.0-363.0","0","0","43013","","null","","","null","40","NaN","","","","","","","","","","","","","","",""
"","S2","","html-keyboard-response","267","249094","0.0-1.0-364.0","0","0","43013","","null","","","null","40","","NaN","","","","","","","","","","","","","",""
"","response","","html-keyboard-response","268","249458","0.0-1.0-365.0-0.0","0","0","43013","","363","","","75","40","","","1","40","training","adjacent","FG","6","7","P.jpg","O.jpg","1","1","1","",""
"","feedback","","html-keyboard-response","269","250460","0.0-1.0-366.0-0.0","0","0","43013","","null","","","null","40","","","","","","","","","","","","","","","",""
"","ITI","","html-keyboard-response","270","251462","0.0-1.0-369.0","0","0","43013","","null","","","null","40","","","","","","","","","","","","","","","NaN",""
"","S1","","html-keyboard-response","271","251714","0.0-1.0-371.0","0","0","43013","","null","","","null","41","","","","","","","","","","","","","","","",""
"","ISI","","html-keyboard-response","272","251865","0.0-1.0-372.0","0","0","43013","","null","","","null","41","NaN","","","","","","","","","","","","","","",""
"","S2","","html-keyboard-response","273","252118","0.0-1.0-373.0","0","0","43013","","null","","","null","41","","NaN","","","","","","","","","","","","","",""
"","response","","html-keyboard-response","274","252700","0.0-1.0-374.0-0.0","0","0","43013","","581","","","75","41","","","1","41","training","adjacent","FG","6","7","P.jpg","O.jpg","1","1","1","",""
"","feedback","","html-keyboard-response","275","253703","0.0-1.0-375.0-0.0","0","0","43013","","null","","","null","41","","","","","","","","","","","","","","","",""
"","ITI","","html-keyboard-response","276","254704","0.0-1.0-378.0","0","0","43013","","null","","","null","41","","","","","","","","","","","","","","","NaN",""
"","S1","","html-keyboard-response","277","254957","0.0-1.0-380.0","0","0","43013","","null","","","null","42","","","","","","","","","","","","","","","",""
"","ISI","","html-keyboard-response","278","255109","0.0-1.0-381.0","0","0","43013","","null","","","null","42","NaN","","","","","","","","","","","","","","",""
"","S2","","html-keyboard-response","279","255360","0.0-1.0-382.0","0","0","43013","","null","","","null","42","","NaN","","","","","","","","","","","","","",""
"","response","","html-keyboard-response","280","255751","0.0-1.0-383.0-0.0","0","0","43013","","390","","","75","42","","","1","42","training","adjacent","GF","7","6","O.jpg","P.jpg","1","0","0","",""
"","feedback","","html-keyboard-response","281","256753","0.0-1.0-384.0-0.0","0","0","43013","","null","","","null","42","","","","","","","","","","","","","","","",""
"","time_out","","html-keyboard-response","282","258755","0.0-1.0-386.0-0.0","0","0","43013","","null","","","null","42","","","","","","","","","","","","","","","",""
"","ITI","","html-keyboard-response","283","259757","0.0-1.0-387.0","0","0","43013","","null","","","null","42","","","","","","","","","","","","","","","NaN",""
"","S1","","html-keyboard-response","284","260009","0.0-1.0-389.0","0","0","43013","","null","","","null","43","","","","","","","","","","","","","","","",""
"","ISI","","html-keyboard-response","285","260161","0.0-1.0-390.0","0","0","43013","","null","","","null","43","NaN","","","","","","","","","","","","","","",""
"","S2","","html-keyboard-response","286","260413","0.0-1.0-391.0","0","0","43013","","null","","","null","43","","NaN","","","","","","","","","","","","","",""
"","response","","html-keyboard-response","287","260969","0.0-1.0-392.0-0.0","0","0","43013","","554","","","68","43","","","1","43","training","adjacent","EF","5","6","L.jpg","P.jpg","0","1","0","",""
"","feedback","","html-keyboard-response","288","261972","0.0-1.0-393.0-0.0","0","0","43013","","null","","","null","43","","","","","","","","","","","","","","","",""
"","time_out","","html-keyboard-response","289","263973","0.0-1.0-395.0-0.0","0","0","43013","","null","","","null","43","","","","","","","","","","","","","","","",""
"","ITI","","html-keyboard-response","290","264975","0.0-1.0-396.0","0","0","43013","","null","","","null","43","","","","","","","","","","","","","","","NaN",""
"","S1","","html-keyboard-response","291","265227","0.0-1.0-398.0","0","0","43013","","null","","","null","44","","","","","","","","","","","","","","","",""
"","ISI","","html-keyboard-response","292","265379","0.0-1.0-399.0","0","0","43013","","null","","","null","44","NaN","","","","","","","","","","","","","","",""
"","S2","","html-keyboard-response","293","265632","0.0-1.0-400.0","0","0","43013","","null","","","null","44","","NaN","","","","","","","","","","","","","",""
"","response","","html-keyboard-response","294","266063","0.0-1.0-401.0-0.0","0","0","43013","","430","","","75","44","","","1","44","training","adjacent","DC","4","3","R.jpg","M.jpg","1","0","0","",""
"","feedback","","html-keyboard-response","295","267065","0.0-1.0-402.0-0.0","0","0","43013","","null","","","null","44","","","","","","","","","","","","","","","",""
"","time_out","","html-keyboard-response","296","269067","0.0-1.0-404.0-0.0","0","0","43013","","null","","","null","44","","","","","","","","","","","","","","","",""
"","ITI","","html-keyboard-response","297","270069","0.0-1.0-405.0","0","0","43013","","null","","","null","44","","","","","","","","","","","","","","","NaN",""
"","S1","","html-keyboard-response","298","270321","0.0-1.0-407.0","0","0","43013","","null","","","null","45","","","","","","","","","","","","","","","",""
"","ISI","","html-keyboard-response","299","270472","0.0-1.0-408.0","0","0","43013","","null","","","null","45","NaN","","","","","","","","","","","","","","",""
"","S2","","html-keyboard-response","300","270724","0.0-1.0-409.0","0","0","43013","","null","","","null","45","","NaN","","","","","","","","","","","","","",""
"","response","","html-keyboard-response","301","271142","0.0-1.0-410.0-0.0","0","0","43013","","417","","","68","45","","","1","45","training","adjacent","BC","2","3","N.jpg","M.jpg","0","1","0","",""
"","feedback","","html-keyboard-response","302","272145","0.0-1.0-411.0-0.0","0","0","43013","","null","","","null","45","","","","","","","","","","","","","","","",""
"","time_out","","html-keyboard-response","303","274147","0.0-1.0-413.0-0.0","0","0","43013","","null","","","null","45","","","","","","","","","","","","","","","",""
"","ITI","","html-keyboard-response","304","275149","0.0-1.0-414.0","0","0","43013","","null","","","null","45","","","","","","","","","","","","","","","NaN",""
"","S1","","html-keyboard-response","305","275401","0.0-1.0-416.0","0","0","43013","","null","","","null","46","","","","","","","","","","","","","","","",""
"","ISI","","html-keyboard-response","306","275552","0.0-1.0-417.0","0","0","43013","","124","","","75","46","k","","","","","","","","","","","","","","",""
"","S2","","html-keyboard-response","307","275804","0.0-1.0-418.0","0","0","43013","","null","","","null","46","","NaN","","","","","","","","","","","","","",""
"","response","","html-keyboard-response","308","276281","0.0-1.0-419.0-0.0","0","0","43013","","476","","","75","46","","","1","46","training","adjacent","BA","2","1","N.jpg","Q.jpg","1","0","0","",""
"","feedback","","html-keyboard-response","309","277282","0.0-1.0-420.0-0.0","0","0","43013","","null","","","null","46","","","","","","","","","","","","","","","",""
"","time_out","","html-keyboard-response","310","279284","0.0-1.0-422.0-0.0","0","0","43013","","null","","","null","46","","","","","","","","","","","","","","","",""
"","ITI","","html-keyboard-response","311","280286","0.0-1.0-423.0","0","0","43013","","null","","","null","46","","","","","","","","","","","","","","","NaN",""
"","S1","","html-keyboard-response","312","280539","0.0-1.0-425.0","0","0","43013","","null","","","null","47","","","","","","","","","","","","","","","",""
"","ISI","","html-keyboard-response","313","280690","0.0-1.0-426.0","0","0","43013","","null","","","null","47","NaN","","","","","","","","","","","","","","",""
"","S2","","html-keyboard-response","314","280943","0.0-1.0-427.0","0","0","43013","","null","","","null","47","","NaN","","","","","","","","","","","","","",""
"","response","","html-keyboard-response","315","281168","0.0-1.0-428.0-0.0","0","0","43013","","225","","","68","47","","","1","47","training","adjacent","ED","5","4","L.jpg","R.jpg","0","0","1","",""
"","feedback","","html-keyboard-response","316","282170","0.0-1.0-429.0-0.0","0","0","43013","","null","","","null","47","","","","","","","","","","","","","","","",""
"","ITI","","html-keyboard-response","317","283173","0.0-1.0-432.0","0","0","43013","","null","","","null","47","","","","","","","","","","","","","","","NaN",""
"","block_over","","html-keyboard-response","318","299671","0.0-1.0-433.0-0.0","0","0","43013","","16497","","","32","47","","","","","","","","","","","","","","","",""
"","S1","","html-keyboard-response","319","299923","0.0-1.0-434.0","0","0","43013","","null","","","null","48","","","","","","","","","","","","","","","",""
"","ISI","","html-keyboard-response","320","300076","0.0-1.0-435.0","0","0","43013","","null","","","null","48","NaN","","","","","","","","","","","","","","",""
"","S2","","html-keyboard-response","321","300327","0.0-1.0-436.0","0","0","43013","","null","","","null","48","","NaN","","","","","","","","","","","","","",""
"","response","","html-keyboard-response","322","300771","0.0-1.0-437.0-0.0","0","0","43013","","443","","","75","48","","","2","48","training","adjacent","DE","4","5","R.jpg","L.jpg","1","1","1","",""
"","feedback","","html-keyboard-response","323","301773","0.0-1.0-438.0-0.0","0","0","43013","","null","","","null","48","","","","","","","","","","","","","","","",""
"","ITI","","html-keyboard-response","324","302776","0.0-1.0-441.0","0","0","43013","","null","","","null","48","","","","","","","","","","","","","","","NaN",""
"","S1","","html-keyboard-response","325","303029","0.0-1.0-443.0","0","0","43013","","null","","","null","49","","","","","","","","","","","","","","","",""
"","ISI","","html-keyboard-response","326","303180","0.0-1.0-444.0","0","0","43013","","null","","","null","49","NaN","","","","","","","","","","","","","","",""
"","S2","","html-keyboard-response","327","303433","0.0-1.0-445.0","0","0","43013","","null","","","null","49","","NaN","","","","","","","","","","","","","",""
"","response","","html-keyboard-response","328","303931","0.0-1.0-446.0-0.0","0","0","43013","","497","","","68","49","","","2","49","training","adjacent","FG","6","7","P.jpg","O.jpg","0","1","0","",""
"","feedback","","html-keyboard-response","329","304933","0.0-1.0-447.0-0.0","0","0","43013","","null","","","null","49","","","","","","","","","","","","","","","",""
"","time_out","","html-keyboard-response","330","306934","0.0-1.0-449.0-0.0","0","0","43013","","null","","","null","49","","","","","","","","","","","","","","","",""
"","ITI","","html-keyboard-response","331","307936","0.0-1.0-450.0","0","0","43013","","null","","","null","49","","","","","","","","","","","","","","","NaN",""
"","S1","","html-keyboard-response","332","308189","0.0-1.0-452.0","0","0","43013","","null","","","null","50","","","","","","","","","","","","","","","",""
"","ISI","","html-keyboard-response","333","308340","0.0-1.0-453.0","0","0","43013","","null","","","null","50","NaN","","","","","","","","","","","","","","",""
"","S2","","html-keyboard-response","334","308593","0.0-1.0-454.0","0","0","43013","","null","","","null","50","","NaN","","","","","","","","","","","","","",""
"","response","","html-keyboard-response","335","309069","0.0-1.0-455.0-0.0","0","0","43013","","476","","","75","50","","","2","50","training","adjacent","DC","4","3","R.jpg","M.jpg","1","0","0","",""
"","feedback","","html-keyboard-response","336","310071","0.0-1.0-456.0-0.0","0","0","43013","","null","","","null","50","","","","","","","","","","","","","","","",""
"","time_out","","html-keyboard-response","337","312073","0.0-1.0-458.0-0.0","0","0","43013","","null","","","null","50","","","","","","","","","","","","","","","",""
"","ITI","","html-keyboard-response","338","313074","0.0-1.0-459.0","0","0","43013","","null","","","null","50","","","","","","","","","","","","","","","NaN",""
"","S1","","html-keyboard-response","339","313326","0.0-1.0-461.0","0","0","43013","","null","","","null","51","","","","","","","","","","","","","","","",""
"","ISI","","html-keyboard-response","340","313479","0.0-1.0-462.0","0","0","43013","","null","","","null","51","NaN","","","","","","","","","","","","","","",""
"","S2","","html-keyboard-response","341","313731","0.0-1.0-463.0","0","0","43013","","null","","","null","51","","NaN","","","","","","","","","","","","","",""
"","response","","html-keyboard-response","342","314172","0.0-1.0-464.0-0.0","0","0","43013","","439","","","68","51","","","2","51","training","adjacent","FE","6","5","P.jpg","L.jpg","0","0","1","",""
"","feedback","","html-keyboard-response","343","315174","0.0-1.0-465.0-0.0","0","0","43013","","null","","","null","51","","","","","","","","","","","","","","","",""
"","ITI","","html-keyboard-response","344","316176","0.0-1.0-468.0","0","0","43013","","null","","","null","51","","","","","","","","","","","","","","","NaN",""
"","S1","","html-keyboard-response","345","316427","0.0-1.0-470.0","0","0","43013","","null","","","null","52","","","","","","","","","","","","","","","",""
"","ISI","","html-keyboard-response","346","316578","0.0-1.0-471.0","0","0","43013","","null","","","null","52","NaN","","","","","","","","","","","","","","",""
"","S2","","html-keyboard-response","347","316831","0.0-1.0-472.0","0","0","43013","","null","","","null","52","","NaN","","","","","","","","","","","","","",""
"","response","","html-keyboard-response","348","317330","0.0-1.0-473.0-0.0","0","0","43013","","499","","","75","52","","","2","52","training","adjacent","BA","2","1","N.jpg","Q.jpg","1","0","0","",""
"","feedback","","html-keyboard-response","349","318332","0.0-1.0-474.0-0.0","0","0","43013","","null","","","null","52","","","","","","","","","","","","","","","",""
"","time_out","","html-keyboard-response","350","320335","0.0-1.0-476.0-0.0","0","0","43013","","null","","","null","52","","","","","","","","","","","","","","","",""
"","ITI","","html-keyboard-response","351","321336","0.0-1.0-477.0","0","0","43013","","null","","","null","52","","","","","","","","","","","","","","","NaN",""
"","S1","","html-keyboard-response","352","321589","0.0-1.0-479.0","0","0","43013","","null","","","null","53","","","","","","","","","","","","","","","",""
"","ISI","","html-keyboard-response","353","321741","0.0-1.0-480.0","0","0","43013","","null","","","null","53","NaN","","","","","","","","","","","","","","",""
"","S2","","html-keyboard-response","354","321993","0.0-1.0-481.0","0","0","43013","","null","","","null","53","","NaN","","","","","","","","","","","","","",""
"","response","","html-keyboard-response","355","322328","0.0-1.0-482.0-0.0","0","0","43013","","333","","","75","53","","","2","53","training","adjacent","CD","3","4","M.jpg","R.jpg","1","1","1","",""
"","feedback","","html-keyboard-response","356","323330","0.0-1.0-483.0-0.0","0","0","43013","","null","","","null","53","","","","","","","","","","","","","","","",""
"","ITI","","html-keyboard-response","357","324333","0.0-1.0-486.0","0","0","43013","","null","","","null","53","","","","","","","","","","","","","","","NaN",""
"","S1","","html-keyboard-response","358","324585","0.0-1.0-488.0","0","0","43013","","null","","","null","54","","","","","","","","","","","","","","","",""
"","ISI","","html-keyboard-response","359","324737","0.0-1.0-489.0","0","0","43013","","null","","","null","54","NaN","","","","","","","","","","","","","","",""
"","S2","","html-keyboard-response","360","324988","0.0-1.0-490.0","0","0","43013","","null","","","null","54","","NaN","","","","","","","","","","","","","",""
"","response","","html-keyboard-response","361","325461","0.0-1.0-491.0-0.0","0","0","43013","","472","","","68","54","","","2","54","training","adjacent","AB","1","2","Q.jpg","N.jpg","0","1","0","",""
"","feedback","","html-keyboard-response","362","326463","0.0-1.0-492.0-0.0","0","0","43013","","null","","","null","54","","","","","","","","","","","","","","","",""
"","time_out","","html-keyboard-response","363","328465","0.0-1.0-494.0-0.0","0","0","43013","","null","","","null","54","","","","","","","","","","","","","","","",""
"","ITI","","html-keyboard-response","364","329466","0.0-1.0-495.0","0","0","43013","","null","","","null","54","","","","","","","","","","","","","","","NaN",""
"","S1","","html-keyboard-response","365","329719","0.0-1.0-497.0","0","0","43013","","null","","","null","55","","","","","","","","","","","","","","","",""
"","ISI","","html-keyboard-response","366","329871","0.0-1.0-498.0","0","0","43013","","null","","","null","55","NaN","","","","","","","","","","","","","","",""
"","S2","","html-keyboard-response","367","330124","0.0-1.0-499.0","0","0","43013","","null","","","null","55","","NaN","","","","","","","","","","","","","",""
"","response","","html-keyboard-response","368","330397","0.0-1.0-500.0-0.0","0","0","43013","","272","","","75","55","","","2","55","training","adjacent","DE","4","5","R.jpg","L.jpg","1","1","1","",""
"","feedback","","html-keyboard-response","369","331399","0.0-1.0-501.0-0.0","0","0","43013","","null","","","null","55","","","","","","","","","","","","","","","",""
"","ITI","","html-keyboard-response","370","332401","0.0-1.0-504.0","0","0","43013","","null","","","null","55","","","","","","","","","","","","","","","NaN",""
"","S1","","html-keyboard-response","371","332654","0.0-1.0-506.0","0","0","43013","","null","","","null","56","","","","","","","","","","","","","","","",""
"","ISI","","html-keyboard-response","372","332805","0.0-1.0-507.0","0","0","43013","","null","","","null","56","NaN","","","","","","","","","","","","","","",""
"","S2","","html-keyboard-response","373","333057","0.0-1.0-508.0","0","0","43013","","null","","","null","56","","NaN","","","","","","","","","","","","","",""
"","response","","html-keyboard-response","374","333551","0.0-1.0-509.0-0.0","0","0","43013","","493","","","75","56","","","2","56","training","adjacent","AB","1","2","Q.jpg","N.jpg","1","1","1","",""
"","feedback","","html-keyboard-response","375","334553","0.0-1.0-510.0-0.0","0","0","43013","","null","","","null","56","","","","","","","","","","","","","","","",""
"","ITI","","html-keyboard-response","376","335555","0.0-1.0-513.0","0","0","43013","","null","","","null","56","","","","","","","","","","","","","","","NaN",""
"","S1","","html-keyboard-response","377","335808","0.0-1.0-515.0","0","0","43013","","null","","","null","57","","","","","","","","","","","","","","","",""
"","ISI","","html-keyboard-response","378","335961","0.0-1.0-516.0","0","0","43013","","null","","","null","57","NaN","","","","","","","","","","","","","","",""
"","S2","","html-keyboard-response","379","336213","0.0-1.0-517.0","0","0","43013","","null","","","null","57","","NaN","","","","","","","","","","","","","",""
"","response","","html-keyboard-response","380","336659","0.0-1.0-518.0-0.0","0","0","43013","","445","","","68","57","","","2","57","training","adjacent","CB","3","2","M.jpg","N.jpg","0","0","1","",""
"","feedback","","html-keyboard-response","381","337661","0.0-1.0-519.0-0.0","0","0","43013","","null","","","null","57","","","","","","","","","","","","","","","",""
"","ITI","","html-keyboard-response","382","338663","0.0-1.0-522.0","0","0","43013","","null","","","null","57","","","","","","","","","","","","","","","NaN",""
"","S1","","html-keyboard-response","383","338915","0.0-1.0-524.0","0","0","43013","","null","","","null","58","","","","","","","","","","","","","","","",""
"","ISI","","html-keyboard-response","384","339067","0.0-1.0-525.0","0","0","43013","","null","","","null","58","NaN","","","","","","","","","","","","","","",""
"","S2","","html-keyboard-response","385","339319","0.0-1.0-526.0","0","0","43013","","null","","","null","58","","NaN","","","","","","","","","","","","","",""
"","response","","html-keyboard-response","386","339801","0.0-1.0-527.0-0.0","0","0","43013","","481","","","75","58","","","2","58","training","adjacent","EF","5","6","L.jpg","P.jpg","1","1","1","",""
"","feedback","","html-keyboard-response","387","340802","0.0-1.0-528.0-0.0","0","0","43013","","null","","","null","58","","","","","","","","","","","","","","","",""
"","ITI","","html-keyboard-response","388","341804","0.0-1.0-531.0","0","0","43013","","null","","","null","58","","","","","","","","","","","","","","","NaN",""
"","S1","","html-keyboard-response","389","342056","0.0-1.0-533.0","0","0","43013","","null","","","null","59","","","","","","","","","","","","","","","",""
"","ISI","","html-keyboard-response","390","342208","0.0-1.0-534.0","0","0","43013","","null","","","null","59","NaN","","","","","","","","","","","","","","",""
"","S2","","html-keyboard-response","391","342460","0.0-1.0-535.0","0","0","43013","","null","","","null","59","","NaN","","","","","","","","","","","","","",""
"","response","","html-keyboard-response","392","342909","0.0-1.0-536.0-0.0","0","0","43013","","447","","","68","59","","","2","59","training","adjacent","EF","5","6","L.jpg","P.jpg","0","1","0","",""
"","feedback","","html-keyboard-response","393","343911","0.0-1.0-537.0-0.0","0","0","43013","","null","","","null","59","","","","","","","","","","","","","","","",""
"","time_out","","html-keyboard-response","394","345913","0.0-1.0-539.0-0.0","0","0","43013","","null","","","null","59","","","","","","","","","","","","","","","",""
"","ITI","","html-keyboard-response","395","346916","0.0-1.0-540.0","0","0","43013","","null","","","null","59","","","","","","","","","","","","","","","NaN",""
"","S1","","html-keyboard-response","396","347167","0.0-1.0-542.0","0","0","43013","","null","","","null","60","","","","","","","","","","","","","","","",""
"","ISI","","html-keyboard-response","397","347318","0.0-1.0-543.0","0","0","43013","","null","","","null","60","NaN","","","","","","","","","","","","","","",""
"","S2","","html-keyboard-response","398","347569","0.0-1.0-544.0","0","0","43013","","null","","","null","60","","NaN","","","","","","","","","","","","","",""
"","response","","html-keyboard-response","399","347930","0.0-1.0-545.0-0.0","0","0","43013","","360","","","75","60","","","2","60","training","adjacent","BC","2","3","N.jpg","M.jpg","1","1","1","",""
"","feedback","","html-keyboard-response","400","348932","0.0-1.0-546.0-0.0","0","0","43013","","null","","","null","60","","","","","","","","","","","","","","","",""
"","ITI","","html-keyboard-response","401","349933","0.0-1.0-549.0","0","0","43013","","null","","","null","60","","","","","","","","","","","","","","","NaN",""
"","S1","","html-keyboard-response","402","350186","0.0-1.0-551.0","0","0","43013","","null","","","null","61","","","","","","","","","","","","","","","",""
"","ISI","","html-keyboard-response","403","350338","0.0-1.0-552.0","0","0","43013","","null","","","null","61","NaN","","","","","","","","","","","","","","",""
"","S2","","html-keyboard-response","404","350589","0.0-1.0-553.0","0","0","43013","","null","","","null","61","","NaN","","","","","","","","","","","","","",""
"","response","","html-keyboard-response","405","351011","0.0-1.0-554.0-0.0","0","0","43013","","420","","","75","61","","","2","61","training","adjacent","ED","5","4","L.jpg","R.jpg","1","0","0","",""
"","feedback","","html-keyboard-response","406","352013","0.0-1.0-555.0-0.0","0","0","43013","","null","","","null","61","","","","","","","","","","","","","","","",""
"","time_out","","html-keyboard-response","407","354014","0.0-1.0-557.0-0.0","0","0","43013","","null","","","null","61","","","","","","","","","","","","","","","",""
"","ITI","","html-keyboard-response","408","355015","0.0-1.0-558.0","0","0","43013","","null","","","null","61","","","","","","","","","","","","","","","NaN",""
"","S1","","html-keyboard-response","409","355268","0.0-1.0-560.0","0","0","43013","","null","","","null","62","","","","","","","","","","","","","","","",""
"","ISI","","html-keyboard-response","410","355420","0.0-1.0-561.0","0","0","43013","","null","","","null","62","NaN","","","","","","","","","","","","","","",""
"","S2","","html-keyboard-response","411","355671","0.0-1.0-562.0","0","0","43013","","null","","","null","62","","NaN","","","","","","","","","","","","","",""
"","response","","html-keyboard-response","412","356026","0.0-1.0-563.0-0.0","0","0","43013","","353","","","68","62","","","2","62","training","adjacent","BC","2","3","N.jpg","M.jpg","0","1","0","",""
"","feedback","","html-keyboard-response","413","357028","0.0-1.0-564.0-0.0","0","0","43013","","null","","","null","62","","","","","","","","","","","","","","","",""
"","time_out","","html-keyboard-response","414","359029","0.0-1.0-566.0-0.0","0","0","43013","","null","","","null","62","","","","","","","","","","","","","","","",""
"","ITI","","html-keyboard-response","415","360032","0.0-1.0-567.0","0","0","43013","","null","","","null","62","","","","","","","","","","","","","","","NaN",""
"","S1","","html-keyboard-response","416","360285","0.0-1.0-569.0","0","0","43013","","null","","","null","63","","","","","","","","","","","","","","","",""
"","ISI","","html-keyboard-response","417","360437","0.0-1.0-570.0","0","0","43013","","null","","","null","63","NaN","","","","","","","","","","","","","","",""
"","S2","","html-keyboard-response","418","360690","0.0-1.0-571.0","0","0","43013","","null","","","null","63","","NaN","","","","","","","","","","","","","",""
"","response","","html-keyboard-response","419","361066","0.0-1.0-572.0-0.0","0","0","43013","","375","","","75","63","","","2","63","training","adjacent","DC","4","3","R.jpg","M.jpg","1","0","0","",""
"","feedback","","html-keyboard-response","420","362069","0.0-1.0-573.0-0.0","0","0","43013","","null","","","null","63","","","","","","","","","","","","","","","",""
"","time_out","","html-keyboard-response","421","364070","0.0-1.0-575.0-0.0","0","0","43013","","null","","","null","63","","","","","","","","","","","","","","","",""
"","ITI","","html-keyboard-response","422","365072","0.0-1.0-576.0","0","0","43013","","null","","","null","63","","","","","","","","","","","","","","","NaN",""
"","S1","","html-keyboard-response","423","365324","0.0-1.0-578.0","0","0","43013","","null","","","null","64","","","","","","","","","","","","","","","",""
"","ISI","","html-keyboard-response","424","365476","0.0-1.0-579.0","0","0","43013","","null","","","null","64","NaN","","","","","","","","","","","","","","",""
"","S2","","html-keyboard-response","425","365729","0.0-1.0-580.0","0","0","43013","","null","","","null","64","","NaN","","","","","","","","","","","","","",""
"","response","","html-keyboard-response","426","366113","0.0-1.0-581.0-0.0","0","0","43013","","384","","","68","64","","","2","64","training","adjacent","GF","7","6","O.jpg","P.jpg","0","0","1","",""
"","feedback","","html-keyboard-response","427","367115","0.0-1.0-582.0-0.0","0","0","43013","","null","","","null","64","","","","","","","","","","","","","","","",""
"","ITI","","html-keyboard-response","428","368117","0.0-1.0-585.0","0","0","43013","","null","","","null","64","","","","","","","","","","","","","","","NaN",""
"","S1","","html-keyboard-response","429","368369","0.0-1.0-587.0","0","0","43013","","null","","","null","65","","","","","","","","","","","","","","","",""
"","ISI","","html-keyboard-response","430","368521","0.0-1.0-588.0","0","0","43013","","null","","","null","65","NaN","","","","","","","","","","","","","","",""
"","S2","","html-keyboard-response","431","368773","0.0-1.0-589.0","0","0","43013","","null","","","null","65","","NaN","","","","","","","","","","","","","",""
"","response","","html-keyboard-response","432","369246","0.0-1.0-590.0-0.0","0","0","43013","","472","","","75","65","","","2","65","training","adjacent","AB","1","2","Q.jpg","N.jpg","1","1","1","",""
"","feedback","","html-keyboard-response","433","370248","0.0-1.0-591.0-0.0","0","0","43013","","null","","","null","65","","","","","","","","","","","","","","","",""
"","ITI","","html-keyboard-response","434","371251","0.0-1.0-594.0","0","0","43013","","null","","","null","65","","","","","","","","","","","","","","","NaN",""
"","S1","","html-keyboard-response","435","371504","0.0-1.0-596.0","0","0","43013","","null","","","null","66","","","","","","","","","","","","","","","",""
"","ISI","","html-keyboard-response","436","371655","0.0-1.0-597.0","0","0","43013","","null","","","null","66","NaN","","","","","","","","","","","","","","",""
"","S2","","html-keyboard-response","437","371907","0.0-1.0-598.0","0","0","43013","","null","","","null","66","","NaN","","","","","","","","","","","","","",""
"","response","","html-keyboard-response","438","372348","0.0-1.0-599.0-0.0","0","0","43013","","439","","","68","66","","","2","66","training","adjacent","BA","2","1","N.jpg","Q.jpg","0","0","1","",""
"","feedback","","html-keyboard-response","439","373350","0.0-1.0-600.0-0.0","0","0","43013","","null","","","null","66","","","","","","","","","","","","","","","",""
"","ITI","","html-keyboard-response","440","374351","0.0-1.0-603.0","0","0","43013","","null","","","null","66","","","","","","","","","","","","","","","NaN",""
"","S1","","html-keyboard-response","441","374603","0.0-1.0-605.0","0","0","43013","","null","","","null","67","","","","","","","","","","","","","","","",""
"","ISI","","html-keyboard-response","442","374754","0.0-1.0-606.0","0","0","43013","","null","","","null","67","NaN","","","","","","","","","","","","","","",""
"","S2","","html-keyboard-response","443","375006","0.0-1.0-607.0","0","0","43013","","null","","","null","67","","NaN","","","","","","","","","","","","","",""
"","response","","html-keyboard-response","444","375556","0.0-1.0-608.0-0.0","0","0","43013","","549","","","75","67","","","2","67","training","adjacent","EF","5","6","L.jpg","P.jpg","1","1","1","",""
"","feedback","","html-keyboard-response","445","376559","0.0-1.0-609.0-0.0","0","0","43013","","null","","","null","67","","","","","","","","","","","","","","","",""
"","ITI","","html-keyboard-response","446","377560","0.0-1.0-612.0","0","0","43013","","null","","","null","67","","","","","","","","","","","","","","","NaN",""
"","S1","","html-keyboard-response","447","377812","0.0-1.0-614.0","0","0","43013","","null","","","null","68","","","","","","","","","","","","","","","",""
"","ISI","","html-keyboard-response","448","377964","0.0-1.0-615.0","0","0","43013","","null","","","null","68","NaN","","","","","","","","","","","","","","",""
"","S2","","html-keyboard-response","449","378216","0.0-1.0-616.0","0","0","43013","","null","","","null","68","","NaN","","","","","","","","","","","","","",""
"","response","","html-keyboard-response","450","378667","0.0-1.0-617.0-0.0","0","0","43013","","450","","","75","68","","","2","68","training","adjacent","CB","3","2","M.jpg","N.jpg","1","0","0","",""
"","feedback","","html-keyboard-response","451","379669","0.0-1.0-618.0-0.0","0","0","43013","","null","","","null","68","","","","","","","","","","","","","","","",""
"","time_out","","html-keyboard-response","452","381671","0.0-1.0-620.0-0.0","0","0","43013","","null","","","null","68","","","","","","","","","","","","","","","",""
"","ITI","","html-keyboard-response","453","382673","0.0-1.0-621.0","0","0","43013","","null","","","null","68","","","","","","","","","","","","","","","NaN",""
"","S1","","html-keyboard-response","454","382925","0.0-1.0-623.0","0","0","43013","","null","","","null","69","","","","","","","","","","","","","","","",""
"","ISI","","html-keyboard-response","455","383077","0.0-1.0-624.0","0","0","43013","","null","","","null","69","NaN","","","","","","","","","","","","","","",""
"","S2","","html-keyboard-response","456","383328","0.0-1.0-625.0","0","0","43013","","null","","","null","69","","NaN","","","","","","","","","","","","","",""
"","response","","html-keyboard-response","457","383638","0.0-1.0-626.0-0.0","0","0","43013","","308","","","68","69","","","2","69","training","adjacent","DE","4","5","R.jpg","L.jpg","0","1","0","",""
"","feedback","","html-keyboard-response","458","384640","0.0-1.0-627.0-0.0","0","0","43013","","null","","","null","69","","","","","","","","","","","","","","","",""
"","time_out","","html-keyboard-response","459","386641","0.0-1.0-629.0-0.0","0","0","43013","","null","","","null","69","","","","","","","","","","","","","","","",""
"","ITI","","html-keyboard-response","460","387644","0.0-1.0-630.0","0","0","43013","","null","","","null","69","","","","","","","","","","","","","","","NaN",""
"","S1","","html-keyboard-response","461","387896","0.0-1.0-632.0","0","0","43013","","null","","","null","70","","","","","","","","","","","","","","","",""
"","ISI","","html-keyboard-response","462","388047","0.0-1.0-633.0","0","0","43013","","null","","","null","70","NaN","","","","","","","","","","","","","","",""
"","S2","","html-keyboard-response","463","388300","0.0-1.0-634.0","0","0","43013","","null","","","null","70","","NaN","","","","","","","","","","","","","",""
"","response","","html-keyboard-response","464","388696","0.0-1.0-635.0-0.0","0","0","43013","","395","","","75","70","","","2","70","training","adjacent","GF","7","6","O.jpg","P.jpg","1","0","0","",""
"","feedback","","html-keyboard-response","465","389697","0.0-1.0-636.0-0.0","0","0","43013","","null","","","null","70","","","","","","","","","","","","","","","",""
"","time_out","","html-keyboard-response","466","391700","0.0-1.0-638.0-0.0","0","0","43013","","null","","","null","70","","","","","","","","","","","","","","","",""
"","ITI","","html-keyboard-response","467","392701","0.0-1.0-639.0","0","0","43013","","null","","","null","70","","","","","","","","","","","","","","","NaN",""
"","S1","","html-keyboard-response","468","392954","0.0-1.0-641.0","0","0","43013","","null","","","null","71","","","","","","","","","","","","","","","",""
"","ISI","","html-keyboard-response","469","393105","0.0-1.0-642.0","0","0","43013","","null","","","null","71","NaN","","","","","","","","","","","","","","",""
"","S2","","html-keyboard-response","470","393357","0.0-1.0-643.0","0","0","43013","","null","","","null","71","","NaN","","","","","","","","","","","","","",""
"","response","","html-keyboard-response","471","393418","0.0-1.0-644.0-0.0","0","0","43013","","60","","","68","71","","","2","71","training","adjacent","BC","2","3","N.jpg","M.jpg","0","1","0","",""
"","feedback","","html-keyboard-response","472","394419","0.0-1.0-645.0-0.0","0","0","43013","","null","","","null","71","","","","","","","","","","","","","","","",""
"","time_out","","html-keyboard-response","473","396421","0.0-1.0-647.0-0.0","0","0","43013","","null","","","null","71","","","","","","","","","","","","","","","",""
"","ITI","","html-keyboard-response","474","397423","0.0-1.0-648.0","0","0","43013","","null","","","null","71","","","","","","","","","","","","","","","NaN",""
"","S1","","html-keyboard-response","475","397676","0.0-1.0-650.0","0","0","43013","","null","","","null","72","","","","","","","","","","","","","","","",""
"","ISI","","html-keyboard-response","476","397828","0.0-1.0-651.0","0","0","43013","","null","","","null","72","NaN","","","","","","","","","","","","","","",""
"","S2","","html-keyboard-response","477","398080","0.0-1.0-652.0","0","0","43013","","null","","","null","72","","NaN","","","","","","","","","","","","","",""
"","response","","html-keyboard-response","478","398455","0.0-1.0-653.0-0.0","0","0","43013","","374","","","75","72","","","2","72","training","adjacent","BA","2","1","N.jpg","Q.jpg","1","0","0","",""
"","feedback","","html-keyboard-response","479","399458","0.0-1.0-654.0-0.0","0","0","43013","","null","","","null","72","","","","","","","","","","","","","","","",""
"","time_out","","html-keyboard-response","480","401460","0.0-1.0-656.0-0.0","0","0","43013","","null","","","null","72","","","","","","","","","","","","","","","",""
"","ITI","","html-keyboard-response","481","402462","0.0-1.0-657.0","0","0","43013","","null","","","null","72","","","","","","","","","","","","","","","NaN",""
"","S1","","html-keyboard-response","482","402714","0.0-1.0-659.0","0","0","43013","","null","","","null","73","","","","","","","","","","","","","","","",""
"","ISI","","html-keyboard-response","483","402866","0.0-1.0-660.0","0","0","43013","","null","","","null","73","NaN","","","","","","","","","","","","","","",""
"","S2","","html-keyboard-response","484","403118","0.0-1.0-661.0","0","0","43013","","null","","","null","73","","NaN","","","","","","","","","","","","","",""
"","response","","html-keyboard-response","485","403219","0.0-1.0-662.0-0.0","0","0","43013","","100","","","68","73","","","2","73","training","adjacent","FE","6","5","P.jpg","L.jpg","0","0","1","",""
"","feedback","","html-keyboard-response","486","404221","0.0-1.0-663.0-0.0","0","0","43013","","null","","","null","73","","","","","","","","","","","","","","","",""
"","ITI","","html-keyboard-response","487","405223","0.0-1.0-666.0","0","0","43013","","null","","","null","73","","","","","","","","","","","","","","","NaN",""
"","S1","","html-keyboard-response","488","405476","0.0-1.0-668.0","0","0","43013","","null","","","null","74","","","","","","","","","","","","","","","",""
"","ISI","","html-keyboard-response","489","405628","0.0-1.0-669.0","0","0","43013","","null","","","null","74","NaN","","","","","","","","","","","","","","",""
"","S2","","html-keyboard-response","490","405880","0.0-1.0-670.0","0","0","43013","","null","","","null","74","","NaN","","","","","","","","","","","","","",""
"","response","","html-keyboard-response","491","406481","0.0-1.0-671.0-0.0","0","0","43013","","600","","","68","74","","","2","74","training","adjacent","FG","6","7","P.jpg","O.jpg","0","1","0","",""
"","feedback","","html-keyboard-response","492","407483","0.0-1.0-672.0-0.0","0","0","43013","","null","","","null","74","","","","","","","","","","","","","","","",""
"","time_out","","html-keyboard-response","493","409485","0.0-1.0-674.0-0.0","0","0","43013","","null","","","null","74","","","","","","","","","","","","","","","",""
"","ITI","","html-keyboard-response","494","410487","0.0-1.0-675.0","0","0","43013","","null","","","null","74","","","","","","","","","","","","","","","NaN",""
"","S1","","html-keyboard-response","495","410738","0.0-1.0-677.0","0","0","43013","","null","","","null","75","","","","","","","","","","","","","","","",""
"","ISI","","html-keyboard-response","496","410890","0.0-1.0-678.0","0","0","43013","","null","","","null","75","NaN","","","","","","","","","","","","","","",""
"","S2","","html-keyboard-response","497","411142","0.0-1.0-679.0","0","0","43013","","null","","","null","75","","NaN","","","","","","","","","","","","","",""
"","response","","html-keyboard-response","498","411581","0.0-1.0-680.0-0.0","0","0","43013","","437","","","68","75","","","2","75","training","adjacent","GF","7","6","O.jpg","P.jpg","0","0","1","",""
"","feedback","","html-keyboard-response","499","412583","0.0-1.0-681.0-0.0","0","0","43013","","null","","","null","75","","","","","","","","","","","","","","","",""
"","ITI","","html-keyboard-response","500","413586","0.0-1.0-684.0","0","0","43013","","null","","","null","75","","","","","","","","","","","","","","","NaN",""
"","S1","","html-keyboard-response","501","413838","0.0-1.0-686.0","0","0","43013","","null","","","null","76","","","","","","","","","","","","","","","",""
"","ISI","","html-keyboard-response","502","413991","0.0-1.0-687.0","0","0","43013","","null","","","null","76","NaN","","","","","","","","","","","","","","",""
"","S2","","html-keyboard-response","503","414243","0.0-1.0-688.0","0","0","43013","","null","","","null","76","","NaN","","","","","","","","","","","","","",""
"","response","","html-keyboard-response","504","414593","0.0-1.0-689.0-0.0","0","0","43013","","349","","","75","76","","","2","76","training","adjacent","CB","3","2","M.jpg","N.jpg","1","0","0","",""
"","feedback","","html-keyboard-response","505","415595","0.0-1.0-690.0-0.0","0","0","43013","","null","","","null","76","","","","","","","","","","","","","","","",""
"","time_out","","html-keyboard-response","506","417597","0.0-1.0-692.0-0.0","0","0","43013","","null","","","null","76","","","","","","","","","","","","","","","",""
"","ITI","","html-keyboard-response","507","418599","0.0-1.0-693.0","0","0","43013","","null","","","null","76","","","","","","","","","","","","","","","NaN",""
"","S1","","html-keyboard-response","508","418851","0.0-1.0-695.0","0","0","43013","","null","","","null","77","","","","","","","","","","","","","","","",""
"","ISI","","html-keyboard-response","509","419003","0.0-1.0-696.0","0","0","43013","","null","","","null","77","NaN","","","","","","","","","","","","","","",""
"","S2","","html-keyboard-response","510","419256","0.0-1.0-697.0","0","0","43013","","null","","","null","77","","NaN","","","","","","","","","","","","","",""
"","response","","html-keyboard-response","511","419604","0.0-1.0-698.0-0.0","0","0","43013","","347","","","75","77","","","2","77","training","adjacent","AB","1","2","Q.jpg","N.jpg","1","1","1","",""
"","feedback","","html-keyboard-response","512","420607","0.0-1.0-699.0-0.0","0","0","43013","","null","","","null","77","","","","","","","","","","","","","","","",""
"","ITI","","html-keyboard-response","513","421609","0.0-1.0-702.0","0","0","43013","","null","","","null","77","","","","","","","","","","","","","","","NaN",""
"","S1","","html-keyboard-response","514","421861","0.0-1.0-704.0","0","0","43013","","null","","","null","78","","","","","","","","","","","","","","","",""
"","ISI","","html-keyboard-response","515","422013","0.0-1.0-705.0","0","0","43013","","null","","","null","78","NaN","","","","","","","","","","","","","","",""
"","S2","","html-keyboard-response","516","422265","0.0-1.0-706.0","0","0","43013","","null","","","null","78","","NaN","","","","","","","","","","","","","",""
"","response","","html-keyboard-response","517","422631","0.0-1.0-707.0-0.0","0","0","43013","","366","","","75","78","","","2","78","training","adjacent","DC","4","3","R.jpg","M.jpg","1","0","0","",""
"","feedback","","html-keyboard-response","518","423633","0.0-1.0-708.0-0.0","0","0","43013","","null","","","null","78","","","","","","","","","","","","","","","",""
"","time_out","","html-keyboard-response","519","425635","0.0-1.0-710.0-0.0","0","0","43013","","null","","","null","78","","","","","","","","","","","","","","","",""
"","ITI","","html-keyboard-response","520","426636","0.0-1.0-711.0","0","0","43013","","null","","","null","78","","","","","","","","","","","","","","","NaN",""
"","S1","","html-keyboard-response","521","426888","0.0-1.0-713.0","0","0","43013","","null","","","null","79","","","","","","","","","","","","","","","",""
"","ISI","","html-keyboard-response","522","427041","0.0-1.0-714.0","0","0","43013","","null","","","null","79","NaN","","","","","","","","","","","","","","",""
"","S2","","html-keyboard-response","523","427293","0.0-1.0-715.0","0","0","43013","","null","","","null","79","","NaN","","","","","","","","","","","","","",""
"","response","","html-keyboard-response","524","427597","0.0-1.0-716.0-0.0","0","0","43013","","302","","","75","79","","","2","79","training","adjacent","CD","3","4","M.jpg","R.jpg","1","1","1","",""
"","feedback","","html-keyboard-response","525","428600","0.0-1.0-717.0-0.0","0","0","43013","","null","","","null","79","","","","","","","","","","","","","","","",""
"","ITI","","html-keyboard-response","526","429601","0.0-1.0-720.0","0","0","43013","","null","","","null","79","","","","","","","","","","","","","","","NaN",""
"","S1","","html-keyboard-response","527","429854","0.0-1.0-722.0","0","0","43013","","null","","","null","80","","","","","","","","","","","","","","","",""
"","ISI","","html-keyboard-response","528","430006","0.0-1.0-723.0","0","0","43013","","null","","","null","80","NaN","","","","","","","","","","","","","","",""
"","S2","","html-keyboard-response","529","430259","0.0-1.0-724.0","0","0","43013","","null","","","null","80","","NaN","","","","","","","","","","","","","",""
"","response","","html-keyboard-response","530","430546","0.0-1.0-725.0-0.0","0","0","43013","","287","","","68","80","","","2","80","training","adjacent","FE","6","5","P.jpg","L.jpg","0","0","1","",""
"","feedback","","html-keyboard-response","531","431549","0.0-1.0-726.0-0.0","0","0","43013","","null","","","null","80","","","","","","","","","","","","","","","",""
"","ITI","","html-keyboard-response","532","432551","0.0-1.0-729.0","0","0","43013","","null","","","null","80","","","","","","","","","","","","","","","NaN",""
"","S1","","html-keyboard-response","533","432802","0.0-1.0-731.0","0","0","43013","","null","","","null","81","","","","","","","","","","","","","","","",""
"","ISI","","html-keyboard-response","534","432955","0.0-1.0-732.0","0","0","43013","","null","","","null","81","NaN","","","","","","","","","","","","","","",""
"","S2","","html-keyboard-response","535","433207","0.0-1.0-733.0","0","0","43013","","null","","","null","81","","NaN","","","","","","","","","","","","","",""
"","response","","html-keyboard-response","536","433402","0.0-1.0-734.0-0.0","0","0","43013","","194","","","68","81","","","2","81","training","adjacent","FG","6","7","P.jpg","O.jpg","0","1","0","",""
"","feedback","","html-keyboard-response","537","434405","0.0-1.0-735.0-0.0","0","0","43013","","null","","","null","81","","","","","","","","","","","","","","","",""
"","time_out","","html-keyboard-response","538","436407","0.0-1.0-737.0-0.0","0","0","43013","","null","","","null","81","","","","","","","","","","","","","","","",""
"","ITI","","html-keyboard-response","539","437409","0.0-1.0-738.0","0","0","43013","","null","","","null","81","","","","","","","","","","","","","","","NaN",""
"","S1","","html-keyboard-response","540","437660","0.0-1.0-740.0","0","0","43013","","null","","","null","82","","","","","","","","","","","","","","","",""
"","ISI","","html-keyboard-response","541","437813","0.0-1.0-741.0","0","0","43013","","null","","","null","82","NaN","","","","","","","","","","","","","","",""
"","S2","","html-keyboard-response","542","438066","0.0-1.0-742.0","0","0","43013","","null","","","null","82","","NaN","","","","","","","","","","","","","",""
"","response","","html-keyboard-response","543","438371","0.0-1.0-743.0-0.0","0","0","43013","","305","","","75","82","","","2","82","training","adjacent","ED","5","4","L.jpg","R.jpg","1","0","0","",""
"","feedback","","html-keyboard-response","544","439373","0.0-1.0-744.0-0.0","0","0","43013","","null","","","null","82","","","","","","","","","","","","","","","",""
"","time_out","","html-keyboard-response","545","441375","0.0-1.0-746.0-0.0","0","0","43013","","null","","","null","82","","","","","","","","","","","","","","","",""
"","ITI","","html-keyboard-response","546","442377","0.0-1.0-747.0","0","0","43013","","null","","","null","82","","","","","","","","","","","","","","","NaN",""
"","S1","","html-keyboard-response","547","442629","0.0-1.0-749.0","0","0","43013","","null","","","null","83","","","","","","","","","","","","","","","",""
"","ISI","","html-keyboard-response","548","442780","0.0-1.0-750.0","0","0","43013","","null","","","null","83","NaN","","","","","","","","","","","","","","",""
"","S2","","html-keyboard-response","549","443032","0.0-1.0-751.0","0","0","43013","","null","","","null","83","","NaN","","","","","","","","","","","","","",""
"","response","","html-keyboard-response","550","443081","0.0-1.0-752.0-0.0","0","0","43013","","49","","","75","83","","","2","83","training","adjacent","ED","5","4","L.jpg","R.jpg","1","0","0","",""
"","feedback","","html-keyboard-response","551","444084","0.0-1.0-753.0-0.0","0","0","43013","","null","","","null","83","","","","","","","","","","","","","","","",""
"","time_out","","html-keyboard-response","552","446085","0.0-1.0-755.0-0.0","0","0","43013","","null","","","null","83","","","","","","","","","","","","","","","",""
"","ITI","","html-keyboard-response","553","447086","0.0-1.0-756.0","0","0","43013","","null","","","null","83","","","","","","","","","","","","","","","NaN",""
"","S1","","html-keyboard-response","554","447339","0.0-1.0-758.0","0","0","43013","","null","","","null","84","","","","","","","","","","","","","","","",""
"","ISI","","html-keyboard-response","555","447491","0.0-1.0-759.0","0","0","43013","","89","","","68","84","d","","","","","","","","","","","","","","",""
"","S2","","html-keyboard-response","556","447742","0.0-1.0-760.0","0","0","43013","","null","","","null","84","","NaN","","","","","","","","","","","","","",""
"","response","","html-keyboard-response","557","448272","0.0-1.0-761.0-0.0","0","0","43013","","529","","","68","84","","","2","84","training","adjacent","EF","5","6","L.jpg","P.jpg","0","1","0","",""
"","feedback","","html-keyboard-response","558","449274","0.0-1.0-762.0-0.0","0","0","43013","","null","","","null","84","","","","","","","","","","","","","","","",""
"","time_out","","html-keyboard-response","559","451276","0.0-1.0-764.0-0.0","0","0","43013","","null","","","null","84","","","","","","","","","","","","","","","",""
"","ITI","","html-keyboard-response","560","452278","0.0-1.0-765.0","0","0","43013","","null","","","null","84","","","","","","","","","","","","","","","NaN",""
"","S1","","html-keyboard-response","561","452531","0.0-1.0-767.0","0","0","43013","","null","","","null","85","","","","","","","","","","","","","","","",""
"","ISI","","html-keyboard-response","562","452683","0.0-1.0-768.0","0","0","43013","","null","","","null","85","NaN","","","","","","","","","","","","","","",""
"","S2","","html-keyboard-response","563","452935","0.0-1.0-769.0","0","0","43013","","null","","","null","85","","NaN","","","","","","","","","","","","","",""
"","response","","html-keyboard-response","564","453290","0.0-1.0-770.0-0.0","0","0","43013","","355","","","68","85","","","2","85","training","adjacent","FE","6","5","P.jpg","L.jpg","0","0","1","",""
"","feedback","","html-keyboard-response","565","454292","0.0-1.0-771.0-0.0","0","0","43013","","null","","","null","85","","","","","","","","","","","","","","","",""
"","ITI","","html-keyboard-response","566","455294","0.0-1.0-774.0","0","0","43013","","null","","","null","85","","","","","","","","","","","","","","","NaN",""
"","S1","","html-keyboard-response","567","455546","0.0-1.0-776.0","0","0","43013","","null","","","null","86","","","","","","","","","","","","","","","",""
"","ISI","","html-keyboard-response","568","455697","0.0-1.0-777.0","0","0","43013","","null","","","null","86","NaN","","","","","","","","","","","","","","",""
"","S2","","html-keyboard-response","569","455949","0.0-1.0-778.0","0","0","43013","","null","","","null","86","","NaN","","","","","","","","","","","","","",""
"","response","","html-keyboard-response","570","456266","0.0-1.0-779.0-0.0","0","0","43013","","317","","","75","86","","","2","86","training","adjacent","ED","5","4","L.jpg","R.jpg","1","0","0","",""
"","feedback","","html-keyboard-response","571","457269","0.0-1.0-780.0-0.0","0","0","43013","","null","","","null","86","","","","","","","","","","","","","","","",""
"","time_out","","html-keyboard-response","572","459270","0.0-1.0-782.0-0.0","0","0","43013","","null","","","null","86","","","","","","","","","","","","","","","",""
"","ITI","","html-keyboard-response","573","460272","0.0-1.0-783.0","0","0","43013","","null","","","null","86","","","","","","","","","","","","","","","NaN",""
"","S1","","html-keyboard-response","574","460524","0.0-1.0-785.0","0","0","43013","","null","","","null","87","","","","","","","","","","","","","","","",""
"","ISI","","html-keyboard-response","575","460676","0.0-1.0-786.0","0","0","43013","","null","","","null","87","NaN","","","","","","","","","","","","","","",""
"","S2","","html-keyboard-response","576","460928","0.0-1.0-787.0","0","0","43013","","null","","","null","87","","NaN","","","","","","","","","","","","","",""
"","response","","html-keyboard-response","577","461299","0.0-1.0-788.0-0.0","0","0","43013","","370","","","68","87","","","2","87","training","adjacent","FG","6","7","P.jpg","O.jpg","0","1","0","",""
"","feedback","","html-keyboard-response","578","462301","0.0-1.0-789.0-0.0","0","0","43013","","null","","","null","87","","","","","","","","","","","","","","","",""
"","time_out","","html-keyboard-response","579","464302","0.0-1.0-791.0-0.0","0","0","43013","","null","","","null","87","","","","","","","","","","","","","","","",""
"","ITI","","html-keyboard-response","580","465304","0.0-1.0-792.0","0","0","43013","","null","","","null","87","","","","","","","","","","","","","","","NaN",""
"","S1","","html-keyboard-response","581","465556","0.0-1.0-794.0","0","0","43013","","null","","","null","88","","","","","","","","","","","","","","","",""
"","ISI","","html-keyboard-response","582","465707","0.0-1.0-795.0","0","0","43013","","null","","","null","88","NaN","","","","","","","","","","","","","","",""
"","S2","","html-keyboard-response","583","465960","0.0-1.0-796.0","0","0","43013","","null","","","null","88","","NaN","","","","","","","","","","","","","",""
