"success","ttype","start_time","trial_type","trial_index","time_elapsed","internal_node_id","warning","missed_checkup","PID","view_history","rt","responses","repeat_instructions","key_press","index","keypress_isi","keypress_S2","block","trial_num","phase","group_type","pair_type","S1_stim","S2_stim","S1_img","S2_img","S1_chosen","S1_higher","accuracy","keypress_iti","total_bonus_tally"
"true","full_screen","d04142023hr2102","fullscreen","0","6158","0.0-0.0","0","0","88772","","","","","","","","","","","","","","","","","","","","","",""
"","instructions","","instructions","1","64048","0.0-1.0-0.0-0.0","0","0","88772","[{""page_index"":0,""viewing_time"":9113},{""page_index"":1,""viewing_time"":32229},{""page_index"":2,""viewing_time"":12291},{""page_index"":3,""viewing_time"":4253}]","57887","","","","","","","","","","","","","","","","","","","",""
"","comprehension_check","","survey-multi-choice","2","97374","0.0-1.0-0.0-1.0","0","0","88772","","33319","{""Q0"":""True"",""Q1"":""D"",""Q2"":""Only when the screen 'MAKE A CHOICE' is shown"",""Q3"":""Green mark"",""Q4"":""either D or K""}","1","","","","","","","","","","","","","","","","","",""
"","missed_instruction_checkup","","html-keyboard-response","3","99608","0.0-1.0-0.0-2.0-0.0","0","1","88772","","2228","","","32","","","","","","","","","","","","","","","","",""
"","instructions","","instructions","4","117704","0.0-1.0-0.1-0.1","0","0","88772","[{""page_index"":0,""viewing_time"":5095},{""page_index"":1,""viewing_time"":8125},{""page_index"":2,""viewing_time"":3300},{""page_index"":3,""viewing_time"":1574}]","18094","","","","","","","","","","","","","","","","","","","",""
"","comprehension_check","","survey-multi-choice","5","130145","0.0-1.0-0.1-1.1","0","0","88772","","12436","{""Q0"":""True"",""Q1"":""D"",""Q2"":""Once the second image appears and while the screen 'MAKE A CHOICE' is shown"",""Q3"":""Green mark"",""Q4"":""either D or K""}","0","","","","","","","","","","","","","","","","","",""
"","start_exp","","html-keyboard-response","6","131791","0.0-1.0-1.0","0","0","88772","","1642","","","32","","","","","","","","","","","","","","","","",""
"","S1","","html-keyboard-response","7","132048","0.0-1.0-2.0","0","0","88772","","null","","","null","0","","","","","","","","","","","","","","","",""
"","ISI","","html-keyboard-response","8","133054","0.0-1.0-3.0","0","0","88772","","null","","","null","0","NaN","","","","","","","","","","","","","","",""
"","S2","","html-keyboard-response","9","133311","0.0-1.0-4.0","0","0","88772","","null","","","null","0","","NaN","","","","","","","","","","","","","",""
"","response","","html-keyboard-response","10","135066","0.0-1.0-5.0-0.0","0","0","88772","","null","","","null","0","","","1","0","training","adjacent","DC","4","3","L.jpg","O.jpg","NaN","0","0","",""
"","too_slow_prompt","","html-keyboard-response","11","136071","0.0-1.0-7.0-0.0","1","0","88772","","null","","","null","","","","","","","","","","","","","","","","",""
"","time_out","","html-keyboard-response","12","138076","0.0-1.0-8.0-0.0","0","0","88772","","null","","","null","0","","","","","","","","","","","","","","","",""
"","ITI","","html-keyboard-response","13","139081","0.0-1.0-9.0","0","0","88772","","null","","","null","0","","","","","","","","","","","","","","","NaN",""
"","S1","","html-keyboard-response","14","139337","0.0-1.0-11.0","0","0","88772","","null","","","null","1","","","","","","","","","","","","","","","",""
"","ISI","","html-keyboard-response","15","140343","0.0-1.0-12.0","0","0","88772","","null","","","null","1","NaN","","","","","","","","","","","","","","",""
"","S2","","html-keyboard-response","16","140598","0.0-1.0-13.0","0","0","88772","","null","","","null","1","","NaN","","","","","","","","","","","","","",""
"","response","","html-keyboard-response","17","140958","0.0-1.0-14.0-0.0","0","0","88772","","354","","","68","1","","","1","1","training","adjacent","CB","3","2","O.jpg","Q.jpg","1","0","0","",""
"","feedback","","html-keyboard-response","18","141964","0.0-1.0-15.0-0.0","0","0","88772","","null","","","null","1","","","","","","","","","","","","","","","",""
"","time_out","","html-keyboard-response","19","143969","0.0-1.0-17.0-0.0","0","0","88772","","null","","","null","1","","","","","","","","","","","","","","","",""
"","ITI","","html-keyboard-response","20","144975","0.0-1.0-18.0","0","0","88772","","null","","","null","1","","","","","","","","","","","","","","","NaN",""
"","S1","","html-keyboard-response","21","145230","0.0-1.0-20.0","0","0","88772","","null","","","null","2","","","","","","","","","","","","","","","",""
"","ISI","","html-keyboard-response","22","146235","0.0-1.0-21.0","0","0","88772","","null","","","null","2","NaN","","","","","","","","","","","","","","",""
"","S2","","html-keyboard-response","23","146493","0.0-1.0-22.0","0","0","88772","","null","","","null","2","","NaN","","","","","","","","","","","","","",""
"","response","","html-keyboard-response","24","147578","0.0-1.0-23.0-0.0","0","0","88772","","1080","","","75","2","","","1","2","training","adjacent","BA","2","1","Q.jpg","N.jpg","0","0","1","",""
"","feedback","","html-keyboard-response","25","148584","0.0-1.0-24.0-0.0","0","0","88772","","null","","","null","2","","","","","","","","","","","","","","","",""
"","ITI","","html-keyboard-response","26","149589","0.0-1.0-27.0","0","0","88772","","null","","","null","2","","","","","","","","","","","","","","","NaN",""
"","S1","","html-keyboard-response","27","149845","0.0-1.0-29.0","0","0","88772","","null","","","null","3","","","","","","","","","","","","","","","",""
"","ISI","","html-keyboard-response","28","150851","0.0-1.0-30.0","0","0","88772","","null","","","null","3","NaN","","","","","","","","","","","","","","",""
"","S2","","html-keyboard-response","29","151106","0.0-1.0-31.0","0","0","88772","","null","","","null","3","","NaN","","","","","","","","","","","","","",""
"","response","","html-keyboard-response","30","152049","0.0-1.0-32.0-0.0","0","0","88772","","938","","","75","3","","","1","3","training","adjacent","BC","2","3","Q.jpg","O.jpg","0","1","0","",""
"","feedback","","html-keyboard-response","31","153054","0.0-1.0-33.0-0.0","0","0","88772","","null","","","null","3","","","","","","","","","","","","","","","",""
"","time_out","","html-keyboard-response","32","155060","0.0-1.0-35.0-0.0","0","0","88772","","null","","","null","3","","","","","","","","","","","","","","","",""
"","ITI","","html-keyboard-response","33","156064","0.0-1.0-36.0","0","0","88772","","null","","","null","3","","","","","","","","","","","","","","","NaN",""
"","S1","","html-keyboard-response","34","156318","0.0-1.0-38.0","0","0","88772","","null","","","null","4","","","","","","","","","","","","","","","",""
"","ISI","","html-keyboard-response","35","157338","0.0-1.0-39.0","0","0","88772","","null","","","null","4","NaN","","","","","","","","","","","","","","",""
"","S2","","html-keyboard-response","36","157594","0.0-1.0-40.0","0","0","88772","","null","","","null","4","","NaN","","","","","","","","","","","","","",""
"","response","","html-keyboard-response","37","158322","0.0-1.0-41.0-0.0","0","0","88772","","723","","","68","4","","","1","4","training","adjacent","CD","3","4","O.jpg","L.jpg","1","1","1","",""
"","feedback","","html-keyboard-response","38","159326","0.0-1.0-42.0-0.0","0","0","88772","","null","","","null","4","","","","","","","","","","","","","","","",""
"","ITI","","html-keyboard-response","39","160332","0.0-1.0-45.0","0","0","88772","","null","","","null","4","","","","","","","","","","","","","","","NaN",""
"","S1","","html-keyboard-response","40","160587","0.0-1.0-47.0","0","0","88772","","null","","","null","5","","","","","","","","","","","","","","","",""
"","ISI","","html-keyboard-response","41","161593","0.0-1.0-48.0","0","0","88772","","null","","","null","5","NaN","","","","","","","","","","","","","","",""
"","S2","","html-keyboard-response","42","161848","0.0-1.0-49.0","0","0","88772","","null","","","null","5","","NaN","","","","","","","","","","","","","",""
"","response","","html-keyboard-response","43","163094","0.0-1.0-50.0-0.0","0","0","88772","","1240","","","68","5","","","1","5","training","adjacent","FE","6","5","R.jpg","M.jpg","1","0","0","",""
"","feedback","","html-keyboard-response","44","164099","0.0-1.0-51.0-0.0","0","0","88772","","null","","","null","5","","","","","","","","","","","","","","","",""
"","time_out","","html-keyboard-response","45","166104","0.0-1.0-53.0-0.0","0","0","88772","","null","","","null","5","","","","","","","","","","","","","","","",""
"","ITI","","html-keyboard-response","46","167111","0.0-1.0-54.0","0","0","88772","","null","","","null","5","","","","","","","","","","","","","","","NaN",""
"","S1","","html-keyboard-response","47","167367","0.0-1.0-56.0","0","0","88772","","null","","","null","6","","","","","","","","","","","","","","","",""
"","ISI","","html-keyboard-response","48","168371","0.0-1.0-57.0","0","0","88772","","null","","","null","6","NaN","","","","","","","","","","","","","","",""
"","S2","","html-keyboard-response","49","168627","0.0-1.0-58.0","0","0","88772","","null","","","null","6","","NaN","","","","","","","","","","","","","",""
"","response","","html-keyboard-response","50","169177","0.0-1.0-59.0-0.0","0","0","88772","","546","","","68","6","","","1","6","training","adjacent","EF","5","6","M.jpg","R.jpg","1","1","1","",""
"","feedback","","html-keyboard-response","51","170197","0.0-1.0-60.0-0.0","0","0","88772","","null","","","null","6","","","","","","","","","","","","","","","",""
"","ITI","","html-keyboard-response","52","171203","0.0-1.0-63.0","0","0","88772","","null","","","null","6","","","","","","","","","","","","","","","NaN",""
"","S1","","html-keyboard-response","53","171468","0.0-1.0-65.0","0","0","88772","","null","","","null","7","","","","","","","","","","","","","","","",""
"","ISI","","html-keyboard-response","54","172472","0.0-1.0-66.0","0","0","88772","","null","","","null","7","NaN","","","","","","","","","","","","","","",""
"","S2","","html-keyboard-response","55","172726","0.0-1.0-67.0","0","0","88772","","null","","","null","7","","NaN","","","","","","","","","","","","","",""
"","response","","html-keyboard-response","56","173530","0.0-1.0-68.0-0.0","0","0","88772","","800","","","75","7","","","1","7","training","adjacent","CB","3","2","O.jpg","Q.jpg","0","0","1","",""
"","feedback","","html-keyboard-response","57","174536","0.0-1.0-69.0-0.0","0","0","88772","","null","","","null","7","","","","","","","","","","","","","","","",""
"","ITI","","html-keyboard-response","58","175542","0.0-1.0-72.0","0","0","88772","","null","","","null","7","","","","","","","","","","","","","","","NaN",""
"","S1","","html-keyboard-response","59","175797","0.0-1.0-74.0","0","0","88772","","null","","","null","8","","","","","","","","","","","","","","","",""
"","ISI","","html-keyboard-response","60","176802","0.0-1.0-75.0","0","0","88772","","null","","","null","8","NaN","","","","","","","","","","","","","","",""
"","S2","","html-keyboard-response","61","177066","0.0-1.0-76.0","0","0","88772","","null","","","null","8","","NaN","","","","","","","","","","","","","",""
"","response","","html-keyboard-response","62","177692","0.0-1.0-77.0-0.0","0","0","88772","","622","","","75","8","","","1","8","training","adjacent","FE","6","5","R.jpg","M.jpg","0","0","1","",""
"","feedback","","html-keyboard-response","63","178698","0.0-1.0-78.0-0.0","0","0","88772","","null","","","null","8","","","","","","","","","","","","","","","",""
"","ITI","","html-keyboard-response","64","179702","0.0-1.0-81.0","0","0","88772","","null","","","null","8","","","","","","","","","","","","","","","NaN",""
"","S1","","html-keyboard-response","65","179957","0.0-1.0-83.0","0","0","88772","","null","","","null","9","","","","","","","","","","","","","","","",""
"","ISI","","html-keyboard-response","66","180962","0.0-1.0-84.0","0","0","88772","","null","","","null","9","NaN","","","","","","","","","","","","","","",""
"","S2","","html-keyboard-response","67","181218","0.0-1.0-85.0","0","0","88772","","null","","","null","9","","NaN","","","","","","","","","","","","","",""
"","response","","html-keyboard-response","68","181438","0.0-1.0-86.0-0.0","0","0","88772","","216","","","68","9","","","1","9","training","adjacent","EF","5","6","M.jpg","R.jpg","1","1","1","",""
"","feedback","","html-keyboard-response","69","182445","0.0-1.0-87.0-0.0","0","0","88772","","null","","","null","9","","","","","","","","","","","","","","","",""
"","ITI","","html-keyboard-response","70","183450","0.0-1.0-90.0","0","0","88772","","null","","","null","9","","","","","","","","","","","","","","","NaN",""
"","S1","","html-keyboard-response","71","183705","0.0-1.0-92.0","0","0","88772","","null","","","null","10","","","","","","","","","","","","","","","",""
"","ISI","","html-keyboard-response","72","184709","0.0-1.0-93.0","0","0","88772","","null","","","null","10","NaN","","","","","","","","","","","","","","",""
"","S2","","html-keyboard-response","73","184965","0.0-1.0-94.0","0","0","88772","","null","","","null","10","","NaN","","","","","","","","","","","","","",""
"","response","","html-keyboard-response","74","185361","0.0-1.0-95.0-0.0","0","0","88772","","391","","","68","10","","","1","10","training","adjacent","CD","3","4","O.jpg","L.jpg","1","1","1","",""
"","feedback","","html-keyboard-response","75","186366","0.0-1.0-96.0-0.0","0","0","88772","","null","","","null","10","","","","","","","","","","","","","","","",""
"","ITI","","html-keyboard-response","76","187371","0.0-1.0-99.0","0","0","88772","","null","","","null","10","","","","","","","","","","","","","","","NaN",""
"","S1","","html-keyboard-response","77","187628","0.0-1.0-101.0","0","0","88772","","null","","","null","11","","","","","","","","","","","","","","","",""
"","ISI","","html-keyboard-response","78","188633","0.0-1.0-102.0","0","0","88772","","null","","","null","11","NaN","","","","","","","","","","","","","","",""
"","S2","","html-keyboard-response","79","188891","0.0-1.0-103.0","0","0","88772","","null","","","null","11","","NaN","","","","","","","","","","","","","",""
"","response","","html-keyboard-response","80","189497","0.0-1.0-104.0-0.0","0","0","88772","","602","","","68","11","","","1","11","training","adjacent","BA","2","1","Q.jpg","N.jpg","1","0","0","",""
"","feedback","","html-keyboard-response","81","190503","0.0-1.0-105.0-0.0","0","0","88772","","null","","","null","11","","","","","","","","","","","","","","","",""
"","time_out","","html-keyboard-response","82","192508","0.0-1.0-107.0-0.0","0","0","88772","","null","","","null","11","","","","","","","","","","","","","","","",""
"","ITI","","html-keyboard-response","83","193513","0.0-1.0-108.0","0","0","88772","","null","","","null","11","","","","","","","","","","","","","","","NaN",""
"","S1","","html-keyboard-response","84","193769","0.0-1.0-110.0","0","0","88772","","null","","","null","12","","","","","","","","","","","","","","","",""
"","ISI","","html-keyboard-response","85","194774","0.0-1.0-111.0","0","0","88772","","null","","","null","12","NaN","","","","","","","","","","","","","","",""
"","S2","","html-keyboard-response","86","195029","0.0-1.0-112.0","0","0","88772","","null","","","null","12","","NaN","","","","","","","","","","","","","",""
"","response","","html-keyboard-response","87","195945","0.0-1.0-113.0-0.0","0","0","88772","","912","","","75","12","","","1","12","training","adjacent","DC","4","3","L.jpg","O.jpg","0","0","1","",""
"","feedback","","html-keyboard-response","88","196951","0.0-1.0-114.0-0.0","0","0","88772","","null","","","null","12","","","","","","","","","","","","","","","",""
"","ITI","","html-keyboard-response","89","197958","0.0-1.0-117.0","0","0","88772","","null","","","null","12","","","","","","","","","","","","","","","NaN",""
"","S1","","html-keyboard-response","90","198213","0.0-1.0-119.0","0","0","88772","","null","","","null","13","","","","","","","","","","","","","","","",""
"","ISI","","html-keyboard-response","91","199219","0.0-1.0-120.0","0","0","88772","","null","","","null","13","NaN","","","","","","","","","","","","","","",""
"","S2","","html-keyboard-response","92","199474","0.0-1.0-121.0","0","0","88772","","null","","","null","13","","NaN","","","","","","","","","","","","","",""
"","response","","html-keyboard-response","93","200402","0.0-1.0-122.0-0.0","0","0","88772","","923","","","75","13","","","1","13","training","adjacent","FE","6","5","R.jpg","M.jpg","0","0","1","",""
"","feedback","","html-keyboard-response","94","201409","0.0-1.0-123.0-0.0","0","0","88772","","null","","","null","13","","","","","","","","","","","","","","","",""
"","ITI","","html-keyboard-response","95","202414","0.0-1.0-126.0","0","0","88772","","null","","","null","13","","","","","","","","","","","","","","","NaN",""
"","S1","","html-keyboard-response","96","202669","0.0-1.0-128.0","0","0","88772","","null","","","null","14","","","","","","","","","","","","","","","",""
"","ISI","","html-keyboard-response","97","203674","0.0-1.0-129.0","0","0","88772","","null","","","null","14","NaN","","","","","","","","","","","","","","",""
"","S2","","html-keyboard-response","98","203931","0.0-1.0-130.0","0","0","88772","","null","","","null","14","","NaN","","","","","","","","","","","","","",""
"","response","","html-keyboard-response","99","205149","0.0-1.0-131.0-0.0","0","0","88772","","1213","","","68","14","","","1","14","training","adjacent","ED","5","4","M.jpg","L.jpg","1","0","0","",""
"","feedback","","html-keyboard-response","100","206154","0.0-1.0-132.0-0.0","0","0","88772","","null","","","null","14","","","","","","","","","","","","","","","",""
"","time_out","","html-keyboard-response","101","208158","0.0-1.0-134.0-0.0","0","0","88772","","null","","","null","14","","","","","","","","","","","","","","","",""
"","ITI","","html-keyboard-response","102","209163","0.0-1.0-135.0","0","0","88772","","null","","","null","14","","","","","","","","","","","","","","","NaN",""
"","S1","","html-keyboard-response","103","209418","0.0-1.0-137.0","0","0","88772","","null","","","null","15","","","","","","","","","","","","","","","",""
"","ISI","","html-keyboard-response","104","210423","0.0-1.0-138.0","0","0","88772","","null","","","null","15","NaN","","","","","","","","","","","","","","",""
"","S2","","html-keyboard-response","105","210677","0.0-1.0-139.0","0","0","88772","","null","","","null","15","","NaN","","","","","","","","","","","","","",""
"","response","","html-keyboard-response","106","211408","0.0-1.0-140.0-0.0","0","0","88772","","726","","","75","15","","","1","15","training","adjacent","DE","4","5","L.jpg","M.jpg","0","1","0","",""
"","feedback","","html-keyboard-response","107","212414","0.0-1.0-141.0-0.0","0","0","88772","","null","","","null","15","","","","","","","","","","","","","","","",""
"","time_out","","html-keyboard-response","108","214419","0.0-1.0-143.0-0.0","0","0","88772","","null","","","null","15","","","","","","","","","","","","","","","",""
"","ITI","","html-keyboard-response","109","215425","0.0-1.0-144.0","0","0","88772","","null","","","null","15","","","","","","","","","","","","","","","NaN",""
"","S1","","html-keyboard-response","110","215679","0.0-1.0-146.0","0","0","88772","","null","","","null","16","","","","","","","","","","","","","","","",""
"","ISI","","html-keyboard-response","111","216683","0.0-1.0-147.0","0","0","88772","","null","","","null","16","NaN","","","","","","","","","","","","","","",""
"","S2","","html-keyboard-response","112","216950","0.0-1.0-148.0","0","0","88772","","null","","","null","16","","NaN","","","","","","","","","","","","","",""
"","response","","html-keyboard-response","113","217098","0.0-1.0-149.0-0.0","0","0","88772","","143","","","68","16","","","1","16","training","adjacent","AB","1","2","N.jpg","Q.jpg","1","1","1","",""
"","feedback","","html-keyboard-response","114","218103","0.0-1.0-150.0-0.0","0","0","88772","","null","","","null","16","","","","","","","","","","","","","","","",""
"","ITI","","html-keyboard-response","115","219107","0.0-1.0-153.0","0","0","88772","","null","","","null","16","","","","","","","","","","","","","","","NaN",""
"","S1","","html-keyboard-response","116","219362","0.0-1.0-155.0","0","0","88772","","null","","","null","17","","","","","","","","","","","","","","","",""
"","ISI","","html-keyboard-response","117","220367","0.0-1.0-156.0","0","0","88772","","null","","","null","17","NaN","","","","","","","","","","","","","","",""
"","S2","","html-keyboard-response","118","220623","0.0-1.0-157.0","0","0","88772","","null","","","null","17","","NaN","","","","","","","","","","","","","",""
"","response","","html-keyboard-response","119","221871","0.0-1.0-158.0-0.0","0","0","88772","","1244","","","75","17","","","1","17","training","adjacent","DC","4","3","L.jpg","O.jpg","0","0","1","",""
"","feedback","","html-keyboard-response","120","222877","0.0-1.0-159.0-0.0","0","0","88772","","null","","","null","17","","","","","","","","","","","","","","","",""
"","ITI","","html-keyboard-response","121","223883","0.0-1.0-162.0","0","0","88772","","null","","","null","17","","","","","","","","","","","","","","","NaN",""
"","S1","","html-keyboard-response","122","224147","0.0-1.0-164.0","0","0","88772","","null","","","null","18","","","","","","","","","","","","","","","",""
"","ISI","","html-keyboard-response","123","225165","0.0-1.0-165.0","0","0","88772","","null","","","null","18","NaN","","","","","","","","","","","","","","",""
"","S2","","html-keyboard-response","124","225420","0.0-1.0-166.0","0","0","88772","","null","","","null","18","","NaN","","","","","","","","","","","","","",""
"","response","","html-keyboard-response","125","225995","0.0-1.0-167.0-0.0","0","0","88772","","571","","","68","18","","","1","18","training","adjacent","GF","7","6","P.jpg","R.jpg","1","0","0","",""
"","feedback","","html-keyboard-response","126","227001","0.0-1.0-168.0-0.0","0","0","88772","","null","","","null","18","","","","","","","","","","","","","","","",""
"","time_out","","html-keyboard-response","127","229007","0.0-1.0-170.0-0.0","0","0","88772","","null","","","null","18","","","","","","","","","","","","","","","",""
"","ITI","","html-keyboard-response","128","230012","0.0-1.0-171.0","0","0","88772","","null","","","null","18","","","","","","","","","","","","","","","NaN",""
"","S1","","html-keyboard-response","129","230267","0.0-1.0-173.0","0","0","88772","","null","","","null","19","","","","","","","","","","","","","","","",""
"","ISI","","html-keyboard-response","130","231272","0.0-1.0-174.0","0","0","88772","","null","","","null","19","NaN","","","","","","","","","","","","","","",""
"","S2","","html-keyboard-response","131","231527","0.0-1.0-175.0","0","0","88772","","null","","","null","19","","NaN","","","","","","","","","","","","","",""
"","response","","html-keyboard-response","132","232071","0.0-1.0-176.0-0.0","0","0","88772","","539","","","75","19","","","1","19","training","adjacent","DC","4","3","L.jpg","O.jpg","0","0","1","",""
"","feedback","","html-keyboard-response","133","233079","0.0-1.0-177.0-0.0","0","0","88772","","null","","","null","19","","","","","","","","","","","","","","","",""
"","ITI","","html-keyboard-response","134","234083","0.0-1.0-180.0","0","0","88772","","null","","","null","19","","","","","","","","","","","","","","","NaN",""
"","S1","","html-keyboard-response","135","234339","0.0-1.0-182.0","0","0","88772","","null","","","null","20","","","","","","","","","","","","","","","",""
"","ISI","","html-keyboard-response","136","235344","0.0-1.0-183.0","0","0","88772","","null","","","null","20","NaN","","","","","","","","","","","","","","",""
"","S2","","html-keyboard-response","137","235604","0.0-1.0-184.0","0","0","88772","","null","","","null","20","","NaN","","","","","","","","","","","","","",""
"","response","","html-keyboard-response","138","236584","0.0-1.0-185.0-0.0","0","0","88772","","976","","","75","20","","","1","20","training","adjacent","FG","6","7","R.jpg","P.jpg","0","1","0","",""
"","feedback","","html-keyboard-response","139","237590","0.0-1.0-186.0-0.0","0","0","88772","","null","","","null","20","","","","","","","","","","","","","","","",""
"","time_out","","html-keyboard-response","140","239595","0.0-1.0-188.0-0.0","0","0","88772","","null","","","null","20","","","","","","","","","","","","","","","",""
"","ITI","","html-keyboard-response","141","240599","0.0-1.0-189.0","0","0","88772","","null","","","null","20","","","","","","","","","","","","","","","NaN",""
"","S1","","html-keyboard-response","142","240855","0.0-1.0-191.0","0","0","88772","","null","","","null","21","","","","","","","","","","","","","","","",""
"","ISI","","html-keyboard-response","143","241860","0.0-1.0-192.0","0","0","88772","","null","","","null","21","NaN","","","","","","","","","","","","","","",""
"","S2","","html-keyboard-response","144","242115","0.0-1.0-193.0","0","0","88772","","null","","","null","21","","NaN","","","","","","","","","","","","","",""
"","response","","html-keyboard-response","145","243282","0.0-1.0-194.0-0.0","0","0","88772","","1161","","","68","21","","","1","21","training","adjacent","BC","2","3","Q.jpg","O.jpg","1","1","1","",""
"","feedback","","html-keyboard-response","146","244287","0.0-1.0-195.0-0.0","0","0","88772","","null","","","null","21","","","","","","","","","","","","","","","",""
"","ITI","","html-keyboard-response","147","245293","0.0-1.0-198.0","0","0","88772","","null","","","null","21","","","","","","","","","","","","","","","NaN",""
"","S1","","html-keyboard-response","148","245548","0.0-1.0-200.0","0","0","88772","","null","","","null","22","","","","","","","","","","","","","","","",""
"","ISI","","html-keyboard-response","149","246553","0.0-1.0-201.0","0","0","88772","","null","","","null","22","NaN","","","","","","","","","","","","","","",""
"","S2","","html-keyboard-response","150","246808","0.0-1.0-202.0","0","0","88772","","null","","","null","22","","NaN","","","","","","","","","","","","","",""
"","response","","html-keyboard-response","151","248563","0.0-1.0-203.0-0.0","0","0","88772","","null","","","null","22","","","1","22","training","adjacent","BA","2","1","Q.jpg","N.jpg","NaN","0","0","",""
"","too_slow_prompt","","html-keyboard-response","152","249568","0.0-1.0-205.0-0.0","1","0","88772","","null","","","null","","","","","","","","","","","","","","","","",""
"","time_out","","html-keyboard-response","153","251572","0.0-1.0-206.0-0.0","0","0","88772","","null","","","null","22","","","","","","","","","","","","","","","",""
"","ITI","","html-keyboard-response","154","252576","0.0-1.0-207.0","0","0","88772","","null","","","null","22","","","","","","","","","","","","","","","NaN",""
"","S1","","html-keyboard-response","155","252832","0.0-1.0-209.0","0","0","88772","","null","","","null","23","","","","","","","","","","","","","","","",""
"","ISI","","html-keyboard-response","156","253838","0.0-1.0-210.0","0","0","88772","","null","","","null","23","NaN","","","","","","","","","","","","","","",""
"","S2","","html-keyboard-response","157","254093","0.0-1.0-211.0","0","0","88772","","null","","","null","23","","NaN","","","","","","","","","","","","","",""
"","response","","html-keyboard-response","158","254511","0.0-1.0-212.0-0.0","0","0","88772","","412","","","68","23","","","1","23","training","adjacent","BA","2","1","Q.jpg","N.jpg","1","0","0","",""
"","feedback","","html-keyboard-response","159","255517","0.0-1.0-213.0-0.0","0","0","88772","","null","","","null","23","","","","","","","","","","","","","","","",""
"","time_out","","html-keyboard-response","160","257522","0.0-1.0-215.0-0.0","0","0","88772","","null","","","null","23","","","","","","","","","","","","","","","",""
"","ITI","","html-keyboard-response","161","258527","0.0-1.0-216.0","0","0","88772","","null","","","null","23","","","","","","","","","","","","","","","NaN",""
"","S1","","html-keyboard-response","162","258782","0.0-1.0-218.0","0","0","88772","","null","","","null","24","","","","","","","","","","","","","","","",""
"","ISI","","html-keyboard-response","163","259786","0.0-1.0-219.0","0","0","88772","","null","","","null","24","NaN","","","","","","","","","","","","","","",""
"","S2","","html-keyboard-response","164","260039","0.0-1.0-220.0","0","0","88772","","null","","","null","24","","NaN","","","","","","","","","","","","","",""
"","response","","html-keyboard-response","165","260577","0.0-1.0-221.0-0.0","0","0","88772","","534","","","68","24","","","1","24","training","adjacent","ED","5","4","M.jpg","L.jpg","1","0","0","",""
"","feedback","","html-keyboard-response","166","261581","0.0-1.0-222.0-0.0","0","0","88772","","null","","","null","24","","","","","","","","","","","","","","","",""
"","time_out","","html-keyboard-response","167","263586","0.0-1.0-224.0-0.0","0","0","88772","","null","","","null","24","","","","","","","","","","","","","","","",""
"","ITI","","html-keyboard-response","168","264591","0.0-1.0-225.0","0","0","88772","","null","","","null","24","","","","","","","","","","","","","","","NaN",""
"","S1","","html-keyboard-response","169","264847","0.0-1.0-227.0","0","0","88772","","null","","","null","25","","","","","","","","","","","","","","","",""
"","ISI","","html-keyboard-response","170","265860","0.0-1.0-228.0","0","0","88772","","null","","","null","25","NaN","","","","","","","","","","","","","","",""
"","S2","","html-keyboard-response","171","266115","0.0-1.0-229.0","0","0","88772","","null","","","null","25","","NaN","","","","","","","","","","","","","",""
"","response","","html-keyboard-response","172","266531","0.0-1.0-230.0-0.0","0","0","88772","","411","","","68","25","","","1","25","training","adjacent","EF","5","6","M.jpg","R.jpg","1","1","1","",""
"","feedback","","html-keyboard-response","173","267537","0.0-1.0-231.0-0.0","0","0","88772","","null","","","null","25","","","","","","","","","","","","","","","",""
"","ITI","","html-keyboard-response","174","268542","0.0-1.0-234.0","0","0","88772","","null","","","null","25","","","","","","","","","","","","","","","NaN",""
"","S1","","html-keyboard-response","175","268807","0.0-1.0-236.0","0","0","88772","","null","","","null","26","","","","","","","","","","","","","","","",""
"","ISI","","html-keyboard-response","176","269812","0.0-1.0-237.0","0","0","88772","","null","","","null","26","NaN","","","","","","","","","","","","","","",""
"","S2","","html-keyboard-response","177","270068","0.0-1.0-238.0","0","0","88772","","null","","","null","26","","NaN","","","","","","","","","","","","","",""
"","response","","html-keyboard-response","178","270619","0.0-1.0-239.0-0.0","0","0","88772","","546","","","75","26","","","1","26","training","adjacent","DE","4","5","L.jpg","M.jpg","0","1","0","",""
"","feedback","","html-keyboard-response","179","271625","0.0-1.0-240.0-0.0","0","0","88772","","null","","","null","26","","","","","","","","","","","","","","","",""
"","time_out","","html-keyboard-response","180","273631","0.0-1.0-242.0-0.0","0","0","88772","","null","","","null","26","","","","","","","","","","","","","","","",""
"","ITI","","html-keyboard-response","181","274636","0.0-1.0-243.0","0","0","88772","","null","","","null","26","","","","","","","","","","","","","","","NaN",""
"","S1","","html-keyboard-response","182","274892","0.0-1.0-245.0","0","0","88772","","null","","","null","27","","","","","","","","","","","","","","","",""
"","ISI","","html-keyboard-response","183","275897","0.0-1.0-246.0","0","0","88772","","null","","","null","27","NaN","","","","","","","","","","","","","","",""
"","S2","","html-keyboard-response","184","276152","0.0-1.0-247.0","0","0","88772","","null","","","null","27","","NaN","","","","","","","","","","","","","",""
"","response","","html-keyboard-response","185","277109","0.0-1.0-248.0-0.0","0","0","88772","","952","","","75","27","","","1","27","training","adjacent","DE","4","5","L.jpg","M.jpg","0","1","0","",""
"","feedback","","html-keyboard-response","186","278115","0.0-1.0-249.0-0.0","0","0","88772","","null","","","null","27","","","","","","","","","","","","","","","",""
"","time_out","","html-keyboard-response","187","280119","0.0-1.0-251.0-0.0","0","0","88772","","null","","","null","27","","","","","","","","","","","","","","","",""
"","ITI","","html-keyboard-response","188","281125","0.0-1.0-252.0","0","0","88772","","null","","","null","27","","","","","","","","","","","","","","","NaN",""
"","S1","","html-keyboard-response","189","281381","0.0-1.0-254.0","0","0","88772","","null","","","null","28","","","","","","","","","","","","","","","",""
"","ISI","","html-keyboard-response","190","282386","0.0-1.0-255.0","0","0","88772","","null","","","null","28","NaN","","","","","","","","","","","","","","",""
"","S2","","html-keyboard-response","191","282641","0.0-1.0-256.0","0","0","88772","","null","","","null","28","","NaN","","","","","","","","","","","","","",""
"","response","","html-keyboard-response","192","283046","0.0-1.0-257.0-0.0","0","0","88772","","400","","","68","28","","","1","28","training","adjacent","DE","4","5","L.jpg","M.jpg","1","1","1","",""
"","feedback","","html-keyboard-response","193","284052","0.0-1.0-258.0-0.0","0","0","88772","","null","","","null","28","","","","","","","","","","","","","","","",""
"","ITI","","html-keyboard-response","194","285057","0.0-1.0-261.0","0","0","88772","","null","","","null","28","","","","","","","","","","","","","","","NaN",""
"","S1","","html-keyboard-response","195","285312","0.0-1.0-263.0","0","0","88772","","null","","","null","29","","","","","","","","","","","","","","","",""
"","ISI","","html-keyboard-response","196","286318","0.0-1.0-264.0","0","0","88772","","null","","","null","29","NaN","","","","","","","","","","","","","","",""
"","S2","","html-keyboard-response","197","286574","0.0-1.0-265.0","0","0","88772","","null","","","null","29","","NaN","","","","","","","","","","","","","",""
"","response","","html-keyboard-response","198","287131","0.0-1.0-266.0-0.0","0","0","88772","","553","","","68","29","","","1","29","training","adjacent","FG","6","7","R.jpg","P.jpg","1","1","1","",""
"","feedback","","html-keyboard-response","199","288136","0.0-1.0-267.0-0.0","0","0","88772","","null","","","null","29","","","","","","","","","","","","","","","",""
"","ITI","","html-keyboard-response","200","289142","0.0-1.0-270.0","0","0","88772","","null","","","null","29","","","","","","","","","","","","","","","NaN",""
"","S1","","html-keyboard-response","201","289398","0.0-1.0-272.0","0","0","88772","","null","","","null","30","","","","","","","","","","","","","","","",""
"","ISI","","html-keyboard-response","202","290403","0.0-1.0-273.0","0","0","88772","","null","","","null","30","NaN","","","","","","","","","","","","","","",""
"","S2","","html-keyboard-response","203","290664","0.0-1.0-274.0","0","0","88772","","null","","","null","30","","NaN","","","","","","","","","","","","","",""
"","response","","html-keyboard-response","204","291132","0.0-1.0-275.0-0.0","0","0","88772","","463","","","75","30","","","1","30","training","adjacent","CD","3","4","O.jpg","L.jpg","0","1","0","",""
"","feedback","","html-keyboard-response","205","292139","0.0-1.0-276.0-0.0","0","0","88772","","null","","","null","30","","","","","","","","","","","","","","","",""
"","time_out","","html-keyboard-response","206","294144","0.0-1.0-278.0-0.0","0","0","88772","","null","","","null","30","","","","","","","","","","","","","","","",""
"","ITI","","html-keyboard-response","207","295151","0.0-1.0-279.0","0","0","88772","","null","","","null","30","","","","","","","","","","","","","","","NaN",""
"","S1","","html-keyboard-response","208","295408","0.0-1.0-281.0","0","0","88772","","null","","","null","31","","","","","","","","","","","","","","","",""
"","ISI","","html-keyboard-response","209","296426","0.0-1.0-282.0","0","0","88772","","null","","","null","31","NaN","","","","","","","","","","","","","","",""
"","S2","","html-keyboard-response","210","296682","0.0-1.0-283.0","0","0","88772","","null","","","null","31","","NaN","","","","","","","","","","","","","",""
"","response","","html-keyboard-response","211","297201","0.0-1.0-284.0-0.0","0","0","88772","","514","","","68","31","","","1","31","training","adjacent","AB","1","2","N.jpg","Q.jpg","1","1","1","",""
"","feedback","","html-keyboard-response","212","298207","0.0-1.0-285.0-0.0","0","0","88772","","null","","","null","31","","","","","","","","","","","","","","","",""
"","ITI","","html-keyboard-response","213","299212","0.0-1.0-288.0","0","0","88772","","null","","","null","31","","","","","","","","","","","","","","","NaN",""
"","S1","","html-keyboard-response","214","299467","0.0-1.0-290.0","0","0","88772","","null","","","null","32","","","","","","","","","","","","","","","",""
"","ISI","","html-keyboard-response","215","300471","0.0-1.0-291.0","0","0","88772","","null","","","null","32","NaN","","","","","","","","","","","","","","",""
"","S2","","html-keyboard-response","216","300726","0.0-1.0-292.0","0","0","88772","","null","","","null","32","","NaN","","","","","","","","","","","","","",""
"","response","","html-keyboard-response","217","301035","0.0-1.0-293.0-0.0","0","0","88772","","305","","","68","32","","","1","32","training","adjacent","ED","5","4","M.jpg","L.jpg","1","0","0","",""
"","feedback","","html-keyboard-response","218","302042","0.0-1.0-294.0-0.0","0","0","88772","","null","","","null","32","","","","","","","","","","","","","","","",""
"","time_out","","html-keyboard-response","219","304048","0.0-1.0-296.0-0.0","0","0","88772","","null","","","null","32","","","","","","","","","","","","","","","",""
"","ITI","","html-keyboard-response","220","305053","0.0-1.0-297.0","0","0","88772","","null","","","null","32","","","","","","","","","","","","","","","NaN",""
"","S1","","html-keyboard-response","221","305307","0.0-1.0-299.0","0","0","88772","","null","","","null","33","","","","","","","","","","","","","","","",""
"","ISI","","html-keyboard-response","222","306313","0.0-1.0-300.0","0","0","88772","","null","","","null","33","NaN","","","","","","","","","","","","","","",""
"","S2","","html-keyboard-response","223","306581","0.0-1.0-301.0","0","0","88772","","null","","","null","33","","NaN","","","","","","","","","","","","","",""
"","response","","html-keyboard-response","224","306917","0.0-1.0-302.0-0.0","0","0","88772","","333","","","75","33","","","1","33","training","adjacent","FE","6","5","R.jpg","M.jpg","0","0","1","",""
"","feedback","","html-keyboard-response","225","307922","0.0-1.0-303.0-0.0","0","0","88772","","null","","","null","33","","","","","","","","","","","","","","","",""
"","ITI","","html-keyboard-response","226","308927","0.0-1.0-306.0","0","0","88772","","null","","","null","33","","","","","","","","","","","","","","","NaN",""
"","S1","","html-keyboard-response","227","309183","0.0-1.0-308.0","0","0","88772","","null","","","null","34","","","","","","","","","","","","","","","",""
"","ISI","","html-keyboard-response","228","310187","0.0-1.0-309.0","0","0","88772","","null","","","null","34","NaN","","","","","","","","","","","","","","",""
"","S2","","html-keyboard-response","229","310443","0.0-1.0-310.0","0","0","88772","","null","","","null","34","","NaN","","","","","","","","","","","","","",""
"","response","","html-keyboard-response","230","311051","0.0-1.0-311.0-0.0","0","0","88772","","603","","","75","34","","","1","34","training","adjacent","GF","7","6","P.jpg","R.jpg","0","0","1","",""
"","feedback","","html-keyboard-response","231","312057","0.0-1.0-312.0-0.0","0","0","88772","","null","","","null","34","","","","","","","","","","","","","","","",""
"","ITI","","html-keyboard-response","232","313062","0.0-1.0-315.0","0","0","88772","","null","","","null","34","","","","","","","","","","","","","","","NaN",""
"","S1","","html-keyboard-response","233","313323","0.0-1.0-317.0","0","0","88772","","null","","","null","35","","","","","","","","","","","","","","","",""
"","ISI","","html-keyboard-response","234","314329","0.0-1.0-318.0","0","0","88772","","null","","","null","35","NaN","","","","","","","","","","","","","","",""
"","S2","","html-keyboard-response","235","314585","0.0-1.0-319.0","0","0","88772","","null","","","null","35","","NaN","","","","","","","","","","","","","",""
"","response","","html-keyboard-response","236","315007","0.0-1.0-320.0-0.0","0","0","88772","","418","","","75","35","","","1","35","training","adjacent","CD","3","4","O.jpg","L.jpg","0","1","0","",""
"","feedback","","html-keyboard-response","237","316012","0.0-1.0-321.0-0.0","0","0","88772","","null","","","null","35","","","","","","","","","","","","","","","",""
"","time_out","","html-keyboard-response","238","318018","0.0-1.0-323.0-0.0","0","0","88772","","null","","","null","35","","","","","","","","","","","","","","","",""
"","ITI","","html-keyboard-response","239","319024","0.0-1.0-324.0","0","0","88772","","null","","","null","35","","","","","","","","","","","","","","","NaN",""
"","S1","","html-keyboard-response","240","319280","0.0-1.0-326.0","0","0","88772","","null","","","null","36","","","","","","","","","","","","","","","",""
"","ISI","","html-keyboard-response","241","320286","0.0-1.0-327.0","0","0","88772","","null","","","null","36","NaN","","","","","","","","","","","","","","",""
"","S2","","html-keyboard-response","242","320543","0.0-1.0-328.0","0","0","88772","","null","","","null","36","","NaN","","","","","","","","","","","","","",""
"","response","","html-keyboard-response","243","320857","0.0-1.0-329.0-0.0","0","0","88772","","310","","","68","36","","","1","36","training","adjacent","AB","1","2","N.jpg","Q.jpg","1","1","1","",""
"","feedback","","html-keyboard-response","244","321864","0.0-1.0-330.0-0.0","0","0","88772","","null","","","null","36","","","","","","","","","","","","","","","",""
"","ITI","","html-keyboard-response","245","322869","0.0-1.0-333.0","0","0","88772","","null","","","null","36","","","","","","","","","","","","","","","NaN",""
"","S1","","html-keyboard-response","246","323124","0.0-1.0-335.0","0","0","88772","","null","","","null","37","","","","","","","","","","","","","","","",""
"","ISI","","html-keyboard-response","247","324130","0.0-1.0-336.0","0","0","88772","","null","","","null","37","NaN","","","","","","","","","","","","","","",""
"","S2","","html-keyboard-response","248","324384","0.0-1.0-337.0","0","0","88772","","null","","","null","37","","NaN","","","","","","","","","","","","","",""
"","response","","html-keyboard-response","249","324550","0.0-1.0-338.0-0.0","0","0","88772","","163","","","68","37","","","1","37","training","adjacent","CB","3","2","O.jpg","Q.jpg","1","0","0","",""
"","feedback","","html-keyboard-response","250","325556","0.0-1.0-339.0-0.0","0","0","88772","","null","","","null","37","","","","","","","","","","","","","","","",""
"","time_out","","html-keyboard-response","251","327561","0.0-1.0-341.0-0.0","0","0","88772","","null","","","null","37","","","","","","","","","","","","","","","",""
"","ITI","","html-keyboard-response","252","328566","0.0-1.0-342.0","0","0","88772","","null","","","null","37","","","","","","","","","","","","","","","NaN",""
"","S1","","html-keyboard-response","253","328822","0.0-1.0-344.0","0","0","88772","","null","","","null","38","","","","","","","","","","","","","","","",""
"","ISI","","html-keyboard-response","254","329827","0.0-1.0-345.0","0","0","88772","","null","","","null","38","NaN","","","","","","","","","","","","","","",""
"","S2","","html-keyboard-response","255","330083","0.0-1.0-346.0","0","0","88772","","null","","","null","38","","NaN","","","","","","","","","","","","","",""
"","response","","html-keyboard-response","256","330538","0.0-1.0-347.0-0.0","0","0","88772","","450","","","68","38","","","1","38","training","adjacent","ED","5","4","M.jpg","L.jpg","1","0","0","",""
"","feedback","","html-keyboard-response","257","331544","0.0-1.0-348.0-0.0","0","0","88772","","null","","","null","38","","","","","","","","","","","","","","","",""
"","time_out","","html-keyboard-response","258","333550","0.0-1.0-350.0-0.0","0","0","88772","","null","","","null","38","","","","","","","","","","","","","","","",""
"","ITI","","html-keyboard-response","259","334555","0.0-1.0-351.0","0","0","88772","","null","","","null","38","","","","","","","","","","","","","","","NaN",""
"","S1","","html-keyboard-response","260","334811","0.0-1.0-353.0","0","0","88772","","null","","","null","39","","","","","","","","","","","","","","","",""
"","ISI","","html-keyboard-response","261","335816","0.0-1.0-354.0","0","0","88772","","null","","","null","39","NaN","","","","","","","","","","","","","","",""
"","S2","","html-keyboard-response","262","336071","0.0-1.0-355.0","0","0","88772","","null","","","null","39","","NaN","","","","","","","","","","","","","",""
"","response","","html-keyboard-response","263","336451","0.0-1.0-356.0-0.0","0","0","88772","","375","","","75","39","","","1","39","training","adjacent","FG","6","7","R.jpg","P.jpg","0","1","0","",""
"","feedback","","html-keyboard-response","264","337457","0.0-1.0-357.0-0.0","0","0","88772","","null","","","null","39","","","","","","","","","","","","","","","",""
"","time_out","","html-keyboard-response","265","339462","0.0-1.0-359.0-0.0","0","0","88772","","null","","","null","39","","","","","","","","","","","","","","","",""
"","ITI","","html-keyboard-response","266","340466","0.0-1.0-360.0","0","0","88772","","null","","","null","39","","","","","","","","","","","","","","","NaN",""
"","S1","","html-keyboard-response","267","340721","0.0-1.0-362.0","0","0","88772","","null","","","null","40","","","","","","","","","","","","","","","",""
"","ISI","","html-keyboard-response","268","341727","0.0-1.0-363.0","0","0","88772","","null","","","null","40","NaN","","","","","","","","","","","","","","",""
"","S2","","html-keyboard-response","269","341982","0.0-1.0-364.0","0","0","88772","","null","","","null","40","","NaN","","","","","","","","","","","","","",""
"","response","","html-keyboard-response","270","342671","0.0-1.0-365.0-0.0","0","0","88772","","684","","","68","40","","","1","40","training","adjacent","CB","3","2","O.jpg","Q.jpg","1","0","0","",""
"","feedback","","html-keyboard-response","271","343678","0.0-1.0-366.0-0.0","0","0","88772","","null","","","null","40","","","","","","","","","","","","","","","",""
"","time_out","","html-keyboard-response","272","345683","0.0-1.0-368.0-0.0","0","0","88772","","null","","","null","40","","","","","","","","","","","","","","","",""
"","ITI","","html-keyboard-response","273","346689","0.0-1.0-369.0","0","0","88772","","null","","","null","40","","","","","","","","","","","","","","","NaN",""
"","S1","","html-keyboard-response","274","346945","0.0-1.0-371.0","0","0","88772","","null","","","null","41","","","","","","","","","","","","","","","",""
"","ISI","","html-keyboard-response","275","347952","0.0-1.0-372.0","0","0","88772","","null","","","null","41","NaN","","","","","","","","","","","","","","",""
"","S2","","html-keyboard-response","276","348207","0.0-1.0-373.0","0","0","88772","","null","","","null","41","","NaN","","","","","","","","","","","","","",""
"","response","","html-keyboard-response","277","348882","0.0-1.0-374.0-0.0","0","0","88772","","669","","","75","41","","","1","41","training","adjacent","GF","7","6","P.jpg","R.jpg","0","0","1","",""
"","feedback","","html-keyboard-response","278","349888","0.0-1.0-375.0-0.0","0","0","88772","","null","","","null","41","","","","","","","","","","","","","","","",""
"","ITI","","html-keyboard-response","279","350893","0.0-1.0-378.0","0","0","88772","","null","","","null","41","","","","","","","","","","","","","","","NaN",""
"","S1","","html-keyboard-response","280","351148","0.0-1.0-380.0","0","0","88772","","null","","","null","42","","","","","","","","","","","","","","","",""
"","ISI","","html-keyboard-response","281","352152","0.0-1.0-381.0","0","0","88772","","null","","","null","42","NaN","","","","","","","","","","","","","","",""
"","S2","","html-keyboard-response","282","352407","0.0-1.0-382.0","0","0","88772","","null","","","null","42","","NaN","","","","","","","","","","","","","",""
"","response","","html-keyboard-response","283","352877","0.0-1.0-383.0-0.0","0","0","88772","","466","","","75","42","","","1","42","training","adjacent","AB","1","2","N.jpg","Q.jpg","0","1","0","",""
"","feedback","","html-keyboard-response","284","353884","0.0-1.0-384.0-0.0","0","0","88772","","null","","","null","42","","","","","","","","","","","","","","","",""
"","time_out","","html-keyboard-response","285","355890","0.0-1.0-386.0-0.0","0","0","88772","","null","","","null","42","","","","","","","","","","","","","","","",""
"","ITI","","html-keyboard-response","286","356895","0.0-1.0-387.0","0","0","88772","","null","","","null","42","","","","","","","","","","","","","","","NaN",""
"","S1","","html-keyboard-response","287","357152","0.0-1.0-389.0","0","0","88772","","null","","","null","43","","","","","","","","","","","","","","","",""
"","ISI","","html-keyboard-response","288","358158","0.0-1.0-390.0","0","0","88772","","null","","","null","43","NaN","","","","","","","","","","","","","","",""
"","S2","","html-keyboard-response","289","358413","0.0-1.0-391.0","0","0","88772","","null","","","null","43","","NaN","","","","","","","","","","","","","",""
"","response","","html-keyboard-response","290","358740","0.0-1.0-392.0-0.0","0","0","88772","","322","","","68","43","","","1","43","training","adjacent","FG","6","7","R.jpg","P.jpg","1","1","1","",""
"","feedback","","html-keyboard-response","291","359747","0.0-1.0-393.0-0.0","0","0","88772","","null","","","null","43","","","","","","","","","","","","","","","",""
"","ITI","","html-keyboard-response","292","360752","0.0-1.0-396.0","0","0","88772","","null","","","null","43","","","","","","","","","","","","","","","NaN",""
"","S1","","html-keyboard-response","293","361007","0.0-1.0-398.0","0","0","88772","","null","","","null","44","","","","","","","","","","","","","","","",""
"","ISI","","html-keyboard-response","294","362011","0.0-1.0-399.0","0","0","88772","","null","","","null","44","NaN","","","","","","","","","","","","","","",""
"","S2","","html-keyboard-response","295","362266","0.0-1.0-400.0","0","0","88772","","null","","","null","44","","NaN","","","","","","","","","","","","","",""
"","response","","html-keyboard-response","296","362544","0.0-1.0-401.0-0.0","0","0","88772","","273","","","68","44","","","1","44","training","adjacent","GF","7","6","P.jpg","R.jpg","1","0","0","",""
"","feedback","","html-keyboard-response","297","363550","0.0-1.0-402.0-0.0","0","0","88772","","null","","","null","44","","","","","","","","","","","","","","","",""
"","time_out","","html-keyboard-response","298","365555","0.0-1.0-404.0-0.0","0","0","88772","","null","","","null","44","","","","","","","","","","","","","","","",""
"","ITI","","html-keyboard-response","299","366560","0.0-1.0-405.0","0","0","88772","","null","","","null","44","","","","","","","","","","","","","","","NaN",""
"","S1","","html-keyboard-response","300","366815","0.0-1.0-407.0","0","0","88772","","null","","","null","45","","","","","","","","","","","","","","","",""
"","ISI","","html-keyboard-response","301","367821","0.0-1.0-408.0","0","0","88772","","null","","","null","45","NaN","","","","","","","","","","","","","","",""
"","S2","","html-keyboard-response","302","368077","0.0-1.0-409.0","0","0","88772","","null","","","null","45","","NaN","","","","","","","","","","","","","",""
"","response","","html-keyboard-response","303","368606","0.0-1.0-410.0-0.0","0","0","88772","","524","","","75","45","","","1","45","training","adjacent","EF","5","6","M.jpg","R.jpg","0","1","0","",""
"","feedback","","html-keyboard-response","304","369613","0.0-1.0-411.0-0.0","0","0","88772","","null","","","null","45","","","","","","","","","","","","","","","",""
"","time_out","","html-keyboard-response","305","371618","0.0-1.0-413.0-0.0","0","0","88772","","null","","","null","45","","","","","","","","","","","","","","","",""
"","ITI","","html-keyboard-response","306","372623","0.0-1.0-414.0","0","0","88772","","null","","","null","45","","","","","","","","","","","","","","","NaN",""
"","S1","","html-keyboard-response","307","372878","0.0-1.0-416.0","0","0","88772","","null","","","null","46","","","","","","","","","","","","","","","",""
"","ISI","","html-keyboard-response","308","373883","0.0-1.0-417.0","0","0","88772","","null","","","null","46","NaN","","","","","","","","","","","","","","",""
"","S2","","html-keyboard-response","309","374140","0.0-1.0-418.0","0","0","88772","","null","","","null","46","","NaN","","","","","","","","","","","","","",""
"","response","","html-keyboard-response","310","374549","0.0-1.0-419.0-0.0","0","0","88772","","404","","","68","46","","","1","46","training","adjacent","BC","2","3","Q.jpg","O.jpg","1","1","1","",""
"","feedback","","html-keyboard-response","311","375555","0.0-1.0-420.0-0.0","0","0","88772","","null","","","null","46","","","","","","","","","","","","","","","",""
"","ITI","","html-keyboard-response","312","376560","0.0-1.0-423.0","0","0","88772","","null","","","null","46","","","","","","","","","","","","","","","NaN",""
"","S1","","html-keyboard-response","313","376815","0.0-1.0-425.0","0","0","88772","","null","","","null","47","","","","","","","","","","","","","","","",""
"","ISI","","html-keyboard-response","314","377821","0.0-1.0-426.0","0","0","88772","","null","","","null","47","NaN","","","","","","","","","","","","","","",""
"","S2","","html-keyboard-response","315","378071","0.0-1.0-427.0","0","0","88772","","245","","","75","47","","k","1","47","training","adjacent","BC","2","3","Q.jpg","O.jpg","0","1","0","",""
"","feedback","","html-keyboard-response","316","379078","0.0-1.0-429.0-0.0","0","0","88772","","null","","","null","47","","","","","","","","","","","","","","","",""
"","time_out","","html-keyboard-response","317","381083","0.0-1.0-431.0-0.0","0","0","88772","","null","","","null","47","","","","","","","","","","","","","","","",""
"","ITI","","html-keyboard-response","318","382088","0.0-1.0-432.0","0","0","88772","","null","","","null","47","","","","","","","","","","","","","","","NaN",""
"","block_over","","html-keyboard-response","319","392285","0.0-1.0-433.0-0.0","0","0","88772","","10192","","","32","47","","","","","","","","","","","","","","","",""
"","S1","","html-keyboard-response","320","392541","0.0-1.0-434.0","0","0","88772","","null","","","null","48","","","","","","","","","","","","","","","",""
"","ISI","","html-keyboard-response","321","393546","0.0-1.0-435.0","0","0","88772","","null","","","null","48","NaN","","","","","","","","","","","","","","",""
"","S2","","html-keyboard-response","322","393802","0.0-1.0-436.0","0","0","88772","","null","","","null","48","","NaN","","","","","","","","","","","","","",""
"","response","","html-keyboard-response","323","394286","0.0-1.0-437.0-0.0","0","0","88772","","479","","","68","48","","","2","48","training","adjacent","CD","3","4","O.jpg","L.jpg","1","1","1","",""
"","feedback","","html-keyboard-response","324","395292","0.0-1.0-438.0-0.0","0","0","88772","","null","","","null","48","","","","","","","","","","","","","","","",""
"","ITI","","html-keyboard-response","325","396298","0.0-1.0-441.0","0","0","88772","","null","","","null","48","","","","","","","","","","","","","","","NaN",""
"","S1","","html-keyboard-response","326","396553","0.0-1.0-443.0","0","0","88772","","null","","","null","49","","","","","","","","","","","","","","","",""
"","ISI","","html-keyboard-response","327","397557","0.0-1.0-444.0","0","0","88772","","null","","","null","49","NaN","","","","","","","","","","","","","","",""
"","S2","","html-keyboard-response","328","397813","0.0-1.0-445.0","0","0","88772","","null","","","null","49","","NaN","","","","","","","","","","","","","",""
"","response","","html-keyboard-response","329","398346","0.0-1.0-446.0-0.0","0","0","88772","","527","","","68","49","","","2","49","training","adjacent","FE","6","5","R.jpg","M.jpg","1","0","0","",""
"","feedback","","html-keyboard-response","330","399353","0.0-1.0-447.0-0.0","0","0","88772","","null","","","null","49","","","","","","","","","","","","","","","",""
"","time_out","","html-keyboard-response","331","401357","0.0-1.0-449.0-0.0","0","0","88772","","null","","","null","49","","","","","","","","","","","","","","","",""
"","ITI","","html-keyboard-response","332","402362","0.0-1.0-450.0","0","0","88772","","null","","","null","49","","","","","","","","","","","","","","","NaN",""
"","S1","","html-keyboard-response","333","402617","0.0-1.0-452.0","0","0","88772","","null","","","null","50","","","","","","","","","","","","","","","",""
"","ISI","","html-keyboard-response","334","403628","0.0-1.0-453.0","0","0","88772","","null","","","null","50","NaN","","","","","","","","","","","","","","",""
"","S2","","html-keyboard-response","335","403880","0.0-1.0-454.0","0","0","88772","","246","","","75","50","","k","2","50","training","adjacent","ED","5","4","M.jpg","L.jpg","0","0","1","",""
"","feedback","","html-keyboard-response","336","404887","0.0-1.0-456.0-0.0","0","0","88772","","null","","","null","50","","","","","","","","","","","","","","","",""
"","ITI","","html-keyboard-response","337","405892","0.0-1.0-459.0","0","0","88772","","null","","","null","50","","","","","","","","","","","","","","","NaN",""
"","S1","","html-keyboard-response","338","406148","0.0-1.0-461.0","0","0","88772","","null","","","null","51","","","","","","","","","","","","","","","",""
"","ISI","","html-keyboard-response","339","407153","0.0-1.0-462.0","0","0","88772","","null","","","null","51","NaN","","","","","","","","","","","","","","",""
"","S2","","html-keyboard-response","340","407408","0.0-1.0-463.0","0","0","88772","","null","","","null","51","","NaN","","","","","","","","","","","","","",""
"","response","","html-keyboard-response","341","407606","0.0-1.0-464.0-0.0","0","0","88772","","194","","","68","51","","","2","51","training","adjacent","DE","4","5","L.jpg","M.jpg","1","1","1","",""
"","feedback","","html-keyboard-response","342","408613","0.0-1.0-465.0-0.0","0","0","88772","","null","","","null","51","","","","","","","","","","","","","","","",""
"","ITI","","html-keyboard-response","343","409618","0.0-1.0-468.0","0","0","88772","","null","","","null","51","","","","","","","","","","","","","","","NaN",""
"","S1","","html-keyboard-response","344","409873","0.0-1.0-470.0","0","0","88772","","null","","","null","52","","","","","","","","","","","","","","","",""
"","ISI","","html-keyboard-response","345","410879","0.0-1.0-471.0","0","0","88772","","null","","","null","52","NaN","","","","","","","","","","","","","","",""
"","S2","","html-keyboard-response","346","411135","0.0-1.0-472.0","0","0","88772","","null","","","null","52","","NaN","","","","","","","","","","","","","",""
"","response","","html-keyboard-response","347","411601","0.0-1.0-473.0-0.0","0","0","88772","","464","","","68","52","","","2","52","training","adjacent","GF","7","6","P.jpg","R.jpg","1","0","0","",""
"","feedback","","html-keyboard-response","348","412608","0.0-1.0-474.0-0.0","0","0","88772","","null","","","null","52","","","","","","","","","","","","","","","",""
"","time_out","","html-keyboard-response","349","414614","0.0-1.0-476.0-0.0","0","0","88772","","null","","","null","52","","","","","","","","","","","","","","","",""
"","ITI","","html-keyboard-response","350","415621","0.0-1.0-477.0","0","0","88772","","null","","","null","52","","","","","","","","","","","","","","","NaN",""
"","S1","","html-keyboard-response","351","415876","0.0-1.0-479.0","0","0","88772","","null","","","null","53","","","","","","","","","","","","","","","",""
"","ISI","","html-keyboard-response","352","416881","0.0-1.0-480.0","0","0","88772","","null","","","null","53","NaN","","","","","","","","","","","","","","",""
"","S2","","html-keyboard-response","353","417137","0.0-1.0-481.0","0","0","88772","","null","","","null","53","","NaN","","","","","","","","","","","","","",""
"","response","","html-keyboard-response","354","417535","0.0-1.0-482.0-0.0","0","0","88772","","393","","","75","53","","","2","53","training","adjacent","CD","3","4","O.jpg","L.jpg","0","1","0","",""
"","feedback","","html-keyboard-response","355","418541","0.0-1.0-483.0-0.0","0","0","88772","","null","","","null","53","","","","","","","","","","","","","","","",""
"","time_out","","html-keyboard-response","356","420547","0.0-1.0-485.0-0.0","0","0","88772","","null","","","null","53","","","","","","","","","","","","","","","",""
"","ITI","","html-keyboard-response","357","421552","0.0-1.0-486.0","0","0","88772","","null","","","null","53","","","","","","","","","","","","","","","NaN",""
"","S1","","html-keyboard-response","358","421813","0.0-1.0-488.0","0","0","88772","","null","","","null","54","","","","","","","","","","","","","","","",""
"","ISI","","html-keyboard-response","359","422819","0.0-1.0-489.0","0","0","88772","","null","","","null","54","NaN","","","","","","","","","","","","","","",""
"","S2","","html-keyboard-response","360","423075","0.0-1.0-490.0","0","0","88772","","null","","","null","54","","NaN","","","","","","","","","","","","","",""
"","response","","html-keyboard-response","361","423604","0.0-1.0-491.0-0.0","0","0","88772","","525","","","68","54","","","2","54","training","adjacent","BA","2","1","Q.jpg","N.jpg","1","0","0","",""
"","feedback","","html-keyboard-response","362","424609","0.0-1.0-492.0-0.0","0","0","88772","","null","","","null","54","","","","","","","","","","","","","","","",""
"","time_out","","html-keyboard-response","363","426616","0.0-1.0-494.0-0.0","0","0","88772","","null","","","null","54","","","","","","","","","","","","","","","",""
"","ITI","","html-keyboard-response","364","427621","0.0-1.0-495.0","0","0","88772","","null","","","null","54","","","","","","","","","","","","","","","NaN",""
"","S1","","html-keyboard-response","365","427877","0.0-1.0-497.0","0","0","88772","","null","","","null","55","","","","","","","","","","","","","","","",""
"","ISI","","html-keyboard-response","366","428883","0.0-1.0-498.0","0","0","88772","","null","","","null","55","NaN","","","","","","","","","","","","","","",""
"","S2","","html-keyboard-response","367","429110","0.0-1.0-499.0","0","0","88772","","223","","","75","55","","k","2","55","training","adjacent","FE","6","5","R.jpg","M.jpg","0","0","1","",""
"","feedback","","html-keyboard-response","368","430117","0.0-1.0-501.0-0.0","0","0","88772","","null","","","null","55","","","","","","","","","","","","","","","",""
"","ITI","","html-keyboard-response","369","431123","0.0-1.0-504.0","0","0","88772","","null","","","null","55","","","","","","","","","","","","","","","NaN",""
"","S1","","html-keyboard-response","370","431378","0.0-1.0-506.0","0","0","88772","","null","","","null","56","","","","","","","","","","","","","","","",""
"","ISI","","html-keyboard-response","371","432382","0.0-1.0-507.0","0","0","88772","","null","","","null","56","NaN","","","","","","","","","","","","","","",""
"","S2","","html-keyboard-response","372","432637","0.0-1.0-508.0","0","0","88772","","null","","","null","56","","NaN","","","","","","","","","","","","","",""
"","response","","html-keyboard-response","373","432851","0.0-1.0-509.0-0.0","0","0","88772","","209","","","68","56","","","2","56","training","adjacent","CD","3","4","O.jpg","L.jpg","1","1","1","",""
"","feedback","","html-keyboard-response","374","433858","0.0-1.0-510.0-0.0","0","0","88772","","null","","","null","56","","","","","","","","","","","","","","","",""
"","ITI","","html-keyboard-response","375","434864","0.0-1.0-513.0","0","0","88772","","null","","","null","56","","","","","","","","","","","","","","","NaN",""
"","S1","","html-keyboard-response","376","435119","0.0-1.0-515.0","0","0","88772","","null","","","null","57","","","","","","","","","","","","","","","",""
"","ISI","","html-keyboard-response","377","436124","0.0-1.0-516.0","0","0","88772","","null","","","null","57","NaN","","","","","","","","","","","","","","",""
"","S2","","html-keyboard-response","378","436378","0.0-1.0-517.0","0","0","88772","","null","","","null","57","","NaN","","","","","","","","","","","","","",""
"","response","","html-keyboard-response","379","436637","0.0-1.0-518.0-0.0","0","0","88772","","254","","","75","57","","","2","57","training","adjacent","DC","4","3","L.jpg","O.jpg","0","0","1","",""
"","feedback","","html-keyboard-response","380","437644","0.0-1.0-519.0-0.0","0","0","88772","","null","","","null","57","","","","","","","","","","","","","","","",""
"","ITI","","html-keyboard-response","381","438648","0.0-1.0-522.0","0","0","88772","","null","","","null","57","","","","","","","","","","","","","","","NaN",""
"","S1","","html-keyboard-response","382","438905","0.0-1.0-524.0","0","0","88772","","null","","","null","58","","","","","","","","","","","","","","","",""
"","ISI","","html-keyboard-response","383","439910","0.0-1.0-525.0","0","0","88772","","null","","","null","58","NaN","","","","","","","","","","","","","","",""
"","S2","","html-keyboard-response","384","440166","0.0-1.0-526.0","0","0","88772","","null","","","null","58","","NaN","","","","","","","","","","","","","",""
"","response","","html-keyboard-response","385","440641","0.0-1.0-527.0-0.0","0","0","88772","","471","","","75","58","","","2","58","training","adjacent","FE","6","5","R.jpg","M.jpg","0","0","1","",""
"","feedback","","html-keyboard-response","386","441648","0.0-1.0-528.0-0.0","0","0","88772","","null","","","null","58","","","","","","","","","","","","","","","",""
"","ITI","","html-keyboard-response","387","442655","0.0-1.0-531.0","0","0","88772","","null","","","null","58","","","","","","","","","","","","","","","NaN",""
"","S1","","html-keyboard-response","388","442910","0.0-1.0-533.0","0","0","88772","","null","","","null","59","","","","","","","","","","","","","","","",""
"","ISI","","html-keyboard-response","389","443915","0.0-1.0-534.0","0","0","88772","","null","","","null","59","NaN","","","","","","","","","","","","","","",""
"","S2","","html-keyboard-response","390","444171","0.0-1.0-535.0","0","0","88772","","null","","","null","59","","NaN","","","","","","","","","","","","","",""
"","response","","html-keyboard-response","391","444509","0.0-1.0-536.0-0.0","0","0","88772","","333","","","68","59","","","2","59","training","adjacent","CB","3","2","O.jpg","Q.jpg","1","0","0","",""
"","feedback","","html-keyboard-response","392","445521","0.0-1.0-537.0-0.0","0","0","88772","","null","","","null","59","","","","","","","","","","","","","","","",""
"","time_out","","html-keyboard-response","393","447527","0.0-1.0-539.0-0.0","0","0","88772","","null","","","null","59","","","","","","","","","","","","","","","",""
"","ITI","","html-keyboard-response","394","448532","0.0-1.0-540.0","0","0","88772","","441","","","75","59","","","","","","","","","","","","","","","k",""
"","S1","","html-keyboard-response","395","448788","0.0-1.0-542.0","0","0","88772","","null","","","null","60","","","","","","","","","","","","","","","",""
"","ISI","","html-keyboard-response","396","449799","0.0-1.0-543.0","0","0","88772","","null","","","null","60","NaN","","","","","","","","","","","","","","",""
"","S2","","html-keyboard-response","397","450055","0.0-1.0-544.0","0","0","88772","","null","","","null","60","","NaN","","","","","","","","","","","","","",""
"","response","","html-keyboard-response","398","450549","0.0-1.0-545.0-0.0","0","0","88772","","488","","","68","60","","","2","60","training","adjacent","CB","3","2","O.jpg","Q.jpg","1","0","0","",""
"","feedback","","html-keyboard-response","399","451555","0.0-1.0-546.0-0.0","0","0","88772","","null","","","null","60","","","","","","","","","","","","","","","",""
"","time_out","","html-keyboard-response","400","453562","0.0-1.0-548.0-0.0","0","0","88772","","null","","","null","60","","","","","","","","","","","","","","","",""
"","ITI","","html-keyboard-response","401","454568","0.0-1.0-549.0","0","0","88772","","null","","","null","60","","","","","","","","","","","","","","","NaN",""
"","S1","","html-keyboard-response","402","454823","0.0-1.0-551.0","0","0","88772","","null","","","null","61","","","","","","","","","","","","","","","",""
"","ISI","","html-keyboard-response","403","455828","0.0-1.0-552.0","0","0","88772","","null","","","null","61","NaN","","","","","","","","","","","","","","",""
"","S2","","html-keyboard-response","404","456082","0.0-1.0-553.0","0","0","88772","","null","","","null","61","","NaN","","","","","","","","","","","","","",""
"","response","","html-keyboard-response","405","456639","0.0-1.0-554.0-0.0","0","0","88772","","552","","","68","61","","","2","61","training","adjacent","DE","4","5","L.jpg","M.jpg","1","1","1","",""
"","feedback","","html-keyboard-response","406","457645","0.0-1.0-555.0-0.0","0","0","88772","","null","","","null","61","","","","","","","","","","","","","","","",""
"","ITI","","html-keyboard-response","407","458652","0.0-1.0-558.0","0","0","88772","","null","","","null","61","","","","","","","","","","","","","","","NaN",""
"","S1","","html-keyboard-response","408","458908","0.0-1.0-560.0","0","0","88772","","null","","","null","62","","","","","","","","","","","","","","","",""
"","ISI","","html-keyboard-response","409","459913","0.0-1.0-561.0","0","0","88772","","null","","","null","62","NaN","","","","","","","","","","","","","","",""
"","S2","","html-keyboard-response","410","460168","0.0-1.0-562.0","0","0","88772","","null","","","null","62","","NaN","","","","","","","","","","","","","",""
"","response","","html-keyboard-response","411","460602","0.0-1.0-563.0-0.0","0","0","88772","","430","","","68","62","","","2","62","training","adjacent","DC","4","3","L.jpg","O.jpg","1","0","0","",""
"","feedback","","html-keyboard-response","412","461607","0.0-1.0-564.0-0.0","0","0","88772","","null","","","null","62","","","","","","","","","","","","","","","",""
"","time_out","","html-keyboard-response","413","463612","0.0-1.0-566.0-0.0","0","0","88772","","null","","","null","62","","","","","","","","","","","","","","","",""
"","ITI","","html-keyboard-response","414","464617","0.0-1.0-567.0","0","0","88772","","null","","","null","62","","","","","","","","","","","","","","","NaN",""
"","S1","","html-keyboard-response","415","464871","0.0-1.0-569.0","0","0","88772","","null","","","null","63","","","","","","","","","","","","","","","",""
"","ISI","","html-keyboard-response","416","465876","0.0-1.0-570.0","0","0","88772","","null","","","null","63","NaN","","","","","","","","","","","","","","",""
"","S2","","html-keyboard-response","417","466128","0.0-1.0-571.0","0","0","88772","","248","","","75","63","","k","2","63","training","adjacent","EF","5","6","M.jpg","R.jpg","0","1","0","",""
"","feedback","","html-keyboard-response","418","467133","0.0-1.0-573.0-0.0","0","0","88772","","null","","","null","63","","","","","","","","","","","","","","","",""
"","time_out","","html-keyboard-response","419","469137","0.0-1.0-575.0-0.0","0","0","88772","","null","","","null","63","","","","","","","","","","","","","","","",""
"","ITI","","html-keyboard-response","420","470142","0.0-1.0-576.0","0","0","88772","","null","","","null","63","","","","","","","","","","","","","","","NaN",""
"","S1","","html-keyboard-response","421","470397","0.0-1.0-578.0","0","0","88772","","null","","","null","64","","","","","","","","","","","","","","","",""
"","ISI","","html-keyboard-response","422","471404","0.0-1.0-579.0","0","0","88772","","347","","","68","64","d","","","","","","","","","","","","","","",""
"","S2","","html-keyboard-response","423","471659","0.0-1.0-580.0","0","0","88772","","null","","","null","64","","NaN","","","","","","","","","","","","","",""
"","response","","html-keyboard-response","424","471668","0.0-1.0-581.0-0.0","0","0","88772","","5","","","75","64","","","2","64","training","adjacent","BC","2","3","Q.jpg","O.jpg","0","1","0","",""
"","feedback","","html-keyboard-response","425","472673","0.0-1.0-582.0-0.0","0","0","88772","","null","","","null","64","","","","","","","","","","","","","","","",""
"","time_out","","html-keyboard-response","426","474678","0.0-1.0-584.0-0.0","0","0","88772","","null","","","null","64","","","","","","","","","","","","","","","",""
"","ITI","","html-keyboard-response","427","475683","0.0-1.0-585.0","0","0","88772","","null","","","null","64","","","","","","","","","","","","","","","NaN",""
"","S1","","html-keyboard-response","428","475938","0.0-1.0-587.0","0","0","88772","","null","","","null","65","","","","","","","","","","","","","","","",""
"","ISI","","html-keyboard-response","429","476943","0.0-1.0-588.0","0","0","88772","","499","","","68","65","d","","","","","","","","","","","","","","",""
"","S2","","html-keyboard-response","430","477198","0.0-1.0-589.0","0","0","88772","","null","","","null","65","","NaN","","","","","","","","","","","","","",""
"","response","","html-keyboard-response","431","477391","0.0-1.0-590.0-0.0","0","0","88772","","188","","","68","65","","","2","65","training","adjacent","BA","2","1","Q.jpg","N.jpg","1","0","0","",""
"","feedback","","html-keyboard-response","432","478398","0.0-1.0-591.0-0.0","0","0","88772","","null","","","null","65","","","","","","","","","","","","","","","",""
"","time_out","","html-keyboard-response","433","480409","0.0-1.0-593.0-0.0","0","0","88772","","null","","","null","65","","","","","","","","","","","","","","","",""
"","ITI","","html-keyboard-response","434","481415","0.0-1.0-594.0","0","0","88772","","179","","","75","65","","","","","","","","","","","","","","","k",""
"","S1","","html-keyboard-response","435","481671","0.0-1.0-596.0","0","0","88772","","null","","","null","66","","","","","","","","","","","","","","","",""
"","ISI","","html-keyboard-response","436","482677","0.0-1.0-597.0","0","0","88772","","287","","","75","66","k","","","","","","","","","","","","","","",""
"","S2","","html-keyboard-response","437","482933","0.0-1.0-598.0","0","0","88772","","null","","","null","66","","NaN","","","","","","","","","","","","","",""
"","response","","html-keyboard-response","438","483274","0.0-1.0-599.0-0.0","0","0","88772","","337","","","75","66","","","2","66","training","adjacent","ED","5","4","M.jpg","L.jpg","0","0","1","",""
"","feedback","","html-keyboard-response","439","484279","0.0-1.0-600.0-0.0","0","0","88772","","null","","","null","66","","","","","","","","","","","","","","","",""
"","ITI","","html-keyboard-response","440","485285","0.0-1.0-603.0","0","0","88772","","null","","","null","66","","","","","","","","","","","","","","","NaN",""
"","S1","","html-keyboard-response","441","485540","0.0-1.0-605.0","0","0","88772","","null","","","null","67","","","","","","","","","","","","","","","",""
"","ISI","","html-keyboard-response","442","486546","0.0-1.0-606.0","0","0","88772","","null","","","null","67","NaN","","","","","","","","","","","","","","",""
"","S2","","html-keyboard-response","443","486802","0.0-1.0-607.0","0","0","88772","","null","","","null","67","","NaN","","","","","","","","","","","","","",""
"","response","","html-keyboard-response","444","487292","0.0-1.0-608.0-0.0","0","0","88772","","485","","","75","67","","","2","67","training","adjacent","BC","2","3","Q.jpg","O.jpg","0","1","0","",""
"","feedback","","html-keyboard-response","445","488298","0.0-1.0-609.0-0.0","0","0","88772","","null","","","null","67","","","","","","","","","","","","","","","",""
"","time_out","","html-keyboard-response","446","490303","0.0-1.0-611.0-0.0","0","0","88772","","null","","","null","67","","","","","","","","","","","","","","","",""
"","ITI","","html-keyboard-response","447","491308","0.0-1.0-612.0","0","0","88772","","null","","","null","67","","","","","","","","","","","","","","","NaN",""
"","S1","","html-keyboard-response","448","491564","0.0-1.0-614.0","0","0","88772","","null","","","null","68","","","","","","","","","","","","","","","",""
"","ISI","","html-keyboard-response","449","492569","0.0-1.0-615.0","0","0","88772","","null","","","null","68","NaN","","","","","","","","","","","","","","",""
"","S2","","html-keyboard-response","450","492826","0.0-1.0-616.0","0","0","88772","","null","","","null","68","","NaN","","","","","","","","","","","","","",""
"","response","","html-keyboard-response","451","493273","0.0-1.0-617.0-0.0","0","0","88772","","443","","","68","68","","","2","68","training","adjacent","ED","5","4","M.jpg","L.jpg","1","0","0","",""
"","feedback","","html-keyboard-response","452","494279","0.0-1.0-618.0-0.0","0","0","88772","","null","","","null","68","","","","","","","","","","","","","","","",""
"","time_out","","html-keyboard-response","453","496283","0.0-1.0-620.0-0.0","0","0","88772","","null","","","null","68","","","","","","","","","","","","","","","",""
"","ITI","","html-keyboard-response","454","497289","0.0-1.0-621.0","0","0","88772","","null","","","null","68","","","","","","","","","","","","","","","NaN",""
"","S1","","html-keyboard-response","455","497545","0.0-1.0-623.0","0","0","88772","","null","","","null","69","","","","","","","","","","","","","","","",""
"","ISI","","html-keyboard-response","456","498550","0.0-1.0-624.0","0","0","88772","","null","","","null","69","NaN","","","","","","","","","","","","","","",""
"","S2","","html-keyboard-response","457","498806","0.0-1.0-625.0","0","0","88772","","null","","","null","69","","NaN","","","","","","","","","","","","","",""
"","response","","html-keyboard-response","458","500059","0.0-1.0-626.0-0.0","0","0","88772","","1248","","","68","69","","","2","69","training","adjacent","BC","2","3","Q.jpg","O.jpg","1","1","1","",""
"","feedback","","html-keyboard-response","459","501066","0.0-1.0-627.0-0.0","0","0","88772","","null","","","null","69","","","","","","","","","","","","","","","",""
"","ITI","","html-keyboard-response","460","502084","0.0-1.0-630.0","0","0","88772","","null","","","null","69","","","","","","","","","","","","","","","NaN",""
"","S1","","html-keyboard-response","461","502341","0.0-1.0-632.0","0","0","88772","","null","","","null","70","","","","","","","","","","","","","","","",""
"","ISI","","html-keyboard-response","462","503347","0.0-1.0-633.0","0","0","88772","","null","","","null","70","NaN","","","","","","","","","","","","","","",""
"","S2","","html-keyboard-response","463","503603","0.0-1.0-634.0","0","0","88772","","null","","","null","70","","NaN","","","","","","","","","","","","","",""
"","response","","html-keyboard-response","464","504232","0.0-1.0-635.0-0.0","0","0","88772","","623","","","68","70","","","2","70","training","adjacent","CB","3","2","O.jpg","Q.jpg","1","0","0","",""
"","feedback","","html-keyboard-response","465","505238","0.0-1.0-636.0-0.0","0","0","88772","","null","","","null","70","","","","","","","","","","","","","","","",""
"","time_out","","html-keyboard-response","466","507243","0.0-1.0-638.0-0.0","0","0","88772","","null","","","null","70","","","","","","","","","","","","","","","",""
"","ITI","","html-keyboard-response","467","508247","0.0-1.0-639.0","0","0","88772","","null","","","null","70","","","","","","","","","","","","","","","NaN",""
"","S1","","html-keyboard-response","468","508503","0.0-1.0-641.0","0","0","88772","","null","","","null","71","","","","","","","","","","","","","","","",""
"","ISI","","html-keyboard-response","469","509510","0.0-1.0-642.0","0","0","88772","","null","","","null","71","NaN","","","","","","","","","","","","","","",""
"","S2","","html-keyboard-response","470","509765","0.0-1.0-643.0","0","0","88772","","null","","","null","71","","NaN","","","","","","","","","","","","","",""
"","response","","html-keyboard-response","471","509872","0.0-1.0-644.0-0.0","0","0","88772","","101","","","75","71","","","2","71","training","adjacent","BC","2","3","Q.jpg","O.jpg","0","1","0","",""
"","feedback","","html-keyboard-response","472","510879","0.0-1.0-645.0-0.0","0","0","88772","","null","","","null","71","","","","","","","","","","","","","","","",""
"","time_out","","html-keyboard-response","473","512886","0.0-1.0-647.0-0.0","0","0","88772","","null","","","null","71","","","","","","","","","","","","","","","",""
"","ITI","","html-keyboard-response","474","513889","0.0-1.0-648.0","0","0","88772","","null","","","null","71","","","","","","","","","","","","","","","NaN",""
"","S1","","html-keyboard-response","475","514144","0.0-1.0-650.0","0","0","88772","","null","","","null","72","","","","","","","","","","","","","","","",""
"","ISI","","html-keyboard-response","476","515150","0.0-1.0-651.0","0","0","88772","","null","","","null","72","NaN","","","","","","","","","","","","","","",""
"","S2","","html-keyboard-response","477","515405","0.0-1.0-652.0","0","0","88772","","null","","","null","72","","NaN","","","","","","","","","","","","","",""
"","response","","html-keyboard-response","478","515521","0.0-1.0-653.0-0.0","0","0","88772","","110","","","68","72","","","2","72","training","adjacent","FG","6","7","R.jpg","P.jpg","1","1","1","",""
"","feedback","","html-keyboard-response","479","516527","0.0-1.0-654.0-0.0","0","0","88772","","null","","","null","72","","","","","","","","","","","","","","","",""
"","ITI","","html-keyboard-response","480","517533","0.0-1.0-657.0","0","0","88772","","null","","","null","72","","","","","","","","","","","","","","","NaN",""
"","S1","","html-keyboard-response","481","517788","0.0-1.0-659.0","0","0","88772","","null","","","null","73","","","","","","","","","","","","","","","",""
"","ISI","","html-keyboard-response","482","518793","0.0-1.0-660.0","0","0","88772","","null","","","null","73","NaN","","","","","","","","","","","","","","",""
"","S2","","html-keyboard-response","483","519048","0.0-1.0-661.0","0","0","88772","","null","","","null","73","","NaN","","","","","","","","","","","","","",""
"","response","","html-keyboard-response","484","519572","0.0-1.0-662.0-0.0","0","0","88772","","518","","","68","73","","","2","73","training","adjacent","GF","7","6","P.jpg","R.jpg","1","0","0","",""
"","feedback","","html-keyboard-response","485","520577","0.0-1.0-663.0-0.0","0","0","88772","","null","","","null","73","","","","","","","","","","","","","","","",""
"","time_out","","html-keyboard-response","486","522584","0.0-1.0-665.0-0.0","0","0","88772","","null","","","null","73","","","","","","","","","","","","","","","",""
"","ITI","","html-keyboard-response","487","523590","0.0-1.0-666.0","0","0","88772","","null","","","null","73","","","","","","","","","","","","","","","NaN",""
"","S1","","html-keyboard-response","488","523846","0.0-1.0-668.0","0","0","88772","","null","","","null","74","","","","","","","","","","","","","","","",""
"","ISI","","html-keyboard-response","489","524859","0.0-1.0-669.0","0","0","88772","","null","","","null","74","NaN","","","","","","","","","","","","","","",""
"","S2","","html-keyboard-response","490","525115","0.0-1.0-670.0","0","0","88772","","null","","","null","74","","NaN","","","","","","","","","","","","","",""
"","response","","html-keyboard-response","491","525819","0.0-1.0-671.0-0.0","0","0","88772","","700","","","75","74","","","2","74","training","adjacent","DE","4","5","L.jpg","M.jpg","0","1","0","",""
"","feedback","","html-keyboard-response","492","526824","0.0-1.0-672.0-0.0","0","0","88772","","null","","","null","74","","","","","","","","","","","","","","","",""
"","time_out","","html-keyboard-response","493","528831","0.0-1.0-674.0-0.0","0","0","88772","","null","","","null","74","","","","","","","","","","","","","","","",""
"","ITI","","html-keyboard-response","494","529836","0.0-1.0-675.0","0","0","88772","","null","","","null","74","","","","","","","","","","","","","","","NaN",""
"","S1","","html-keyboard-response","495","530092","0.0-1.0-677.0","0","0","88772","","null","","","null","75","","","","","","","","","","","","","","","",""
"","ISI","","html-keyboard-response","496","531095","0.0-1.0-678.0","0","0","88772","","null","","","null","75","NaN","","","","","","","","","","","","","","",""
"","S2","","html-keyboard-response","497","531350","0.0-1.0-679.0","0","0","88772","","null","","","null","75","","NaN","","","","","","","","","","","","","",""
"","response","","html-keyboard-response","498","531799","0.0-1.0-680.0-0.0","0","0","88772","","445","","","68","75","","","2","75","training","adjacent","ED","5","4","M.jpg","L.jpg","1","0","0","",""
"","feedback","","html-keyboard-response","499","532805","0.0-1.0-681.0-0.0","0","0","88772","","null","","","null","75","","","","","","","","","","","","","","","",""
"","time_out","","html-keyboard-response","500","534812","0.0-1.0-683.0-0.0","0","0","88772","","null","","","null","75","","","","","","","","","","","","","","","",""
"","ITI","","html-keyboard-response","501","535818","0.0-1.0-684.0","0","0","88772","","null","","","null","75","","","","","","","","","","","","","","","NaN",""
"","S1","","html-keyboard-response","502","536073","0.0-1.0-686.0","0","0","88772","","null","","","null","76","","","","","","","","","","","","","","","",""
"","ISI","","html-keyboard-response","503","537080","0.0-1.0-687.0","0","0","88772","","null","","","null","76","NaN","","","","","","","","","","","","","","",""
"","S2","","html-keyboard-response","504","537336","0.0-1.0-688.0","0","0","88772","","null","","","null","76","","NaN","","","","","","","","","","","","","",""
"","response","","html-keyboard-response","505","537711","0.0-1.0-689.0-0.0","0","0","88772","","370","","","68","76","","","2","76","training","adjacent","AB","1","2","N.jpg","Q.jpg","1","1","1","",""
"","feedback","","html-keyboard-response","506","538718","0.0-1.0-690.0-0.0","0","0","88772","","null","","","null","76","","","","","","","","","","","","","","","",""
"","ITI","","html-keyboard-response","507","539724","0.0-1.0-693.0","0","0","88772","","null","","","null","76","","","","","","","","","","","","","","","NaN",""
"","S1","","html-keyboard-response","508","539979","0.0-1.0-695.0","0","0","88772","","null","","","null","77","","","","","","","","","","","","","","","",""
"","ISI","","html-keyboard-response","509","540983","0.0-1.0-696.0","0","0","88772","","null","","","null","77","NaN","","","","","","","","","","","","","","",""
"","S2","","html-keyboard-response","510","541238","0.0-1.0-697.0","0","0","88772","","null","","","null","77","","NaN","","","","","","","","","","","","","",""
"","response","","html-keyboard-response","511","541776","0.0-1.0-698.0-0.0","0","0","88772","","533","","","75","77","","","2","77","training","adjacent","EF","5","6","M.jpg","R.jpg","0","1","0","",""
"","feedback","","html-keyboard-response","512","542782","0.0-1.0-699.0-0.0","0","0","88772","","null","","","null","77","","","","","","","","","","","","","","","",""
"","time_out","","html-keyboard-response","513","544787","0.0-1.0-701.0-0.0","0","0","88772","","null","","","null","77","","","","","","","","","","","","","","","",""
"","ITI","","html-keyboard-response","514","545792","0.0-1.0-702.0","0","0","88772","","null","","","null","77","","","","","","","","","","","","","","","NaN",""
"","S1","","html-keyboard-response","515","546048","0.0-1.0-704.0","0","0","88772","","null","","","null","78","","","","","","","","","","","","","","","",""
"","ISI","","html-keyboard-response","516","547054","0.0-1.0-705.0","0","0","88772","","null","","","null","78","NaN","","","","","","","","","","","","","","",""
"","S2","","html-keyboard-response","517","547309","0.0-1.0-706.0","0","0","88772","","null","","","null","78","","NaN","","","","","","","","","","","","","",""
"","response","","html-keyboard-response","518","547642","0.0-1.0-707.0-0.0","0","0","88772","","328","","","68","78","","","2","78","training","adjacent","EF","5","6","M.jpg","R.jpg","1","1","1","",""
"","feedback","","html-keyboard-response","519","548648","0.0-1.0-708.0-0.0","0","0","88772","","null","","","null","78","","","","","","","","","","","","","","","",""
"","ITI","","html-keyboard-response","520","549654","0.0-1.0-711.0","0","0","88772","","null","","","null","78","","","","","","","","","","","","","","","NaN",""
"","S1","","html-keyboard-response","521","549910","0.0-1.0-713.0","0","0","88772","","null","","","null","79","","","","","","","","","","","","","","","",""
"","ISI","","html-keyboard-response","522","550915","0.0-1.0-714.0","0","0","88772","","null","","","null","79","NaN","","","","","","","","","","","","","","",""
"","S2","","html-keyboard-response","523","551138","0.0-1.0-715.0","0","0","88772","","218","","","75","79","","k","2","79","training","adjacent","EF","5","6","M.jpg","R.jpg","0","1","0","",""
"","feedback","","html-keyboard-response","524","552146","0.0-1.0-717.0-0.0","0","0","88772","","null","","","null","79","","","","","","","","","","","","","","","",""
"","time_out","","html-keyboard-response","525","554152","0.0-1.0-719.0-0.0","0","0","88772","","null","","","null","79","","","","","","","","","","","","","","","",""
"","ITI","","html-keyboard-response","526","555164","0.0-1.0-720.0","0","0","88772","","null","","","null","79","","","","","","","","","","","","","","","NaN",""
"","S1","","html-keyboard-response","527","555420","0.0-1.0-722.0","0","0","88772","","null","","","null","80","","","","","","","","","","","","","","","",""
"","ISI","","html-keyboard-response","528","556425","0.0-1.0-723.0","0","0","88772","","null","","","null","80","NaN","","","","","","","","","","","","","","",""
"","S2","","html-keyboard-response","529","556681","0.0-1.0-724.0","0","0","88772","","null","","","null","80","","NaN","","","","","","","","","","","","","",""
"","response","","html-keyboard-response","530","556770","0.0-1.0-725.0-0.0","0","0","88772","","83","","","75","80","","","2","80","training","adjacent","BA","2","1","Q.jpg","N.jpg","0","0","1","",""
"","feedback","","html-keyboard-response","531","557776","0.0-1.0-726.0-0.0","0","0","88772","","null","","","null","80","","","","","","","","","","","","","","","",""
"","ITI","","html-keyboard-response","532","558781","0.0-1.0-729.0","0","0","88772","","null","","","null","80","","","","","","","","","","","","","","","NaN",""
"","S1","","html-keyboard-response","533","559035","0.0-1.0-731.0","0","0","88772","","null","","","null","81","","","","","","","","","","","","","","","",""
"","ISI","","html-keyboard-response","534","560040","0.0-1.0-732.0","0","0","88772","","null","","","null","81","NaN","","","","","","","","","","","","","","",""
"","S2","","html-keyboard-response","535","560294","0.0-1.0-733.0","0","0","88772","","null","","","null","81","","NaN","","","","","","","","","","","","","",""
"","response","","html-keyboard-response","536","560514","0.0-1.0-734.0-0.0","0","0","88772","","219","","","75","81","","","2","81","training","adjacent","DE","4","5","L.jpg","M.jpg","0","1","0","",""
"","feedback","","html-keyboard-response","537","561519","0.0-1.0-735.0-0.0","0","0","88772","","null","","","null","81","","","","","","","","","","","","","","","",""
"","time_out","","html-keyboard-response","538","563526","0.0-1.0-737.0-0.0","0","0","88772","","null","","","null","81","","","","","","","","","","","","","","","",""
"","ITI","","html-keyboard-response","539","564531","0.0-1.0-738.0","0","0","88772","","null","","","null","81","","","","","","","","","","","","","","","NaN",""
"","S1","","html-keyboard-response","540","564787","0.0-1.0-740.0","0","0","88772","","null","","","null","82","","","","","","","","","","","","","","","",""
"","ISI","","html-keyboard-response","541","565792","0.0-1.0-741.0","0","0","88772","","null","","","null","82","NaN","","","","","","","","","","","","","","",""
"","S2","","html-keyboard-response","542","566048","0.0-1.0-742.0","0","0","88772","","null","","","null","82","","NaN","","","","","","","","","","","","","",""
"","response","","html-keyboard-response","543","566110","0.0-1.0-743.0-0.0","0","0","88772","","57","","","68","82","","","2","82","training","adjacent","DC","4","3","L.jpg","O.jpg","1","0","0","",""
"","feedback","","html-keyboard-response","544","567116","0.0-1.0-744.0-0.0","0","0","88772","","null","","","null","82","","","","","","","","","","","","","","","",""
"","time_out","","html-keyboard-response","545","569123","0.0-1.0-746.0-0.0","0","0","88772","","null","","","null","82","","","","","","","","","","","","","","","",""
"","ITI","","html-keyboard-response","546","570128","0.0-1.0-747.0","0","0","88772","","null","","","null","82","","","","","","","","","","","","","","","NaN",""
"","S1","","html-keyboard-response","547","570384","0.0-1.0-749.0","0","0","88772","","null","","","null","83","","","","","","","","","","","","","","","",""
"","ISI","","html-keyboard-response","548","571389","0.0-1.0-750.0","0","0","88772","","51","","","75","83","k","","","","","","","","","","","","","","",""
"","S2","","html-keyboard-response","549","571623","0.0-1.0-751.0","0","0","88772","","229","","","75","83","","k","2","83","training","adjacent","AB","1","2","N.jpg","Q.jpg","0","1","0","",""
"","feedback","","html-keyboard-response","550","572629","0.0-1.0-753.0-0.0","0","0","88772","","null","","","null","83","","","","","","","","","","","","","","","",""
"","time_out","","html-keyboard-response","551","574635","0.0-1.0-755.0-0.0","0","0","88772","","null","","","null","83","","","","","","","","","","","","","","","",""
"","ITI","","html-keyboard-response","552","575640","0.0-1.0-756.0","0","0","88772","","null","","","null","83","","","","","","","","","","","","","","","NaN",""
"","S1","","html-keyboard-response","553","575896","0.0-1.0-758.0","0","0","88772","","null","","","null","84","","","","","","","","","","","","","","","",""
"","ISI","","html-keyboard-response","554","576901","0.0-1.0-759.0","0","0","88772","","null","","","null","84","NaN","","","","","","","","","","","","","","",""
"","S2","","html-keyboard-response","555","577162","0.0-1.0-760.0","0","0","88772","","null","","","null","84","","NaN","","","","","","","","","","","","","",""
"","response","","html-keyboard-response","556","577399","0.0-1.0-761.0-0.0","0","0","88772","","233","","","75","84","","","2","84","training","adjacent","FG","6","7","R.jpg","P.jpg","0","1","0","",""
"","feedback","","html-keyboard-response","557","578406","0.0-1.0-762.0-0.0","0","0","88772","","null","","","null","84","","","","","","","","","","","","","","","",""
"","time_out","","html-keyboard-response","558","580413","0.0-1.0-764.0-0.0","0","0","88772","","null","","","null","84","","","","","","","","","","","","","","","",""
"","ITI","","html-keyboard-response","559","581418","0.0-1.0-765.0","0","0","88772","","null","","","null","84","","","","","","","","","","","","","","","NaN",""
"","S1","","html-keyboard-response","560","581674","0.0-1.0-767.0","0","0","88772","","null","","","null","85","","","","","","","","","","","","","","","",""
"","ISI","","html-keyboard-response","561","582681","0.0-1.0-768.0","0","0","88772","","null","","","null","85","NaN","","","","","","","","","","","","","","",""
"","S2","","html-keyboard-response","562","582937","0.0-1.0-769.0","0","0","88772","","null","","","null","85","","NaN","","","","","","","","","","","","","",""
"","response","","html-keyboard-response","563","583490","0.0-1.0-770.0-0.0","0","0","88772","","548","","","68","85","","","2","85","training","adjacent","FG","6","7","R.jpg","P.jpg","1","1","1","",""
"","feedback","","html-keyboard-response","564","584497","0.0-1.0-771.0-0.0","0","0","88772","","null","","","null","85","","","","","","","","","","","","","","","",""
"","ITI","","html-keyboard-response","565","585502","0.0-1.0-774.0","0","0","88772","","null","","","null","85","","","","","","","","","","","","","","","NaN",""
"","S1","","html-keyboard-response","566","585757","0.0-1.0-776.0","0","0","88772","","null","","","null","86","","","","","","","","","","","","","","","",""
"","ISI","","html-keyboard-response","567","586762","0.0-1.0-777.0","0","0","88772","","null","","","null","86","NaN","","","","","","","","","","","","","","",""
"","S2","","html-keyboard-response","568","587017","0.0-1.0-778.0","0","0","88772","","null","","","null","86","","NaN","","","","","","","","","","","","","",""
"","response","","html-keyboard-response","569","587324","0.0-1.0-779.0-0.0","0","0","88772","","301","","","68","86","","","2","86","training","adjacent","DC","4","3","L.jpg","O.jpg","1","0","0","",""
"","feedback","","html-keyboard-response","570","588330","0.0-1.0-780.0-0.0","0","0","88772","","null","","","null","86","","","","","","","","","","","","","","","",""
"","time_out","","html-keyboard-response","571","590336","0.0-1.0-782.0-0.0","0","0","88772","","null","","","null","86","","","","","","","","","","","","","","","",""
"","ITI","","html-keyboard-response","572","591352","0.0-1.0-783.0","0","0","88772","","null","","","null","86","","","","","","","","","","","","","","","NaN",""
"","S1","","html-keyboard-response","573","591607","0.0-1.0-785.0","0","0","88772","","null","","","null","87","","","","","","","","","","","","","","","",""
"","ISI","","html-keyboard-response","574","592613","0.0-1.0-786.0","0","0","88772","","null","","","null","87","NaN","","","","","","","","","","","","","","",""
"","S2","","html-keyboard-response","575","592868","0.0-1.0-787.0","0","0","88772","","null","","","null","87","","NaN","","","","","","","","","","","","","",""
"","response","","html-keyboard-response","576","592938","0.0-1.0-788.0-0.0","0","0","88772","","64","","","75","87","","","2","87","training","adjacent","GF","7","6","P.jpg","R.jpg","0","0","1","",""
"","feedback","","html-keyboard-response","577","593943","0.0-1.0-789.0-0.0","0","0","88772","","null","","","null","87","","","","","","","","","","","","","","","",""
"","ITI","","html-keyboard-response","578","594948","0.0-1.0-792.0","0","0","88772","","null","","","null","87","","","","","","","","","","","","","","","NaN",""
"","S1","","html-keyboard-response","579","595203","0.0-1.0-794.0","0","0","88772","","null","","","null","88","","","","","","","","","","","","","","","",""
"","ISI","","html-keyboard-response","580","596208","0.0-1.0-795.0","0","0","88772","","null","","","null","88","NaN","","","","","","","","","","","","","","",""
"","S2","","html-keyboard-response","581","596464","0.0-1.0-796.0","0","0","88772","","null","","","null","88","","NaN","","","","","","","","","","","","","",""
