"success","ttype","start_time","trial_type","trial_index","time_elapsed","internal_node_id","warning","missed_checkup","PID","view_history","rt","responses","repeat_instructions","key_press","index","keypress_isi","keypress_S2","block","trial_num","phase","group_type","pair_type","S1_stim","S2_stim","S1_img","S2_img","S1_chosen","S1_higher","accuracy","keypress_iti","total_bonus_tally"
"true","full_screen","d04062023hr1849","fullscreen","0","11269","0.0-0.0","0","0","16221","","","","","","","","","","","","","","","","","","","","","",""
"","instructions","","instructions","1","39282","0.0-1.0-0.0-0.0","0","0","16221","[{""page_index"":0,""viewing_time"":5828},{""page_index"":1,""viewing_time"":9961},{""page_index"":2,""viewing_time"":10463},{""page_index"":3,""viewing_time"":1759}]","28011","","","","","","","","","","","","","","","","","","","",""
"","comprehension_check","","survey-multi-choice","2","61655","0.0-1.0-0.0-1.0","0","0","16221","","22369","{""Q0"":""True"",""Q1"":""D"",""Q2"":""Once the second image appears and while the screen 'MAKE A CHOICE' is shown"",""Q3"":""Green mark"",""Q4"":""either D or K""}","1","","","","","","","","","","","","","","","","","",""
"","missed_instruction_checkup","","html-keyboard-response","3","64020","0.0-1.0-0.0-2.0-0.0","0","1","16221","","2363","","","32","","","","","","","","","","","","","","","","",""
"","instructions","","instructions","4","90207","0.0-1.0-0.1-0.1","0","0","16221","[{""page_index"":0,""viewing_time"":4394},{""page_index"":1,""viewing_time"":19273},{""page_index"":2,""viewing_time"":1417},{""page_index"":3,""viewing_time"":1102}]","26187","","","","","","","","","","","","","","","","","","","",""
"","comprehension_check","","survey-multi-choice","5","99052","0.0-1.0-0.1-1.1","0","0","16221","","8843","{""Q0"":""True"",""Q1"":""K"",""Q2"":""Once the second image appears and while the screen 'MAKE A CHOICE' is shown"",""Q3"":""Green mark"",""Q4"":""either D or K""}","0","","","","","","","","","","","","","","","","","",""
"","start_exp","","html-keyboard-response","6","102123","0.0-1.0-1.0","0","0","16221","","3069","","","32","","","","","","","","","","","","","","","","",""
"","S1","","html-keyboard-response","7","102275","0.0-1.0-2.0","0","0","16221","","null","","","null","0","","","","","","","","","","","","","","","",""
"","ISI","","html-keyboard-response","8","104276","0.0-1.0-3.0","0","0","16221","","null","","","null","0","NaN","","","","","","","","","","","","","","",""
"","S2","","html-keyboard-response","9","104429","0.0-1.0-4.0","0","0","16221","","null","","","null","0","","NaN","","","","","","","","","","","","","",""
"","response","","html-keyboard-response","10","104958","0.0-1.0-5.0-0.0","0","0","16221","","528","","","75","0","","","1","0","training","adjacent","DC","4","3","L.jpg","P.jpg","1","0","0","",""
"","feedback","","html-keyboard-response","11","105961","0.0-1.0-6.0-0.0","0","0","16221","","null","","","null","0","","","","","","","","","","","","","","","",""
"","time_out","","html-keyboard-response","12","107963","0.0-1.0-8.0-0.0","0","0","16221","","null","","","null","0","","","","","","","","","","","","","","","",""
"","ITI","","html-keyboard-response","13","108966","0.0-1.0-9.0","0","0","16221","","null","","","null","0","","","","","","","","","","","","","","","NaN",""
"","S1","","html-keyboard-response","14","109117","0.0-1.0-11.0","0","0","16221","","null","","","null","1","","","","","","","","","","","","","","","",""
"","ISI","","html-keyboard-response","15","111119","0.0-1.0-12.0","0","0","16221","","null","","","null","1","NaN","","","","","","","","","","","","","","",""
"","S2","","html-keyboard-response","16","111271","0.0-1.0-13.0","0","0","16221","","null","","","null","1","","NaN","","","","","","","","","","","","","",""
"","response","","html-keyboard-response","17","111846","0.0-1.0-14.0-0.0","0","0","16221","","574","","","68","1","","","1","1","training","adjacent","GF","7","6","M.jpg","Q.jpg","0","0","1","",""
"","feedback","","html-keyboard-response","18","112848","0.0-1.0-15.0-0.0","0","0","16221","","null","","","null","1","","","","","","","","","","","","","","","",""
"","ITI","","html-keyboard-response","19","113850","0.0-1.0-18.0","0","0","16221","","null","","","null","1","","","","","","","","","","","","","","","NaN",""
"","S1","","html-keyboard-response","20","114002","0.0-1.0-20.0","0","0","16221","","null","","","null","2","","","","","","","","","","","","","","","",""
"","ISI","","html-keyboard-response","21","116005","0.0-1.0-21.0","0","0","16221","","null","","","null","2","NaN","","","","","","","","","","","","","","",""
"","S2","","html-keyboard-response","22","116157","0.0-1.0-22.0","0","0","16221","","null","","","null","2","","NaN","","","","","","","","","","","","","",""
"","response","","html-keyboard-response","23","116398","0.0-1.0-23.0-0.0","0","0","16221","","239","","","68","2","","","1","2","training","adjacent","BA","2","1","O.jpg","R.jpg","0","0","1","",""
"","feedback","","html-keyboard-response","24","117400","0.0-1.0-24.0-0.0","0","0","16221","","null","","","null","2","","","","","","","","","","","","","","","",""
"","ITI","","html-keyboard-response","25","118402","0.0-1.0-27.0","0","0","16221","","null","","","null","2","","","","","","","","","","","","","","","NaN",""
"","S1","","html-keyboard-response","26","118553","0.0-1.0-29.0","0","0","16221","","null","","","null","3","","","","","","","","","","","","","","","",""
"","ISI","","html-keyboard-response","27","120555","0.0-1.0-30.0","0","0","16221","","null","","","null","3","NaN","","","","","","","","","","","","","","",""
"","S2","","html-keyboard-response","28","120707","0.0-1.0-31.0","0","0","16221","","null","","","null","3","","NaN","","","","","","","","","","","","","",""
"","response","","html-keyboard-response","29","120821","0.0-1.0-32.0-0.0","0","0","16221","","113","","","75","3","","","1","3","training","adjacent","CB","3","2","P.jpg","O.jpg","1","0","0","",""
"","feedback","","html-keyboard-response","30","121823","0.0-1.0-33.0-0.0","0","0","16221","","null","","","null","3","","","","","","","","","","","","","","","",""
"","time_out","","html-keyboard-response","31","123824","0.0-1.0-35.0-0.0","0","0","16221","","null","","","null","3","","","","","","","","","","","","","","","",""
"","ITI","","html-keyboard-response","32","124826","0.0-1.0-36.0","0","0","16221","","null","","","null","3","","","","","","","","","","","","","","","NaN",""
"","S1","","html-keyboard-response","33","124977","0.0-1.0-38.0","0","0","16221","","null","","","null","4","","","","","","","","","","","","","","","",""
"","ISI","","html-keyboard-response","34","126980","0.0-1.0-39.0","0","0","16221","","null","","","null","4","NaN","","","","","","","","","","","","","","",""
"","S2","","html-keyboard-response","35","127132","0.0-1.0-40.0","0","0","16221","","null","","","null","4","","NaN","","","","","","","","","","","","","",""
"","response","","html-keyboard-response","36","127582","0.0-1.0-41.0-0.0","0","0","16221","","448","","","75","4","","","1","4","training","adjacent","BC","2","3","O.jpg","P.jpg","1","1","1","",""
"","feedback","","html-keyboard-response","37","128584","0.0-1.0-42.0-0.0","0","0","16221","","null","","","null","4","","","","","","","","","","","","","","","",""
"","ITI","","html-keyboard-response","38","129586","0.0-1.0-45.0","0","0","16221","","null","","","null","4","","","","","","","","","","","","","","","NaN",""
"","S1","","html-keyboard-response","39","129738","0.0-1.0-47.0","0","0","16221","","null","","","null","5","","","","","","","","","","","","","","","",""
"","ISI","","html-keyboard-response","40","131740","0.0-1.0-48.0","0","0","16221","","null","","","null","5","NaN","","","","","","","","","","","","","","",""
"","S2","","html-keyboard-response","41","131892","0.0-1.0-49.0","0","0","16221","","null","","","null","5","","NaN","","","","","","","","","","","","","",""
"","response","","html-keyboard-response","42","132475","0.0-1.0-50.0-0.0","0","0","16221","","582","","","68","5","","","1","5","training","adjacent","DE","4","5","L.jpg","N.jpg","0","1","0","",""
"","feedback","","html-keyboard-response","43","133478","0.0-1.0-51.0-0.0","0","0","16221","","null","","","null","5","","","","","","","","","","","","","","","",""
"","time_out","","html-keyboard-response","44","135480","0.0-1.0-53.0-0.0","0","0","16221","","null","","","null","5","","","","","","","","","","","","","","","",""
"","ITI","","html-keyboard-response","45","136482","0.0-1.0-54.0","0","0","16221","","null","","","null","5","","","","","","","","","","","","","","","NaN",""
"","S1","","html-keyboard-response","46","136634","0.0-1.0-56.0","0","0","16221","","null","","","null","6","","","","","","","","","","","","","","","",""
"","ISI","","html-keyboard-response","47","138637","0.0-1.0-57.0","0","0","16221","","null","","","null","6","NaN","","","","","","","","","","","","","","",""
"","S2","","html-keyboard-response","48","138789","0.0-1.0-58.0","0","0","16221","","null","","","null","6","","NaN","","","","","","","","","","","","","",""
"","response","","html-keyboard-response","49","139277","0.0-1.0-59.0-0.0","0","0","16221","","487","","","75","6","","","1","6","training","adjacent","GF","7","6","M.jpg","Q.jpg","1","0","0","",""
"","feedback","","html-keyboard-response","50","140280","0.0-1.0-60.0-0.0","0","0","16221","","null","","","null","6","","","","","","","","","","","","","","","",""
"","time_out","","html-keyboard-response","51","142282","0.0-1.0-62.0-0.0","0","0","16221","","null","","","null","6","","","","","","","","","","","","","","","",""
"","ITI","","html-keyboard-response","52","143284","0.0-1.0-63.0","0","0","16221","","null","","","null","6","","","","","","","","","","","","","","","NaN",""
"","S1","","html-keyboard-response","53","143435","0.0-1.0-65.0","0","0","16221","","null","","","null","7","","","","","","","","","","","","","","","",""
"","ISI","","html-keyboard-response","54","145437","0.0-1.0-66.0","0","0","16221","","null","","","null","7","NaN","","","","","","","","","","","","","","",""
"","S2","","html-keyboard-response","55","145589","0.0-1.0-67.0","0","0","16221","","null","","","null","7","","NaN","","","","","","","","","","","","","",""
"","response","","html-keyboard-response","56","145727","0.0-1.0-68.0-0.0","0","0","16221","","136","","","68","7","","","1","7","training","adjacent","ED","5","4","N.jpg","L.jpg","0","0","1","",""
"","feedback","","html-keyboard-response","57","146729","0.0-1.0-69.0-0.0","0","0","16221","","null","","","null","7","","","","","","","","","","","","","","","",""
"","ITI","","html-keyboard-response","58","147731","0.0-1.0-72.0","0","0","16221","","null","","","null","7","","","","","","","","","","","","","","","NaN",""
"","S1","","html-keyboard-response","59","147883","0.0-1.0-74.0","0","0","16221","","null","","","null","8","","","","","","","","","","","","","","","",""
"","ISI","","html-keyboard-response","60","149885","0.0-1.0-75.0","0","0","16221","","null","","","null","8","NaN","","","","","","","","","","","","","","",""
"","S2","","html-keyboard-response","61","150038","0.0-1.0-76.0","0","0","16221","","null","","","null","8","","NaN","","","","","","","","","","","","","",""
"","response","","html-keyboard-response","62","150480","0.0-1.0-77.0-0.0","0","0","16221","","441","","","68","8","","","1","8","training","adjacent","ED","5","4","N.jpg","L.jpg","0","0","1","",""
"","feedback","","html-keyboard-response","63","151482","0.0-1.0-78.0-0.0","0","0","16221","","null","","","null","8","","","","","","","","","","","","","","","",""
"","ITI","","html-keyboard-response","64","152485","0.0-1.0-81.0","0","0","16221","","null","","","null","8","","","","","","","","","","","","","","","NaN",""
"","S1","","html-keyboard-response","65","152637","0.0-1.0-83.0","0","0","16221","","null","","","null","9","","","","","","","","","","","","","","","",""
"","ISI","","html-keyboard-response","66","154639","0.0-1.0-84.0","0","0","16221","","null","","","null","9","NaN","","","","","","","","","","","","","","",""
"","S2","","html-keyboard-response","67","154791","0.0-1.0-85.0","0","0","16221","","null","","","null","9","","NaN","","","","","","","","","","","","","",""
"","response","","html-keyboard-response","68","155191","0.0-1.0-86.0-0.0","0","0","16221","","399","","","75","9","","","1","9","training","adjacent","BC","2","3","O.jpg","P.jpg","1","1","1","",""
"","feedback","","html-keyboard-response","69","156193","0.0-1.0-87.0-0.0","0","0","16221","","null","","","null","9","","","","","","","","","","","","","","","",""
"","ITI","","html-keyboard-response","70","157194","0.0-1.0-90.0","0","0","16221","","null","","","null","9","","","","","","","","","","","","","","","NaN",""
"","S1","","html-keyboard-response","71","157347","0.0-1.0-92.0","0","0","16221","","null","","","null","10","","","","","","","","","","","","","","","",""
"","ISI","","html-keyboard-response","72","159349","0.0-1.0-93.0","0","0","16221","","null","","","null","10","NaN","","","","","","","","","","","","","","",""
"","S2","","html-keyboard-response","73","159502","0.0-1.0-94.0","0","0","16221","","null","","","null","10","","NaN","","","","","","","","","","","","","",""
"","response","","html-keyboard-response","74","159868","0.0-1.0-95.0-0.0","0","0","16221","","366","","","75","10","","","1","10","training","adjacent","BA","2","1","O.jpg","R.jpg","1","0","0","",""
"","feedback","","html-keyboard-response","75","160870","0.0-1.0-96.0-0.0","0","0","16221","","null","","","null","10","","","","","","","","","","","","","","","",""
"","time_out","","html-keyboard-response","76","162872","0.0-1.0-98.0-0.0","0","0","16221","","null","","","null","10","","","","","","","","","","","","","","","",""
"","ITI","","html-keyboard-response","77","163874","0.0-1.0-99.0","0","0","16221","","null","","","null","10","","","","","","","","","","","","","","","NaN",""
"","S1","","html-keyboard-response","78","164026","0.0-1.0-101.0","0","0","16221","","null","","","null","11","","","","","","","","","","","","","","","",""
"","ISI","","html-keyboard-response","79","166028","0.0-1.0-102.0","0","0","16221","","350","","","68","11","d","","","","","","","","","","","","","","",""
"","S2","","html-keyboard-response","80","166180","0.0-1.0-103.0","0","0","16221","","null","","","null","11","","NaN","","","","","","","","","","","","","",""
"","response","","html-keyboard-response","81","166356","0.0-1.0-104.0-0.0","0","0","16221","","175","","","75","11","","","1","11","training","adjacent","DC","4","3","L.jpg","P.jpg","1","0","0","",""
"","feedback","","html-keyboard-response","82","167358","0.0-1.0-105.0-0.0","0","0","16221","","null","","","null","11","","","","","","","","","","","","","","","",""
"","time_out","","html-keyboard-response","83","169360","0.0-1.0-107.0-0.0","0","0","16221","","null","","","null","11","","","","","","","","","","","","","","","",""
"","ITI","","html-keyboard-response","84","170361","0.0-1.0-108.0","0","0","16221","","null","","","null","11","","","","","","","","","","","","","","","NaN",""
"","S1","","html-keyboard-response","85","170514","0.0-1.0-110.0","0","0","16221","","null","","","null","12","","","","","","","","","","","","","","","",""
"","ISI","","html-keyboard-response","86","172515","0.0-1.0-111.0","0","0","16221","","null","","","null","12","NaN","","","","","","","","","","","","","","",""
"","S2","","html-keyboard-response","87","172667","0.0-1.0-112.0","0","0","16221","","null","","","null","12","","NaN","","","","","","","","","","","","","",""
"","response","","html-keyboard-response","88","172806","0.0-1.0-113.0-0.0","0","0","16221","","137","","","68","12","","","1","12","training","adjacent","GF","7","6","M.jpg","Q.jpg","0","0","1","",""
"","feedback","","html-keyboard-response","89","173807","0.0-1.0-114.0-0.0","0","0","16221","","null","","","null","12","","","","","","","","","","","","","","","",""
"","ITI","","html-keyboard-response","90","174810","0.0-1.0-117.0","0","0","16221","","null","","","null","12","","","","","","","","","","","","","","","NaN",""
"","S1","","html-keyboard-response","91","174963","0.0-1.0-119.0","0","0","16221","","null","","","null","13","","","","","","","","","","","","","","","",""
"","ISI","","html-keyboard-response","92","176965","0.0-1.0-120.0","0","0","16221","","null","","","null","13","NaN","","","","","","","","","","","","","","",""
"","S2","","html-keyboard-response","93","177117","0.0-1.0-121.0","0","0","16221","","null","","","null","13","","NaN","","","","","","","","","","","","","",""
"","response","","html-keyboard-response","94","177260","0.0-1.0-122.0-0.0","0","0","16221","","142","","","68","13","","","1","13","training","adjacent","AB","1","2","R.jpg","O.jpg","0","1","0","",""
"","feedback","","html-keyboard-response","95","178263","0.0-1.0-123.0-0.0","0","0","16221","","null","","","null","13","","","","","","","","","","","","","","","",""
"","time_out","","html-keyboard-response","96","180265","0.0-1.0-125.0-0.0","0","0","16221","","null","","","null","13","","","","","","","","","","","","","","","",""
"","ITI","","html-keyboard-response","97","181267","0.0-1.0-126.0","0","0","16221","","null","","","null","13","","","","","","","","","","","","","","","NaN",""
"","S1","","html-keyboard-response","98","181418","0.0-1.0-128.0","0","0","16221","","null","","","null","14","","","","","","","","","","","","","","","",""
"","ISI","","html-keyboard-response","99","183420","0.0-1.0-129.0","0","0","16221","","null","","","null","14","NaN","","","","","","","","","","","","","","",""
"","S2","","html-keyboard-response","100","183573","0.0-1.0-130.0","0","0","16221","","null","","","null","14","","NaN","","","","","","","","","","","","","",""
"","response","","html-keyboard-response","101","183753","0.0-1.0-131.0-0.0","0","0","16221","","179","","","75","14","","","1","14","training","adjacent","CB","3","2","P.jpg","O.jpg","1","0","0","",""
"","feedback","","html-keyboard-response","102","184755","0.0-1.0-132.0-0.0","0","0","16221","","null","","","null","14","","","","","","","","","","","","","","","",""
"","time_out","","html-keyboard-response","103","186757","0.0-1.0-134.0-0.0","0","0","16221","","null","","","null","14","","","","","","","","","","","","","","","",""
"","ITI","","html-keyboard-response","104","187760","0.0-1.0-135.0","0","0","16221","","null","","","null","14","","","","","","","","","","","","","","","NaN",""
"","S1","","html-keyboard-response","105","187912","0.0-1.0-137.0","0","0","16221","","null","","","null","15","","","","","","","","","","","","","","","",""
"","ISI","","html-keyboard-response","106","189914","0.0-1.0-138.0","0","0","16221","","178","","","68","15","d","","","","","","","","","","","","","","",""
"","S2","","html-keyboard-response","107","190066","0.0-1.0-139.0","0","0","16221","","null","","","null","15","","NaN","","","","","","","","","","","","","",""
"","response","","html-keyboard-response","108","190197","0.0-1.0-140.0-0.0","0","0","16221","","130","","","68","15","","","1","15","training","adjacent","EF","5","6","N.jpg","Q.jpg","0","1","0","",""
"","feedback","","html-keyboard-response","109","191199","0.0-1.0-141.0-0.0","0","0","16221","","null","","","null","15","","","","","","","","","","","","","","","",""
"","time_out","","html-keyboard-response","110","193201","0.0-1.0-143.0-0.0","0","0","16221","","null","","","null","15","","","","","","","","","","","","","","","",""
"","ITI","","html-keyboard-response","111","194202","0.0-1.0-144.0","0","0","16221","","null","","","null","15","","","","","","","","","","","","","","","NaN",""
"","S1","","html-keyboard-response","112","194354","0.0-1.0-146.0","0","0","16221","","null","","","null","16","","","","","","","","","","","","","","","",""
"","ISI","","html-keyboard-response","113","196356","0.0-1.0-147.0","0","0","16221","","null","","","null","16","NaN","","","","","","","","","","","","","","",""
"","S2","","html-keyboard-response","114","196508","0.0-1.0-148.0","0","0","16221","","null","","","null","16","","NaN","","","","","","","","","","","","","",""
"","response","","html-keyboard-response","115","197363","0.0-1.0-149.0-0.0","0","0","16221","","853","","","75","16","","","1","16","training","adjacent","GF","7","6","M.jpg","Q.jpg","1","0","0","",""
"","feedback","","html-keyboard-response","116","198365","0.0-1.0-150.0-0.0","0","0","16221","","null","","","null","16","","","","","","","","","","","","","","","",""
"","time_out","","html-keyboard-response","117","200367","0.0-1.0-152.0-0.0","0","0","16221","","null","","","null","16","","","","","","","","","","","","","","","",""
"","ITI","","html-keyboard-response","118","201369","0.0-1.0-153.0","0","0","16221","","null","","","null","16","","","","","","","","","","","","","","","NaN",""
"","S1","","html-keyboard-response","119","201521","0.0-1.0-155.0","0","0","16221","","null","","","null","17","","","","","","","","","","","","","","","",""
"","ISI","","html-keyboard-response","120","203523","0.0-1.0-156.0","0","0","16221","","null","","","null","17","NaN","","","","","","","","","","","","","","",""
"","S2","","html-keyboard-response","121","203675","0.0-1.0-157.0","0","0","16221","","null","","","null","17","","NaN","","","","","","","","","","","","","",""
"","response","","html-keyboard-response","122","204294","0.0-1.0-158.0-0.0","0","0","16221","","617","","","68","17","","","1","17","training","adjacent","BC","2","3","O.jpg","P.jpg","0","1","0","",""
"","feedback","","html-keyboard-response","123","205296","0.0-1.0-159.0-0.0","0","0","16221","","null","","","null","17","","","","","","","","","","","","","","","",""
"","time_out","","html-keyboard-response","124","207298","0.0-1.0-161.0-0.0","0","0","16221","","null","","","null","17","","","","","","","","","","","","","","","",""
"","ITI","","html-keyboard-response","125","208299","0.0-1.0-162.0","0","0","16221","","null","","","null","17","","","","","","","","","","","","","","","NaN",""
"","S1","","html-keyboard-response","126","208452","0.0-1.0-164.0","0","0","16221","","null","","","null","18","","","","","","","","","","","","","","","",""
"","ISI","","html-keyboard-response","127","210454","0.0-1.0-165.0","0","0","16221","","null","","","null","18","NaN","","","","","","","","","","","","","","",""
"","S2","","html-keyboard-response","128","210607","0.0-1.0-166.0","0","0","16221","","null","","","null","18","","NaN","","","","","","","","","","","","","",""
"","response","","html-keyboard-response","129","211715","0.0-1.0-167.0-0.0","0","0","16221","","1107","","","68","18","","","1","18","training","adjacent","CD","3","4","P.jpg","L.jpg","0","1","0","",""
"","feedback","","html-keyboard-response","130","212716","0.0-1.0-168.0-0.0","0","0","16221","","null","","","null","18","","","","","","","","","","","","","","","",""
"","time_out","","html-keyboard-response","131","214718","0.0-1.0-170.0-0.0","0","0","16221","","null","","","null","18","","","","","","","","","","","","","","","",""
"","ITI","","html-keyboard-response","132","215719","0.0-1.0-171.0","0","0","16221","","null","","","null","18","","","","","","","","","","","","","","","NaN",""
"","S1","","html-keyboard-response","133","215871","0.0-1.0-173.0","0","0","16221","","null","","","null","19","","","","","","","","","","","","","","","",""
"","ISI","","html-keyboard-response","134","217873","0.0-1.0-174.0","0","0","16221","","null","","","null","19","NaN","","","","","","","","","","","","","","",""
"","S2","","html-keyboard-response","135","218026","0.0-1.0-175.0","0","0","16221","","null","","","null","19","","NaN","","","","","","","","","","","","","",""
"","response","","html-keyboard-response","136","218719","0.0-1.0-176.0-0.0","0","0","16221","","693","","","75","19","","","1","19","training","adjacent","BC","2","3","O.jpg","P.jpg","1","1","1","",""
"","feedback","","html-keyboard-response","137","219722","0.0-1.0-177.0-0.0","0","0","16221","","null","","","null","19","","","","","","","","","","","","","","","",""
"","ITI","","html-keyboard-response","138","220724","0.0-1.0-180.0","0","0","16221","","null","","","null","19","","","","","","","","","","","","","","","NaN",""
"","S1","","html-keyboard-response","139","220876","0.0-1.0-182.0","0","0","16221","","null","","","null","20","","","","","","","","","","","","","","","",""
"","ISI","","html-keyboard-response","140","222878","0.0-1.0-183.0","0","0","16221","","null","","","null","20","NaN","","","","","","","","","","","","","","",""
"","S2","","html-keyboard-response","141","223030","0.0-1.0-184.0","0","0","16221","","null","","","null","20","","NaN","","","","","","","","","","","","","",""
"","response","","html-keyboard-response","142","223921","0.0-1.0-185.0-0.0","0","0","16221","","889","","","68","20","","","1","20","training","adjacent","BA","2","1","O.jpg","R.jpg","0","0","1","",""
"","feedback","","html-keyboard-response","143","224923","0.0-1.0-186.0-0.0","0","0","16221","","null","","","null","20","","","","","","","","","","","","","","","",""
"","ITI","","html-keyboard-response","144","225925","0.0-1.0-189.0","0","0","16221","","null","","","null","20","","","","","","","","","","","","","","","NaN",""
"","S1","","html-keyboard-response","145","226077","0.0-1.0-191.0","0","0","16221","","null","","","null","21","","","","","","","","","","","","","","","",""
"","ISI","","html-keyboard-response","146","228079","0.0-1.0-192.0","0","0","16221","","null","","","null","21","NaN","","","","","","","","","","","","","","",""
"","S2","","html-keyboard-response","147","228232","0.0-1.0-193.0","0","0","16221","","null","","","null","21","","NaN","","","","","","","","","","","","","",""
"","response","","html-keyboard-response","148","228748","0.0-1.0-194.0-0.0","0","0","16221","","515","","","75","21","","","1","21","training","adjacent","DC","4","3","L.jpg","P.jpg","1","0","0","",""
"","feedback","","html-keyboard-response","149","229750","0.0-1.0-195.0-0.0","0","0","16221","","null","","","null","21","","","","","","","","","","","","","","","",""
"","time_out","","html-keyboard-response","150","231752","0.0-1.0-197.0-0.0","0","0","16221","","null","","","null","21","","","","","","","","","","","","","","","",""
"","ITI","","html-keyboard-response","151","232753","0.0-1.0-198.0","0","0","16221","","null","","","null","21","","","","","","","","","","","","","","","NaN",""
"","S1","","html-keyboard-response","152","232906","0.0-1.0-200.0","0","0","16221","","null","","","null","22","","","","","","","","","","","","","","","",""
"","ISI","","html-keyboard-response","153","234908","0.0-1.0-201.0","0","0","16221","","null","","","null","22","NaN","","","","","","","","","","","","","","",""
"","S2","","html-keyboard-response","154","235060","0.0-1.0-202.0","0","0","16221","","null","","","null","22","","NaN","","","","","","","","","","","","","",""
"","response","","html-keyboard-response","155","235732","0.0-1.0-203.0-0.0","0","0","16221","","671","","","68","22","","","1","22","training","adjacent","AB","1","2","R.jpg","O.jpg","0","1","0","",""
"","feedback","","html-keyboard-response","156","236734","0.0-1.0-204.0-0.0","0","0","16221","","null","","","null","22","","","","","","","","","","","","","","","",""
"","time_out","","html-keyboard-response","157","238736","0.0-1.0-206.0-0.0","0","0","16221","","null","","","null","22","","","","","","","","","","","","","","","",""
"","ITI","","html-keyboard-response","158","239737","0.0-1.0-207.0","0","0","16221","","null","","","null","22","","","","","","","","","","","","","","","NaN",""
"","S1","","html-keyboard-response","159","239890","0.0-1.0-209.0","0","0","16221","","null","","","null","23","","","","","","","","","","","","","","","",""
"","ISI","","html-keyboard-response","160","241893","0.0-1.0-210.0","0","0","16221","","null","","","null","23","NaN","","","","","","","","","","","","","","",""
"","S2","","html-keyboard-response","161","242044","0.0-1.0-211.0","0","0","16221","","null","","","null","23","","NaN","","","","","","","","","","","","","",""
"","response","","html-keyboard-response","162","242503","0.0-1.0-212.0-0.0","0","0","16221","","457","","","75","23","","","1","23","training","adjacent","EF","5","6","N.jpg","Q.jpg","1","1","1","",""
"","feedback","","html-keyboard-response","163","243505","0.0-1.0-213.0-0.0","0","0","16221","","null","","","null","23","","","","","","","","","","","","","","","",""
"","ITI","","html-keyboard-response","164","244508","0.0-1.0-216.0","0","0","16221","","null","","","null","23","","","","","","","","","","","","","","","NaN",""
"","S1","","html-keyboard-response","165","244660","0.0-1.0-218.0","0","0","16221","","null","","","null","24","","","","","","","","","","","","","","","",""
"","ISI","","html-keyboard-response","166","246661","0.0-1.0-219.0","0","0","16221","","null","","","null","24","NaN","","","","","","","","","","","","","","",""
"","S2","","html-keyboard-response","167","246814","0.0-1.0-220.0","0","0","16221","","null","","","null","24","","NaN","","","","","","","","","","","","","",""
"","response","","html-keyboard-response","168","247074","0.0-1.0-221.0-0.0","0","0","16221","","259","","","75","24","","","1","24","training","adjacent","FE","6","5","Q.jpg","N.jpg","1","0","0","",""
"","feedback","","html-keyboard-response","169","248076","0.0-1.0-222.0-0.0","0","0","16221","","null","","","null","24","","","","","","","","","","","","","","","",""
"","time_out","","html-keyboard-response","170","250078","0.0-1.0-224.0-0.0","0","0","16221","","null","","","null","24","","","","","","","","","","","","","","","",""
"","ITI","","html-keyboard-response","171","251079","0.0-1.0-225.0","0","0","16221","","null","","","null","24","","","","","","","","","","","","","","","NaN",""
"","S1","","html-keyboard-response","172","251231","0.0-1.0-227.0","0","0","16221","","null","","","null","25","","","","","","","","","","","","","","","",""
"","ISI","","html-keyboard-response","173","253233","0.0-1.0-228.0","0","0","16221","","552","","","75","25","k","","","","","","","","","","","","","","",""
"","S2","","html-keyboard-response","174","253385","0.0-1.0-229.0","0","0","16221","","null","","","null","25","","NaN","","","","","","","","","","","","","",""
"","response","","html-keyboard-response","175","253956","0.0-1.0-230.0-0.0","0","0","16221","","569","","","75","25","","","1","25","training","adjacent","FG","6","7","Q.jpg","M.jpg","1","1","1","",""
"","feedback","","html-keyboard-response","176","254958","0.0-1.0-231.0-0.0","0","0","16221","","null","","","null","25","","","","","","","","","","","","","","","",""
"","ITI","","html-keyboard-response","177","255960","0.0-1.0-234.0","0","0","16221","","null","","","null","25","","","","","","","","","","","","","","","NaN",""
"","S1","","html-keyboard-response","178","256111","0.0-1.0-236.0","0","0","16221","","null","","","null","26","","","","","","","","","","","","","","","",""
"","ISI","","html-keyboard-response","179","258114","0.0-1.0-237.0","0","0","16221","","null","","","null","26","NaN","","","","","","","","","","","","","","",""
"","S2","","html-keyboard-response","180","258266","0.0-1.0-238.0","0","0","16221","","null","","","null","26","","NaN","","","","","","","","","","","","","",""
"","response","","html-keyboard-response","181","258720","0.0-1.0-239.0-0.0","0","0","16221","","453","","","75","26","","","1","26","training","adjacent","BA","2","1","O.jpg","R.jpg","1","0","0","",""
"","feedback","","html-keyboard-response","182","259722","0.0-1.0-240.0-0.0","0","0","16221","","null","","","null","26","","","","","","","","","","","","","","","",""
"","time_out","","html-keyboard-response","183","261724","0.0-1.0-242.0-0.0","0","0","16221","","null","","","null","26","","","","","","","","","","","","","","","",""
"","ITI","","html-keyboard-response","184","262726","0.0-1.0-243.0","0","0","16221","","null","","","null","26","","","","","","","","","","","","","","","NaN",""
"","S1","","html-keyboard-response","185","262878","0.0-1.0-245.0","0","0","16221","","null","","","null","27","","","","","","","","","","","","","","","",""
"","ISI","","html-keyboard-response","186","264880","0.0-1.0-246.0","0","0","16221","","null","","","null","27","NaN","","","","","","","","","","","","","","",""
"","S2","","html-keyboard-response","187","265032","0.0-1.0-247.0","0","0","16221","","null","","","null","27","","NaN","","","","","","","","","","","","","",""
"","response","","html-keyboard-response","188","265630","0.0-1.0-248.0-0.0","0","0","16221","","596","","","68","27","","","1","27","training","adjacent","CD","3","4","P.jpg","L.jpg","0","1","0","",""
"","feedback","","html-keyboard-response","189","266632","0.0-1.0-249.0-0.0","0","0","16221","","null","","","null","27","","","","","","","","","","","","","","","",""
"","time_out","","html-keyboard-response","190","268634","0.0-1.0-251.0-0.0","0","0","16221","","null","","","null","27","","","","","","","","","","","","","","","",""
"","ITI","","html-keyboard-response","191","269636","0.0-1.0-252.0","0","0","16221","","null","","","null","27","","","","","","","","","","","","","","","NaN",""
"","S1","","html-keyboard-response","192","269788","0.0-1.0-254.0","0","0","16221","","null","","","null","28","","","","","","","","","","","","","","","",""
"","ISI","","html-keyboard-response","193","271790","0.0-1.0-255.0","0","0","16221","","null","","","null","28","NaN","","","","","","","","","","","","","","",""
"","S2","","html-keyboard-response","194","271943","0.0-1.0-256.0","0","0","16221","","null","","","null","28","","NaN","","","","","","","","","","","","","",""
"","response","","html-keyboard-response","195","272784","0.0-1.0-257.0-0.0","0","0","16221","","839","","","75","28","","","1","28","training","adjacent","DE","4","5","L.jpg","N.jpg","1","1","1","",""
"","feedback","","html-keyboard-response","196","273786","0.0-1.0-258.0-0.0","0","0","16221","","null","","","null","28","","","","","","","","","","","","","","","",""
"","ITI","","html-keyboard-response","197","274787","0.0-1.0-261.0","0","0","16221","","null","","","null","28","","","","","","","","","","","","","","","NaN",""
"","S1","","html-keyboard-response","198","274939","0.0-1.0-263.0","0","0","16221","","null","","","null","29","","","","","","","","","","","","","","","",""
"","ISI","","html-keyboard-response","199","276941","0.0-1.0-264.0","0","0","16221","","null","","","null","29","NaN","","","","","","","","","","","","","","",""
"","S2","","html-keyboard-response","200","277093","0.0-1.0-265.0","0","0","16221","","null","","","null","29","","NaN","","","","","","","","","","","","","",""
"","response","","html-keyboard-response","201","277611","0.0-1.0-266.0-0.0","0","0","16221","","516","","","68","29","","","1","29","training","adjacent","FE","6","5","Q.jpg","N.jpg","0","0","1","",""
"","feedback","","html-keyboard-response","202","278613","0.0-1.0-267.0-0.0","0","0","16221","","null","","","null","29","","","","","","","","","","","","","","","",""
"","ITI","","html-keyboard-response","203","279615","0.0-1.0-270.0","0","0","16221","","null","","","null","29","","","","","","","","","","","","","","","NaN",""
"","S1","","html-keyboard-response","204","279768","0.0-1.0-272.0","0","0","16221","","null","","","null","30","","","","","","","","","","","","","","","",""
"","ISI","","html-keyboard-response","205","281770","0.0-1.0-273.0","0","0","16221","","null","","","null","30","NaN","","","","","","","","","","","","","","",""
"","S2","","html-keyboard-response","206","281922","0.0-1.0-274.0","0","0","16221","","null","","","null","30","","NaN","","","","","","","","","","","","","",""
"","response","","html-keyboard-response","207","282449","0.0-1.0-275.0-0.0","0","0","16221","","526","","","68","30","","","1","30","training","adjacent","FG","6","7","Q.jpg","M.jpg","0","1","0","",""
"","feedback","","html-keyboard-response","208","283452","0.0-1.0-276.0-0.0","0","0","16221","","null","","","null","30","","","","","","","","","","","","","","","",""
"","time_out","","html-keyboard-response","209","285454","0.0-1.0-278.0-0.0","0","0","16221","","null","","","null","30","","","","","","","","","","","","","","","",""
"","ITI","","html-keyboard-response","210","286456","0.0-1.0-279.0","0","0","16221","","null","","","null","30","","","","","","","","","","","","","","","NaN",""
"","S1","","html-keyboard-response","211","286608","0.0-1.0-281.0","0","0","16221","","null","","","null","31","","","","","","","","","","","","","","","",""
"","ISI","","html-keyboard-response","212","288610","0.0-1.0-282.0","0","0","16221","","293","","","75","31","k","","","","","","","","","","","","","","",""
"","S2","","html-keyboard-response","213","288763","0.0-1.0-283.0","0","0","16221","","null","","","null","31","","NaN","","","","","","","","","","","","","",""
"","response","","html-keyboard-response","214","288935","0.0-1.0-284.0-0.0","0","0","16221","","171","","","75","31","","","1","31","training","adjacent","EF","5","6","N.jpg","Q.jpg","1","1","1","",""
"","feedback","","html-keyboard-response","215","289937","0.0-1.0-285.0-0.0","0","0","16221","","null","","","null","31","","","","","","","","","","","","","","","",""
"","ITI","","html-keyboard-response","216","290939","0.0-1.0-288.0","0","0","16221","","null","","","null","31","","","","","","","","","","","","","","","NaN",""
"","S1","","html-keyboard-response","217","291091","0.0-1.0-290.0","0","0","16221","","null","","","null","32","","","","","","","","","","","","","","","",""
"","ISI","","html-keyboard-response","218","293094","0.0-1.0-291.0","0","0","16221","","null","","","null","32","NaN","","","","","","","","","","","","","","",""
"","S2","","html-keyboard-response","219","293245","0.0-1.0-292.0","0","0","16221","","null","","","null","32","","NaN","","","","","","","","","","","","","",""
"","response","","html-keyboard-response","220","293881","0.0-1.0-293.0-0.0","0","0","16221","","634","","","68","32","","","1","32","training","adjacent","CB","3","2","P.jpg","O.jpg","0","0","1","",""
"","feedback","","html-keyboard-response","221","294882","0.0-1.0-294.0-0.0","0","0","16221","","null","","","null","32","","","","","","","","","","","","","","","",""
"","ITI","","html-keyboard-response","222","295885","0.0-1.0-297.0","0","0","16221","","null","","","null","32","","","","","","","","","","","","","","","NaN",""
"","S1","","html-keyboard-response","223","296038","0.0-1.0-299.0","0","0","16221","","null","","","null","33","","","","","","","","","","","","","","","",""
"","ISI","","html-keyboard-response","224","298039","0.0-1.0-300.0","0","0","16221","","null","","","null","33","NaN","","","","","","","","","","","","","","",""
"","S2","","html-keyboard-response","225","298191","0.0-1.0-301.0","0","0","16221","","null","","","null","33","","NaN","","","","","","","","","","","","","",""
"","response","","html-keyboard-response","226","299231","0.0-1.0-302.0-0.0","0","0","16221","","1038","","","68","33","","","1","33","training","adjacent","ED","5","4","N.jpg","L.jpg","0","0","1","",""
"","feedback","","html-keyboard-response","227","300233","0.0-1.0-303.0-0.0","0","0","16221","","null","","","null","33","","","","","","","","","","","","","","","",""
"","ITI","","html-keyboard-response","228","301236","0.0-1.0-306.0","0","0","16221","","null","","","null","33","","","","","","","","","","","","","","","NaN",""
"","S1","","html-keyboard-response","229","301388","0.0-1.0-308.0","0","0","16221","","null","","","null","34","","","","","","","","","","","","","","","",""
"","ISI","","html-keyboard-response","230","303391","0.0-1.0-309.0","0","0","16221","","null","","","null","34","NaN","","","","","","","","","","","","","","",""
"","S2","","html-keyboard-response","231","303544","0.0-1.0-310.0","0","0","16221","","null","","","null","34","","NaN","","","","","","","","","","","","","",""
"","response","","html-keyboard-response","232","305395","0.0-1.0-311.0-0.0","0","0","16221","","null","","","null","34","","","1","34","training","adjacent","FE","6","5","Q.jpg","N.jpg","NaN","0","0","",""
"","too_slow_prompt","","html-keyboard-response","233","306396","0.0-1.0-313.0-0.0","1","0","16221","","null","","","null","","","","","","","","","","","","","","","","",""
"","time_out","","html-keyboard-response","234","308398","0.0-1.0-314.0-0.0","0","0","16221","","null","","","null","34","","","","","","","","","","","","","","","",""
"","ITI","","html-keyboard-response","235","309400","0.0-1.0-315.0","0","0","16221","","null","","","null","34","","","","","","","","","","","","","","","NaN",""
"","S1","","html-keyboard-response","236","309552","0.0-1.0-317.0","0","0","16221","","null","","","null","35","","","","","","","","","","","","","","","",""
"","ISI","","html-keyboard-response","237","311555","0.0-1.0-318.0","0","0","16221","","null","","","null","35","NaN","","","","","","","","","","","","","","",""
"","S2","","html-keyboard-response","238","311706","0.0-1.0-319.0","0","0","16221","","null","","","null","35","","NaN","","","","","","","","","","","","","",""
"","response","","html-keyboard-response","239","311808","0.0-1.0-320.0-0.0","0","0","16221","","101","","","75","35","","","1","35","training","adjacent","DC","4","3","L.jpg","P.jpg","1","0","0","",""
"","feedback","","html-keyboard-response","240","312810","0.0-1.0-321.0-0.0","0","0","16221","","null","","","null","35","","","","","","","","","","","","","","","",""
"","time_out","","html-keyboard-response","241","314812","0.0-1.0-323.0-0.0","0","0","16221","","null","","","null","35","","","","","","","","","","","","","","","",""
"","ITI","","html-keyboard-response","242","315814","0.0-1.0-324.0","0","0","16221","","null","","","null","35","","","","","","","","","","","","","","","NaN",""
"","S1","","html-keyboard-response","243","315966","0.0-1.0-326.0","0","0","16221","","null","","","null","36","","","","","","","","","","","","","","","",""
"","ISI","","html-keyboard-response","244","317968","0.0-1.0-327.0","0","0","16221","","null","","","null","36","NaN","","","","","","","","","","","","","","",""
"","S2","","html-keyboard-response","245","318120","0.0-1.0-328.0","0","0","16221","","null","","","null","36","","NaN","","","","","","","","","","","","","",""
"","response","","html-keyboard-response","246","318278","0.0-1.0-329.0-0.0","0","0","16221","","157","","","68","36","","","1","36","training","adjacent","FE","6","5","Q.jpg","N.jpg","0","0","1","",""
"","feedback","","html-keyboard-response","247","319281","0.0-1.0-330.0-0.0","0","0","16221","","null","","","null","36","","","","","","","","","","","","","","","",""
"","ITI","","html-keyboard-response","248","320282","0.0-1.0-333.0","0","0","16221","","null","","","null","36","","","","","","","","","","","","","","","NaN",""
"","S1","","html-keyboard-response","249","320434","0.0-1.0-335.0","0","0","16221","","null","","","null","37","","","","","","","","","","","","","","","",""
"","ISI","","html-keyboard-response","250","322436","0.0-1.0-336.0","0","0","16221","","null","","","null","37","NaN","","","","","","","","","","","","","","",""
"","S2","","html-keyboard-response","251","322588","0.0-1.0-337.0","0","0","16221","","null","","","null","37","","NaN","","","","","","","","","","","","","",""
"","response","","html-keyboard-response","252","322742","0.0-1.0-338.0-0.0","0","0","16221","","153","","","75","37","","","1","37","training","adjacent","CD","3","4","P.jpg","L.jpg","1","1","1","",""
"","feedback","","html-keyboard-response","253","323745","0.0-1.0-339.0-0.0","0","0","16221","","null","","","null","37","","","","","","","","","","","","","","","",""
"","ITI","","html-keyboard-response","254","324747","0.0-1.0-342.0","0","0","16221","","null","","","null","37","","","","","","","","","","","","","","","NaN",""
"","S1","","html-keyboard-response","255","324899","0.0-1.0-344.0","0","0","16221","","null","","","null","38","","","","","","","","","","","","","","","",""
"","ISI","","html-keyboard-response","256","326900","0.0-1.0-345.0","0","0","16221","","null","","","null","38","NaN","","","","","","","","","","","","","","",""
"","S2","","html-keyboard-response","257","327053","0.0-1.0-346.0","0","0","16221","","null","","","null","38","","NaN","","","","","","","","","","","","","",""
"","response","","html-keyboard-response","258","327197","0.0-1.0-347.0-0.0","0","0","16221","","143","","","68","38","","","1","38","training","adjacent","CD","3","4","P.jpg","L.jpg","0","1","0","",""
"","feedback","","html-keyboard-response","259","328198","0.0-1.0-348.0-0.0","0","0","16221","","null","","","null","38","","","","","","","","","","","","","","","",""
"","time_out","","html-keyboard-response","260","330200","0.0-1.0-350.0-0.0","0","0","16221","","null","","","null","38","","","","","","","","","","","","","","","",""
"","ITI","","html-keyboard-response","261","331202","0.0-1.0-351.0","0","0","16221","","null","","","null","38","","","","","","","","","","","","","","","NaN",""
"","S1","","html-keyboard-response","262","331355","0.0-1.0-353.0","0","0","16221","","null","","","null","39","","","","","","","","","","","","","","","",""
"","ISI","","html-keyboard-response","263","333357","0.0-1.0-354.0","0","0","16221","","243","","","75","39","k","","","","","","","","","","","","","","",""
"","S2","","html-keyboard-response","264","333510","0.0-1.0-355.0","0","0","16221","","null","","","null","39","","NaN","","","","","","","","","","","","","",""
"","response","","html-keyboard-response","265","333684","0.0-1.0-356.0-0.0","0","0","16221","","173","","","75","39","","","1","39","training","adjacent","AB","1","2","R.jpg","O.jpg","1","1","1","",""
"","feedback","","html-keyboard-response","266","334686","0.0-1.0-357.0-0.0","0","0","16221","","null","","","null","39","","","","","","","","","","","","","","","",""
"","ITI","","html-keyboard-response","267","335688","0.0-1.0-360.0","0","0","16221","","null","","","null","39","","","","","","","","","","","","","","","NaN",""
"","S1","","html-keyboard-response","268","335840","0.0-1.0-362.0","0","0","16221","","null","","","null","40","","","","","","","","","","","","","","","",""
"","ISI","","html-keyboard-response","269","337841","0.0-1.0-363.0","0","0","16221","","null","","","null","40","NaN","","","","","","","","","","","","","","",""
"","S2","","html-keyboard-response","270","337994","0.0-1.0-364.0","0","0","16221","","null","","","null","40","","NaN","","","","","","","","","","","","","",""
"","response","","html-keyboard-response","271","338138","0.0-1.0-365.0-0.0","0","0","16221","","143","","","68","40","","","1","40","training","adjacent","ED","5","4","N.jpg","L.jpg","0","0","1","",""
"","feedback","","html-keyboard-response","272","339141","0.0-1.0-366.0-0.0","0","0","16221","","null","","","null","40","","","","","","","","","","","","","","","",""
"","ITI","","html-keyboard-response","273","340143","0.0-1.0-369.0","0","0","16221","","null","","","null","40","","","","","","","","","","","","","","","NaN",""
"","S1","","html-keyboard-response","274","340295","0.0-1.0-371.0","0","0","16221","","null","","","null","41","","","","","","","","","","","","","","","",""
"","ISI","","html-keyboard-response","275","342297","0.0-1.0-372.0","0","0","16221","","null","","","null","41","NaN","","","","","","","","","","","","","","",""
"","S2","","html-keyboard-response","276","342449","0.0-1.0-373.0","0","0","16221","","null","","","null","41","","NaN","","","","","","","","","","","","","",""
"","response","","html-keyboard-response","277","343286","0.0-1.0-374.0-0.0","0","0","16221","","835","","","75","41","","","1","41","training","adjacent","EF","5","6","N.jpg","Q.jpg","1","1","1","",""
"","feedback","","html-keyboard-response","278","344289","0.0-1.0-375.0-0.0","0","0","16221","","null","","","null","41","","","","","","","","","","","","","","","",""
"","ITI","","html-keyboard-response","279","345291","0.0-1.0-378.0","0","0","16221","","null","","","null","41","","","","","","","","","","","","","","","NaN",""
"","S1","","html-keyboard-response","280","345443","0.0-1.0-380.0","0","0","16221","","null","","","null","42","","","","","","","","","","","","","","","",""
"","ISI","","html-keyboard-response","281","347445","0.0-1.0-381.0","0","0","16221","","null","","","null","42","NaN","","","","","","","","","","","","","","",""
"","S2","","html-keyboard-response","282","347597","0.0-1.0-382.0","0","0","16221","","null","","","null","42","","NaN","","","","","","","","","","","","","",""
"","response","","html-keyboard-response","283","347728","0.0-1.0-383.0-0.0","0","0","16221","","129","","","68","42","","","1","42","training","adjacent","CB","3","2","P.jpg","O.jpg","0","0","1","",""
"","feedback","","html-keyboard-response","284","348731","0.0-1.0-384.0-0.0","0","0","16221","","null","","","null","42","","","","","","","","","","","","","","","",""
"","ITI","","html-keyboard-response","285","349732","0.0-1.0-387.0","0","0","16221","","null","","","null","42","","","","","","","","","","","","","","","NaN",""
"","S1","","html-keyboard-response","286","349885","0.0-1.0-389.0","0","0","16221","","null","","","null","43","","","","","","","","","","","","","","","",""
"","ISI","","html-keyboard-response","287","351886","0.0-1.0-390.0","0","0","16221","","null","","","null","43","NaN","","","","","","","","","","","","","","",""
"","S2","","html-keyboard-response","288","352039","0.0-1.0-391.0","0","0","16221","","null","","","null","43","","NaN","","","","","","","","","","","","","",""
"","response","","html-keyboard-response","289","352311","0.0-1.0-392.0-0.0","0","0","16221","","271","","","75","43","","","1","43","training","adjacent","FG","6","7","Q.jpg","M.jpg","1","1","1","",""
"","feedback","","html-keyboard-response","290","353312","0.0-1.0-393.0-0.0","0","0","16221","","null","","","null","43","","","","","","","","","","","","","","","",""
"","ITI","","html-keyboard-response","291","354314","0.0-1.0-396.0","0","0","16221","","null","","","null","43","","","","","","","","","","","","","","","NaN",""
"","S1","","html-keyboard-response","292","354466","0.0-1.0-398.0","0","0","16221","","null","","","null","44","","","","","","","","","","","","","","","",""
"","ISI","","html-keyboard-response","293","356468","0.0-1.0-399.0","0","0","16221","","null","","","null","44","NaN","","","","","","","","","","","","","","",""
"","S2","","html-keyboard-response","294","356620","0.0-1.0-400.0","0","0","16221","","null","","","null","44","","NaN","","","","","","","","","","","","","",""
"","response","","html-keyboard-response","295","357213","0.0-1.0-401.0-0.0","0","0","16221","","592","","","68","44","","","1","44","training","adjacent","AB","1","2","R.jpg","O.jpg","0","1","0","",""
"","feedback","","html-keyboard-response","296","358216","0.0-1.0-402.0-0.0","0","0","16221","","null","","","null","44","","","","","","","","","","","","","","","",""
"","time_out","","html-keyboard-response","297","360218","0.0-1.0-404.0-0.0","0","0","16221","","null","","","null","44","","","","","","","","","","","","","","","",""
"","ITI","","html-keyboard-response","298","361220","0.0-1.0-405.0","0","0","16221","","null","","","null","44","","","","","","","","","","","","","","","NaN",""
"","S1","","html-keyboard-response","299","361372","0.0-1.0-407.0","0","0","16221","","null","","","null","45","","","","","","","","","","","","","","","",""
"","ISI","","html-keyboard-response","300","363374","0.0-1.0-408.0","0","0","16221","","null","","","null","45","NaN","","","","","","","","","","","","","","",""
"","S2","","html-keyboard-response","301","363525","0.0-1.0-409.0","0","0","16221","","null","","","null","45","","NaN","","","","","","","","","","","","","",""
"","response","","html-keyboard-response","302","363961","0.0-1.0-410.0-0.0","0","0","16221","","434","","","75","45","","","1","45","training","adjacent","DE","4","5","L.jpg","N.jpg","1","1","1","",""
"","feedback","","html-keyboard-response","303","364964","0.0-1.0-411.0-0.0","0","0","16221","","null","","","null","45","","","","","","","","","","","","","","","",""
"","ITI","","html-keyboard-response","304","365965","0.0-1.0-414.0","0","0","16221","","null","","","null","45","","","","","","","","","","","","","","","NaN",""
"","S1","","html-keyboard-response","305","366116","0.0-1.0-416.0","0","0","16221","","null","","","null","46","","","","","","","","","","","","","","","",""
"","ISI","","html-keyboard-response","306","368118","0.0-1.0-417.0","0","0","16221","","null","","","null","46","NaN","","","","","","","","","","","","","","",""
"","S2","","html-keyboard-response","307","368270","0.0-1.0-418.0","0","0","16221","","null","","","null","46","","NaN","","","","","","","","","","","","","",""
"","response","","html-keyboard-response","308","368777","0.0-1.0-419.0-0.0","0","0","16221","","506","","","68","46","","","1","46","training","adjacent","DE","4","5","L.jpg","N.jpg","0","1","0","",""
"","feedback","","html-keyboard-response","309","369779","0.0-1.0-420.0-0.0","0","0","16221","","null","","","null","46","","","","","","","","","","","","","","","",""
"","time_out","","html-keyboard-response","310","371781","0.0-1.0-422.0-0.0","0","0","16221","","null","","","null","46","","","","","","","","","","","","","","","",""
"","ITI","","html-keyboard-response","311","372783","0.0-1.0-423.0","0","0","16221","","null","","","null","46","","","","","","","","","","","","","","","NaN",""
"","S1","","html-keyboard-response","312","372935","0.0-1.0-425.0","0","0","16221","","null","","","null","47","","","","","","","","","","","","","","","",""
"","ISI","","html-keyboard-response","313","374937","0.0-1.0-426.0","0","0","16221","","null","","","null","47","NaN","","","","","","","","","","","","","","",""
"","S2","","html-keyboard-response","314","375089","0.0-1.0-427.0","0","0","16221","","null","","","null","47","","NaN","","","","","","","","","","","","","",""
"","response","","html-keyboard-response","315","375248","0.0-1.0-428.0-0.0","0","0","16221","","157","","","68","47","","","1","47","training","adjacent","FG","6","7","Q.jpg","M.jpg","0","1","0","",""
"","feedback","","html-keyboard-response","316","376250","0.0-1.0-429.0-0.0","0","0","16221","","null","","","null","47","","","","","","","","","","","","","","","",""
"","time_out","","html-keyboard-response","317","378252","0.0-1.0-431.0-0.0","0","0","16221","","null","","","null","47","","","","","","","","","","","","","","","",""
"","ITI","","html-keyboard-response","318","379253","0.0-1.0-432.0","0","0","16221","","null","","","null","47","","","","","","","","","","","","","","","NaN",""
"","block_over","","html-keyboard-response","319","390829","0.0-1.0-433.0-0.0","0","0","16221","","11575","","","32","47","","","","","","","","","","","","","","","",""
"","S1","","html-keyboard-response","320","390982","0.0-1.0-434.0","0","0","16221","","null","","","null","48","","","","","","","","","","","","","","","",""
"","ISI","","html-keyboard-response","321","392983","0.0-1.0-435.0","0","0","16221","","null","","","null","48","NaN","","","","","","","","","","","","","","",""
"","S2","","html-keyboard-response","322","393136","0.0-1.0-436.0","0","0","16221","","null","","","null","48","","NaN","","","","","","","","","","","","","",""
"","response","","html-keyboard-response","323","393619","0.0-1.0-437.0-0.0","0","0","16221","","482","","","75","48","","","2","48","training","adjacent","EF","5","6","N.jpg","Q.jpg","1","1","1","",""
"","feedback","","html-keyboard-response","324","394621","0.0-1.0-438.0-0.0","0","0","16221","","null","","","null","48","","","","","","","","","","","","","","","",""
"","ITI","","html-keyboard-response","325","395623","0.0-1.0-441.0","0","0","16221","","null","","","null","48","","","","","","","","","","","","","","","NaN",""
"","S1","","html-keyboard-response","326","395775","0.0-1.0-443.0","0","0","16221","","null","","","null","49","","","","","","","","","","","","","","","",""
"","ISI","","html-keyboard-response","327","397777","0.0-1.0-444.0","0","0","16221","","null","","","null","49","NaN","","","","","","","","","","","","","","",""
"","S2","","html-keyboard-response","328","397930","0.0-1.0-445.0","0","0","16221","","null","","","null","49","","NaN","","","","","","","","","","","","","",""
"","response","","html-keyboard-response","329","398245","0.0-1.0-446.0-0.0","0","0","16221","","313","","","68","49","","","2","49","training","adjacent","FG","6","7","Q.jpg","M.jpg","0","1","0","",""
"","feedback","","html-keyboard-response","330","399247","0.0-1.0-447.0-0.0","0","0","16221","","null","","","null","49","","","","","","","","","","","","","","","",""
"","time_out","","html-keyboard-response","331","401248","0.0-1.0-449.0-0.0","0","0","16221","","null","","","null","49","","","","","","","","","","","","","","","",""
"","ITI","","html-keyboard-response","332","402250","0.0-1.0-450.0","0","0","16221","","null","","","null","49","","","","","","","","","","","","","","","NaN",""
"","S1","","html-keyboard-response","333","402402","0.0-1.0-452.0","0","0","16221","","null","","","null","50","","","","","","","","","","","","","","","",""
"","ISI","","html-keyboard-response","334","404404","0.0-1.0-453.0","0","0","16221","","242","","","75","50","k","","","","","","","","","","","","","","",""
"","S2","","html-keyboard-response","335","404556","0.0-1.0-454.0","0","0","16221","","null","","","null","50","","NaN","","","","","","","","","","","","","",""
"","response","","html-keyboard-response","336","404828","0.0-1.0-455.0-0.0","0","0","16221","","270","","","75","50","","","2","50","training","adjacent","CB","3","2","P.jpg","O.jpg","1","0","0","",""
"","feedback","","html-keyboard-response","337","405830","0.0-1.0-456.0-0.0","0","0","16221","","null","","","null","50","","","","","","","","","","","","","","","",""
"","time_out","","html-keyboard-response","338","407832","0.0-1.0-458.0-0.0","0","0","16221","","null","","","null","50","","","","","","","","","","","","","","","",""
"","ITI","","html-keyboard-response","339","408834","0.0-1.0-459.0","0","0","16221","","null","","","null","50","","","","","","","","","","","","","","","NaN",""
"","S1","","html-keyboard-response","340","408986","0.0-1.0-461.0","0","0","16221","","null","","","null","51","","","","","","","","","","","","","","","",""
"","ISI","","html-keyboard-response","341","410988","0.0-1.0-462.0","0","0","16221","","null","","","null","51","NaN","","","","","","","","","","","","","","",""
"","S2","","html-keyboard-response","342","411140","0.0-1.0-463.0","0","0","16221","","null","","","null","51","","NaN","","","","","","","","","","","","","",""
"","response","","html-keyboard-response","343","411320","0.0-1.0-464.0-0.0","0","0","16221","","179","","","68","51","","","2","51","training","adjacent","DC","4","3","L.jpg","P.jpg","0","0","1","",""
"","feedback","","html-keyboard-response","344","412322","0.0-1.0-465.0-0.0","0","0","16221","","null","","","null","51","","","","","","","","","","","","","","","",""
"","ITI","","html-keyboard-response","345","413323","0.0-1.0-468.0","0","0","16221","","null","","","null","51","","","","","","","","","","","","","","","NaN",""
"","S1","","html-keyboard-response","346","413474","0.0-1.0-470.0","0","0","16221","","null","","","null","52","","","","","","","","","","","","","","","",""
"","ISI","","html-keyboard-response","347","415476","0.0-1.0-471.0","0","0","16221","","null","","","null","52","NaN","","","","","","","","","","","","","","",""
"","S2","","html-keyboard-response","348","415629","0.0-1.0-472.0","0","0","16221","","null","","","null","52","","NaN","","","","","","","","","","","","","",""
"","response","","html-keyboard-response","349","416351","0.0-1.0-473.0-0.0","0","0","16221","","721","","","75","52","","","2","52","training","adjacent","EF","5","6","N.jpg","Q.jpg","1","1","1","",""
"","feedback","","html-keyboard-response","350","417353","0.0-1.0-474.0-0.0","0","0","16221","","null","","","null","52","","","","","","","","","","","","","","","",""
"","ITI","","html-keyboard-response","351","418355","0.0-1.0-477.0","0","0","16221","","null","","","null","52","","","","","","","","","","","","","","","NaN",""
"","S1","","html-keyboard-response","352","418508","0.0-1.0-479.0","0","0","16221","","null","","","null","53","","","","","","","","","","","","","","","",""
"","ISI","","html-keyboard-response","353","420510","0.0-1.0-480.0","0","0","16221","","null","","","null","53","NaN","","","","","","","","","","","","","","",""
"","S2","","html-keyboard-response","354","420661","0.0-1.0-481.0","0","0","16221","","null","","","null","53","","NaN","","","","","","","","","","","","","",""
"","response","","html-keyboard-response","355","421103","0.0-1.0-482.0-0.0","0","0","16221","","441","","","75","53","","","2","53","training","adjacent","CD","3","4","P.jpg","L.jpg","1","1","1","",""
"","feedback","","html-keyboard-response","356","422105","0.0-1.0-483.0-0.0","0","0","16221","","null","","","null","53","","","","","","","","","","","","","","","",""
"","ITI","","html-keyboard-response","357","423107","0.0-1.0-486.0","0","0","16221","","null","","","null","53","","","","","","","","","","","","","","","NaN",""
"","S1","","html-keyboard-response","358","423260","0.0-1.0-488.0","0","0","16221","","null","","","null","54","","","","","","","","","","","","","","","",""
"","ISI","","html-keyboard-response","359","425261","0.0-1.0-489.0","0","0","16221","","null","","","null","54","NaN","","","","","","","","","","","","","","",""
"","S2","","html-keyboard-response","360","425414","0.0-1.0-490.0","0","0","16221","","null","","","null","54","","NaN","","","","","","","","","","","","","",""
"","response","","html-keyboard-response","361","425880","0.0-1.0-491.0-0.0","0","0","16221","","465","","","68","54","","","2","54","training","adjacent","FG","6","7","Q.jpg","M.jpg","0","1","0","",""
"","feedback","","html-keyboard-response","362","426882","0.0-1.0-492.0-0.0","0","0","16221","","null","","","null","54","","","","","","","","","","","","","","","",""
"","time_out","","html-keyboard-response","363","428885","0.0-1.0-494.0-0.0","0","0","16221","","null","","","null","54","","","","","","","","","","","","","","","",""
"","ITI","","html-keyboard-response","364","429887","0.0-1.0-495.0","0","0","16221","","null","","","null","54","","","","","","","","","","","","","","","NaN",""
"","S1","","html-keyboard-response","365","430039","0.0-1.0-497.0","0","0","16221","","null","","","null","55","","","","","","","","","","","","","","","",""
"","ISI","","html-keyboard-response","366","432040","0.0-1.0-498.0","0","0","16221","","null","","","null","55","NaN","","","","","","","","","","","","","","",""
"","S2","","html-keyboard-response","367","432192","0.0-1.0-499.0","0","0","16221","","null","","","null","55","","NaN","","","","","","","","","","","","","",""
"","response","","html-keyboard-response","368","433279","0.0-1.0-500.0-0.0","0","0","16221","","1085","","","68","55","","","2","55","training","adjacent","GF","7","6","M.jpg","Q.jpg","0","0","1","",""
"","feedback","","html-keyboard-response","369","434281","0.0-1.0-501.0-0.0","0","0","16221","","null","","","null","55","","","","","","","","","","","","","","","",""
"","ITI","","html-keyboard-response","370","435284","0.0-1.0-504.0","0","0","16221","","null","","","null","55","","","","","","","","","","","","","","","NaN",""
"","S1","","html-keyboard-response","371","435436","0.0-1.0-506.0","0","0","16221","","null","","","null","56","","","","","","","","","","","","","","","",""
"","ISI","","html-keyboard-response","372","437438","0.0-1.0-507.0","0","0","16221","","null","","","null","56","NaN","","","","","","","","","","","","","","",""
"","S2","","html-keyboard-response","373","437590","0.0-1.0-508.0","0","0","16221","","null","","","null","56","","NaN","","","","","","","","","","","","","",""
"","response","","html-keyboard-response","374","437765","0.0-1.0-509.0-0.0","0","0","16221","","173","","","68","56","","","2","56","training","adjacent","GF","7","6","M.jpg","Q.jpg","0","0","1","",""
"","feedback","","html-keyboard-response","375","438767","0.0-1.0-510.0-0.0","0","0","16221","","null","","","null","56","","","","","","","","","","","","","","","",""
"","ITI","","html-keyboard-response","376","439769","0.0-1.0-513.0","0","0","16221","","null","","","null","56","","","","","","","","","","","","","","","NaN",""
"","S1","","html-keyboard-response","377","439921","0.0-1.0-515.0","0","0","16221","","null","","","null","57","","","","","","","","","","","","","","","",""
"","ISI","","html-keyboard-response","378","441923","0.0-1.0-516.0","0","0","16221","","null","","","null","57","NaN","","","","","","","","","","","","","","",""
"","S2","","html-keyboard-response","379","442076","0.0-1.0-517.0","0","0","16221","","null","","","null","57","","NaN","","","","","","","","","","","","","",""
"","response","","html-keyboard-response","380","442539","0.0-1.0-518.0-0.0","0","0","16221","","462","","","75","57","","","2","57","training","adjacent","BA","2","1","O.jpg","R.jpg","1","0","0","",""
"","feedback","","html-keyboard-response","381","443542","0.0-1.0-519.0-0.0","0","0","16221","","null","","","null","57","","","","","","","","","","","","","","","",""
"","time_out","","html-keyboard-response","382","445545","0.0-1.0-521.0-0.0","0","0","16221","","null","","","null","57","","","","","","","","","","","","","","","",""
"","ITI","","html-keyboard-response","383","446547","0.0-1.0-522.0","0","0","16221","","null","","","null","57","","","","","","","","","","","","","","","NaN",""
"","S1","","html-keyboard-response","384","446699","0.0-1.0-524.0","0","0","16221","","null","","","null","58","","","","","","","","","","","","","","","",""
"","ISI","","html-keyboard-response","385","448701","0.0-1.0-525.0","0","0","16221","","null","","","null","58","NaN","","","","","","","","","","","","","","",""
"","S2","","html-keyboard-response","386","448853","0.0-1.0-526.0","0","0","16221","","null","","","null","58","","NaN","","","","","","","","","","","","","",""
"","response","","html-keyboard-response","387","449288","0.0-1.0-527.0-0.0","0","0","16221","","434","","","68","58","","","2","58","training","adjacent","EF","5","6","N.jpg","Q.jpg","0","1","0","",""
"","feedback","","html-keyboard-response","388","450291","0.0-1.0-528.0-0.0","0","0","16221","","null","","","null","58","","","","","","","","","","","","","","","",""
"","time_out","","html-keyboard-response","389","452293","0.0-1.0-530.0-0.0","0","0","16221","","null","","","null","58","","","","","","","","","","","","","","","",""
"","ITI","","html-keyboard-response","390","453295","0.0-1.0-531.0","0","0","16221","","null","","","null","58","","","","","","","","","","","","","","","NaN",""
"","S1","","html-keyboard-response","391","453447","0.0-1.0-533.0","0","0","16221","","null","","","null","59","","","","","","","","","","","","","","","",""
"","ISI","","html-keyboard-response","392","455449","0.0-1.0-534.0","0","0","16221","","null","","","null","59","NaN","","","","","","","","","","","","","","",""
"","S2","","html-keyboard-response","393","455601","0.0-1.0-535.0","0","0","16221","","null","","","null","59","","NaN","","","","","","","","","","","","","",""
"","response","","html-keyboard-response","394","455716","0.0-1.0-536.0-0.0","0","0","16221","","113","","","68","59","","","2","59","training","adjacent","BC","2","3","O.jpg","P.jpg","0","1","0","",""
"","feedback","","html-keyboard-response","395","456718","0.0-1.0-537.0-0.0","0","0","16221","","null","","","null","59","","","","","","","","","","","","","","","",""
"","time_out","","html-keyboard-response","396","458721","0.0-1.0-539.0-0.0","0","0","16221","","null","","","null","59","","","","","","","","","","","","","","","",""
"","ITI","","html-keyboard-response","397","459722","0.0-1.0-540.0","0","0","16221","","null","","","null","59","","","","","","","","","","","","","","","NaN",""
"","S1","","html-keyboard-response","398","459874","0.0-1.0-542.0","0","0","16221","","null","","","null","60","","","","","","","","","","","","","","","",""
"","ISI","","html-keyboard-response","399","461876","0.0-1.0-543.0","0","0","16221","","null","","","null","60","NaN","","","","","","","","","","","","","","",""
"","S2","","html-keyboard-response","400","462028","0.0-1.0-544.0","0","0","16221","","null","","","null","60","","NaN","","","","","","","","","","","","","",""
"","response","","html-keyboard-response","401","462155","0.0-1.0-545.0-0.0","0","0","16221","","127","","","75","60","","","2","60","training","adjacent","ED","5","4","N.jpg","L.jpg","1","0","0","",""
"","feedback","","html-keyboard-response","402","463158","0.0-1.0-546.0-0.0","0","0","16221","","null","","","null","60","","","","","","","","","","","","","","","",""
"","time_out","","html-keyboard-response","403","465160","0.0-1.0-548.0-0.0","0","0","16221","","null","","","null","60","","","","","","","","","","","","","","","",""
"","ITI","","html-keyboard-response","404","466161","0.0-1.0-549.0","0","0","16221","","null","","","null","60","","","","","","","","","","","","","","","NaN",""
"","S1","","html-keyboard-response","405","466313","0.0-1.0-551.0","0","0","16221","","null","","","null","61","","","","","","","","","","","","","","","",""
"","ISI","","html-keyboard-response","406","468316","0.0-1.0-552.0","0","0","16221","","263","","","68","61","d","","","","","","","","","","","","","","",""
"","S2","","html-keyboard-response","407","468468","0.0-1.0-553.0","0","0","16221","","null","","","null","61","","NaN","","","","","","","","","","","","","",""
"","response","","html-keyboard-response","408","468791","0.0-1.0-554.0-0.0","0","0","16221","","322","","","75","61","","","2","61","training","adjacent","BC","2","3","O.jpg","P.jpg","1","1","1","",""
"","feedback","","html-keyboard-response","409","469794","0.0-1.0-555.0-0.0","0","0","16221","","null","","","null","61","","","","","","","","","","","","","","","",""
"","ITI","","html-keyboard-response","410","470796","0.0-1.0-558.0","0","0","16221","","null","","","null","61","","","","","","","","","","","","","","","NaN",""
"","S1","","html-keyboard-response","411","470949","0.0-1.0-560.0","0","0","16221","","null","","","null","62","","","","","","","","","","","","","","","",""
"","ISI","","html-keyboard-response","412","472951","0.0-1.0-561.0","0","0","16221","","null","","","null","62","NaN","","","","","","","","","","","","","","",""
"","S2","","html-keyboard-response","413","473104","0.0-1.0-562.0","0","0","16221","","null","","","null","62","","NaN","","","","","","","","","","","","","",""
"","response","","html-keyboard-response","414","473684","0.0-1.0-563.0-0.0","0","0","16221","","579","","","68","62","","","2","62","training","adjacent","AB","1","2","R.jpg","O.jpg","0","1","0","",""
"","feedback","","html-keyboard-response","415","474686","0.0-1.0-564.0-0.0","0","0","16221","","null","","","null","62","","","","","","","","","","","","","","","",""
"","time_out","","html-keyboard-response","416","476688","0.0-1.0-566.0-0.0","0","0","16221","","null","","","null","62","","","","","","","","","","","","","","","",""
"","ITI","","html-keyboard-response","417","477691","0.0-1.0-567.0","0","0","16221","","null","","","null","62","","","","","","","","","","","","","","","NaN",""
"","S1","","html-keyboard-response","418","477842","0.0-1.0-569.0","0","0","16221","","null","","","null","63","","","","","","","","","","","","","","","",""
"","ISI","","html-keyboard-response","419","479844","0.0-1.0-570.0","0","0","16221","","null","","","null","63","NaN","","","","","","","","","","","","","","",""
"","S2","","html-keyboard-response","420","479962","0.0-1.0-571.0","0","0","16221","","118","","","68","63","","d","2","63","training","adjacent","BC","2","3","O.jpg","P.jpg","0","1","0","",""
"","feedback","","html-keyboard-response","421","480965","0.0-1.0-573.0-0.0","0","0","16221","","null","","","null","63","","","","","","","","","","","","","","","",""
"","time_out","","html-keyboard-response","422","482967","0.0-1.0-575.0-0.0","0","0","16221","","null","","","null","63","","","","","","","","","","","","","","","",""
"","ITI","","html-keyboard-response","423","483968","0.0-1.0-576.0","0","0","16221","","null","","","null","63","","","","","","","","","","","","","","","NaN",""
"","S1","","html-keyboard-response","424","484120","0.0-1.0-578.0","0","0","16221","","null","","","null","64","","","","","","","","","","","","","","","",""
"","ISI","","html-keyboard-response","425","486122","0.0-1.0-579.0","0","0","16221","","null","","","null","64","NaN","","","","","","","","","","","","","","",""
"","S2","","html-keyboard-response","426","486275","0.0-1.0-580.0","0","0","16221","","null","","","null","64","","NaN","","","","","","","","","","","","","",""
"","response","","html-keyboard-response","427","488127","0.0-1.0-581.0-0.0","0","0","16221","","null","","","null","64","","","2","64","training","adjacent","GF","7","6","M.jpg","Q.jpg","NaN","0","0","",""
"","too_slow_prompt","","html-keyboard-response","428","489130","0.0-1.0-583.0-0.0","1","0","16221","","null","","","null","","","","","","","","","","","","","","","","",""
"","time_out","","html-keyboard-response","429","491131","0.0-1.0-584.0-0.0","0","0","16221","","null","","","null","64","","","","","","","","","","","","","","","",""
"","ITI","","html-keyboard-response","430","492133","0.0-1.0-585.0","0","0","16221","","null","","","null","64","","","","","","","","","","","","","","","NaN",""
"","S1","","html-keyboard-response","431","492286","0.0-1.0-587.0","0","0","16221","","null","","","null","65","","","","","","","","","","","","","","","",""
"","ISI","","html-keyboard-response","432","494287","0.0-1.0-588.0","0","0","16221","","143","","","68","65","d","","","","","","","","","","","","","","",""
"","S2","","html-keyboard-response","433","494440","0.0-1.0-589.0","0","0","16221","","null","","","null","65","","NaN","","","","","","","","","","","","","",""
"","response","","html-keyboard-response","434","494750","0.0-1.0-590.0-0.0","0","0","16221","","308","","","75","65","","","2","65","training","adjacent","CD","3","4","P.jpg","L.jpg","1","1","1","",""
"","feedback","","html-keyboard-response","435","495752","0.0-1.0-591.0-0.0","0","0","16221","","null","","","null","65","","","","","","","","","","","","","","","",""
"","ITI","","html-keyboard-response","436","496754","0.0-1.0-594.0","0","0","16221","","null","","","null","65","","","","","","","","","","","","","","","NaN",""
"","S1","","html-keyboard-response","437","496907","0.0-1.0-596.0","0","0","16221","","null","","","null","66","","","","","","","","","","","","","","","",""
"","ISI","","html-keyboard-response","438","498909","0.0-1.0-597.0","0","0","16221","","null","","","null","66","NaN","","","","","","","","","","","","","","",""
"","S2","","html-keyboard-response","439","499062","0.0-1.0-598.0","0","0","16221","","null","","","null","66","","NaN","","","","","","","","","","","","","",""
"","response","","html-keyboard-response","440","499278","0.0-1.0-599.0-0.0","0","0","16221","","216","","","68","66","","","2","66","training","adjacent","DE","4","5","L.jpg","N.jpg","0","1","0","",""
"","feedback","","html-keyboard-response","441","500281","0.0-1.0-600.0-0.0","0","0","16221","","null","","","null","66","","","","","","","","","","","","","","","",""
"","time_out","","html-keyboard-response","442","502283","0.0-1.0-602.0-0.0","0","0","16221","","null","","","null","66","","","","","","","","","","","","","","","",""
"","ITI","","html-keyboard-response","443","503284","0.0-1.0-603.0","0","0","16221","","null","","","null","66","","","","","","","","","","","","","","","NaN",""
"","S1","","html-keyboard-response","444","503436","0.0-1.0-605.0","0","0","16221","","null","","","null","67","","","","","","","","","","","","","","","",""
"","ISI","","html-keyboard-response","445","505438","0.0-1.0-606.0","0","0","16221","","1448","","","75","67","k","","","","","","","","","","","","","","",""
"","S2","","html-keyboard-response","446","505590","0.0-1.0-607.0","0","0","16221","","null","","","null","67","","NaN","","","","","","","","","","","","","",""
"","response","","html-keyboard-response","447","505659","0.0-1.0-608.0-0.0","0","0","16221","","68","","","75","67","","","2","67","training","adjacent","ED","5","4","N.jpg","L.jpg","1","0","0","",""
"","feedback","","html-keyboard-response","448","506661","0.0-1.0-609.0-0.0","0","0","16221","","null","","","null","67","","","","","","","","","","","","","","","",""
"","time_out","","html-keyboard-response","449","508663","0.0-1.0-611.0-0.0","0","0","16221","","null","","","null","67","","","","","","","","","","","","","","","",""
"","ITI","","html-keyboard-response","450","509665","0.0-1.0-612.0","0","0","16221","","null","","","null","67","","","","","","","","","","","","","","","NaN",""
"","S1","","html-keyboard-response","451","509817","0.0-1.0-614.0","0","0","16221","","null","","","null","68","","","","","","","","","","","","","","","",""
"","ISI","","html-keyboard-response","452","511819","0.0-1.0-615.0","0","0","16221","","null","","","null","68","NaN","","","","","","","","","","","","","","",""
"","S2","","html-keyboard-response","453","511972","0.0-1.0-616.0","0","0","16221","","null","","","null","68","","NaN","","","","","","","","","","","","","",""
"","response","","html-keyboard-response","454","512428","0.0-1.0-617.0-0.0","0","0","16221","","455","","","68","68","","","2","68","training","adjacent","DC","4","3","L.jpg","P.jpg","0","0","1","",""
"","feedback","","html-keyboard-response","455","513430","0.0-1.0-618.0-0.0","0","0","16221","","null","","","null","68","","","","","","","","","","","","","","","",""
"","ITI","","html-keyboard-response","456","514432","0.0-1.0-621.0","0","0","16221","","null","","","null","68","","","","","","","","","","","","","","","NaN",""
"","S1","","html-keyboard-response","457","514584","0.0-1.0-623.0","0","0","16221","","null","","","null","69","","","","","","","","","","","","","","","",""
"","ISI","","html-keyboard-response","458","516586","0.0-1.0-624.0","0","0","16221","","null","","","null","69","NaN","","","","","","","","","","","","","","",""
"","S2","","html-keyboard-response","459","516739","0.0-1.0-625.0","0","0","16221","","null","","","null","69","","NaN","","","","","","","","","","","","","",""
"","response","","html-keyboard-response","460","517703","0.0-1.0-626.0-0.0","0","0","16221","","963","","","75","69","","","2","69","training","adjacent","FE","6","5","Q.jpg","N.jpg","1","0","0","",""
"","feedback","","html-keyboard-response","461","518706","0.0-1.0-627.0-0.0","0","0","16221","","null","","","null","69","","","","","","","","","","","","","","","",""
"","time_out","","html-keyboard-response","462","520707","0.0-1.0-629.0-0.0","0","0","16221","","null","","","null","69","","","","","","","","","","","","","","","",""
"","ITI","","html-keyboard-response","463","521710","0.0-1.0-630.0","0","0","16221","","null","","","null","69","","","","","","","","","","","","","","","NaN",""
"","S1","","html-keyboard-response","464","521862","0.0-1.0-632.0","0","0","16221","","null","","","null","70","","","","","","","","","","","","","","","",""
"","ISI","","html-keyboard-response","465","523863","0.0-1.0-633.0","0","0","16221","","1800","","","68","70","d","","","","","","","","","","","","","","",""
"","S2","","html-keyboard-response","466","524015","0.0-1.0-634.0","0","0","16221","","null","","","null","70","","NaN","","","","","","","","","","","","","",""
"","response","","html-keyboard-response","467","524159","0.0-1.0-635.0-0.0","0","0","16221","","142","","","68","70","","","2","70","training","adjacent","AB","1","2","R.jpg","O.jpg","0","1","0","",""
"","feedback","","html-keyboard-response","468","525160","0.0-1.0-636.0-0.0","0","0","16221","","null","","","null","70","","","","","","","","","","","","","","","",""
"","time_out","","html-keyboard-response","469","527163","0.0-1.0-638.0-0.0","0","0","16221","","null","","","null","70","","","","","","","","","","","","","","","",""
"","ITI","","html-keyboard-response","470","528164","0.0-1.0-639.0","0","0","16221","","null","","","null","70","","","","","","","","","","","","","","","NaN",""
"","S1","","html-keyboard-response","471","528317","0.0-1.0-641.0","0","0","16221","","null","","","null","71","","","","","","","","","","","","","","","",""
"","ISI","","html-keyboard-response","472","530318","0.0-1.0-642.0","0","0","16221","","null","","","null","71","NaN","","","","","","","","","","","","","","",""
"","S2","","html-keyboard-response","473","530471","0.0-1.0-643.0","0","0","16221","","null","","","null","71","","NaN","","","","","","","","","","","","","",""
"","response","","html-keyboard-response","474","530896","0.0-1.0-644.0-0.0","0","0","16221","","423","","","75","71","","","2","71","training","adjacent","CD","3","4","P.jpg","L.jpg","1","1","1","",""
"","feedback","","html-keyboard-response","475","531899","0.0-1.0-645.0-0.0","0","0","16221","","null","","","null","71","","","","","","","","","","","","","","","",""
"","ITI","","html-keyboard-response","476","532901","0.0-1.0-648.0","0","0","16221","","null","","","null","71","","","","","","","","","","","","","","","NaN",""
"","S1","","html-keyboard-response","477","533053","0.0-1.0-650.0","0","0","16221","","null","","","null","72","","","","","","","","","","","","","","","",""
"","ISI","","html-keyboard-response","478","535054","0.0-1.0-651.0","0","0","16221","","null","","","null","72","NaN","","","","","","","","","","","","","","",""
"","S2","","html-keyboard-response","479","535206","0.0-1.0-652.0","0","0","16221","","null","","","null","72","","NaN","","","","","","","","","","","","","",""
"","response","","html-keyboard-response","480","535468","0.0-1.0-653.0-0.0","0","0","16221","","260","","","75","72","","","2","72","training","adjacent","FE","6","5","Q.jpg","N.jpg","1","0","0","",""
"","feedback","","html-keyboard-response","481","536471","0.0-1.0-654.0-0.0","0","0","16221","","null","","","null","72","","","","","","","","","","","","","","","",""
"","time_out","","html-keyboard-response","482","538474","0.0-1.0-656.0-0.0","0","0","16221","","null","","","null","72","","","","","","","","","","","","","","","",""
"","ITI","","html-keyboard-response","483","539477","0.0-1.0-657.0","0","0","16221","","null","","","null","72","","","","","","","","","","","","","","","NaN",""
"","S1","","html-keyboard-response","484","539629","0.0-1.0-659.0","0","0","16221","","null","","","null","73","","","","","","","","","","","","","","","",""
"","ISI","","html-keyboard-response","485","541632","0.0-1.0-660.0","0","0","16221","","null","","","null","73","NaN","","","","","","","","","","","","","","",""
"","S2","","html-keyboard-response","486","541784","0.0-1.0-661.0","0","0","16221","","null","","","null","73","","NaN","","","","","","","","","","","","","",""
"","response","","html-keyboard-response","487","541896","0.0-1.0-662.0-0.0","0","0","16221","","111","","","68","73","","","2","73","training","adjacent","EF","5","6","N.jpg","Q.jpg","0","1","0","",""
"","feedback","","html-keyboard-response","488","542899","0.0-1.0-663.0-0.0","0","0","16221","","null","","","null","73","","","","","","","","","","","","","","","",""
"","time_out","","html-keyboard-response","489","544900","0.0-1.0-665.0-0.0","0","0","16221","","null","","","null","73","","","","","","","","","","","","","","","",""
"","ITI","","html-keyboard-response","490","545902","0.0-1.0-666.0","0","0","16221","","null","","","null","73","","","","","","","","","","","","","","","NaN",""
"","S1","","html-keyboard-response","491","546054","0.0-1.0-668.0","0","0","16221","","null","","","null","74","","","","","","","","","","","","","","","",""
"","ISI","","html-keyboard-response","492","548055","0.0-1.0-669.0","0","0","16221","","null","","","null","74","NaN","","","","","","","","","","","","","","",""
"","S2","","html-keyboard-response","493","548208","0.0-1.0-670.0","0","0","16221","","null","","","null","74","","NaN","","","","","","","","","","","","","",""
"","response","","html-keyboard-response","494","548485","0.0-1.0-671.0-0.0","0","0","16221","","276","","","75","74","","","2","74","training","adjacent","DC","4","3","L.jpg","P.jpg","1","0","0","",""
"","feedback","","html-keyboard-response","495","549488","0.0-1.0-672.0-0.0","0","0","16221","","null","","","null","74","","","","","","","","","","","","","","","",""
"","time_out","","html-keyboard-response","496","551490","0.0-1.0-674.0-0.0","0","0","16221","","null","","","null","74","","","","","","","","","","","","","","","",""
"","ITI","","html-keyboard-response","497","552492","0.0-1.0-675.0","0","0","16221","","null","","","null","74","","","","","","","","","","","","","","","NaN",""
"","S1","","html-keyboard-response","498","552644","0.0-1.0-677.0","0","0","16221","","null","","","null","75","","","","","","","","","","","","","","","",""
"","ISI","","html-keyboard-response","499","554645","0.0-1.0-678.0","0","0","16221","","null","","","null","75","NaN","","","","","","","","","","","","","","",""
"","S2","","html-keyboard-response","500","554798","0.0-1.0-679.0","0","0","16221","","null","","","null","75","","NaN","","","","","","","","","","","","","",""
"","response","","html-keyboard-response","501","555127","0.0-1.0-680.0-0.0","0","0","16221","","328","","","68","75","","","2","75","training","adjacent","CB","3","2","P.jpg","O.jpg","0","0","1","",""
"","feedback","","html-keyboard-response","502","556129","0.0-1.0-681.0-0.0","0","0","16221","","null","","","null","75","","","","","","","","","","","","","","","",""
"","ITI","","html-keyboard-response","503","557132","0.0-1.0-684.0","0","0","16221","","null","","","null","75","","","","","","","","","","","","","","","NaN",""
"","S1","","html-keyboard-response","504","557283","0.0-1.0-686.0","0","0","16221","","null","","","null","76","","","","","","","","","","","","","","","",""
"","ISI","","html-keyboard-response","505","559286","0.0-1.0-687.0","0","0","16221","","null","","","null","76","NaN","","","","","","","","","","","","","","",""
"","S2","","html-keyboard-response","506","559438","0.0-1.0-688.0","0","0","16221","","null","","","null","76","","NaN","","","","","","","","","","","","","",""
"","response","","html-keyboard-response","507","559912","0.0-1.0-689.0-0.0","0","0","16221","","474","","","75","76","","","2","76","training","adjacent","ED","5","4","N.jpg","L.jpg","1","0","0","",""
"","feedback","","html-keyboard-response","508","560915","0.0-1.0-690.0-0.0","0","0","16221","","null","","","null","76","","","","","","","","","","","","","","","",""
"","time_out","","html-keyboard-response","509","562917","0.0-1.0-692.0-0.0","0","0","16221","","null","","","null","76","","","","","","","","","","","","","","","",""
"","ITI","","html-keyboard-response","510","563918","0.0-1.0-693.0","0","0","16221","","null","","","null","76","","","","","","","","","","","","","","","NaN",""
"","S1","","html-keyboard-response","511","564070","0.0-1.0-695.0","0","0","16221","","null","","","null","77","","","","","","","","","","","","","","","",""
"","ISI","","html-keyboard-response","512","566072","0.0-1.0-696.0","0","0","16221","","null","","","null","77","NaN","","","","","","","","","","","","","","",""
"","S2","","html-keyboard-response","513","566225","0.0-1.0-697.0","0","0","16221","","null","","","null","77","","NaN","","","","","","","","","","","","","",""
"","response","","html-keyboard-response","514","566362","0.0-1.0-698.0-0.0","0","0","16221","","135","","","68","77","","","2","77","training","adjacent","CB","3","2","P.jpg","O.jpg","0","0","1","",""
"","feedback","","html-keyboard-response","515","567364","0.0-1.0-699.0-0.0","0","0","16221","","null","","","null","77","","","","","","","","","","","","","","","",""
"","ITI","","html-keyboard-response","516","568366","0.0-1.0-702.0","0","0","16221","","null","","","null","77","","","","","","","","","","","","","","","NaN",""
"","S1","","html-keyboard-response","517","568518","0.0-1.0-704.0","0","0","16221","","null","","","null","78","","","","","","","","","","","","","","","",""
"","ISI","","html-keyboard-response","518","570520","0.0-1.0-705.0","0","0","16221","","null","","","null","78","NaN","","","","","","","","","","","","","","",""
"","S2","","html-keyboard-response","519","570673","0.0-1.0-706.0","0","0","16221","","null","","","null","78","","NaN","","","","","","","","","","","","","",""
"","response","","html-keyboard-response","520","571232","0.0-1.0-707.0-0.0","0","0","16221","","559","","","75","78","","","2","78","training","adjacent","BA","2","1","O.jpg","R.jpg","1","0","0","",""
"","feedback","","html-keyboard-response","521","572234","0.0-1.0-708.0-0.0","0","0","16221","","null","","","null","78","","","","","","","","","","","","","","","",""
"","time_out","","html-keyboard-response","522","574237","0.0-1.0-710.0-0.0","0","0","16221","","null","","","null","78","","","","","","","","","","","","","","","",""
"","ITI","","html-keyboard-response","523","575238","0.0-1.0-711.0","0","0","16221","","null","","","null","78","","","","","","","","","","","","","","","NaN",""
"","S1","","html-keyboard-response","524","575390","0.0-1.0-713.0","0","0","16221","","null","","","null","79","","","","","","","","","","","","","","","",""
"","ISI","","html-keyboard-response","525","577392","0.0-1.0-714.0","0","0","16221","","null","","","null","79","NaN","","","","","","","","","","","","","","",""
"","S2","","html-keyboard-response","526","577544","0.0-1.0-715.0","0","0","16221","","null","","","null","79","","NaN","","","","","","","","","","","","","",""
"","response","","html-keyboard-response","527","577789","0.0-1.0-716.0-0.0","0","0","16221","","243","","","75","79","","","2","79","training","adjacent","AB","1","2","R.jpg","O.jpg","1","1","1","",""
"","feedback","","html-keyboard-response","528","578791","0.0-1.0-717.0-0.0","0","0","16221","","null","","","null","79","","","","","","","","","","","","","","","",""
"","ITI","","html-keyboard-response","529","579793","0.0-1.0-720.0","0","0","16221","","null","","","null","79","","","","","","","","","","","","","","","NaN",""
"","S1","","html-keyboard-response","530","579946","0.0-1.0-722.0","0","0","16221","","null","","","null","80","","","","","","","","","","","","","","","",""
"","ISI","","html-keyboard-response","531","581947","0.0-1.0-723.0","0","0","16221","","null","","","null","80","NaN","","","","","","","","","","","","","","",""
"","S2","","html-keyboard-response","532","582099","0.0-1.0-724.0","0","0","16221","","null","","","null","80","","NaN","","","","","","","","","","","","","",""
"","response","","html-keyboard-response","533","582372","0.0-1.0-725.0-0.0","0","0","16221","","271","","","68","80","","","2","80","training","adjacent","GF","7","6","M.jpg","Q.jpg","0","0","1","",""
"","feedback","","html-keyboard-response","534","583374","0.0-1.0-726.0-0.0","0","0","16221","","null","","","null","80","","","","","","","","","","","","","","","",""
"","ITI","","html-keyboard-response","535","584376","0.0-1.0-729.0","0","0","16221","","null","","","null","80","","","","","","","","","","","","","","","NaN",""
"","S1","","html-keyboard-response","536","584527","0.0-1.0-731.0","0","0","16221","","null","","","null","81","","","","","","","","","","","","","","","",""
"","ISI","","html-keyboard-response","537","586529","0.0-1.0-732.0","0","0","16221","","null","","","null","81","NaN","","","","","","","","","","","","","","",""
"","S2","","html-keyboard-response","538","586682","0.0-1.0-733.0","0","0","16221","","null","","","null","81","","NaN","","","","","","","","","","","","","",""
"","response","","html-keyboard-response","539","586805","0.0-1.0-734.0-0.0","0","0","16221","","121","","","75","81","","","2","81","training","adjacent","DE","4","5","L.jpg","N.jpg","1","1","1","",""
"","feedback","","html-keyboard-response","540","587808","0.0-1.0-735.0-0.0","0","0","16221","","null","","","null","81","","","","","","","","","","","","","","","",""
"","ITI","","html-keyboard-response","541","588810","0.0-1.0-738.0","0","0","16221","","null","","","null","81","","","","","","","","","","","","","","","NaN",""
"","S1","","html-keyboard-response","542","588962","0.0-1.0-740.0","0","0","16221","","null","","","null","82","","","","","","","","","","","","","","","",""
"","ISI","","html-keyboard-response","543","590964","0.0-1.0-741.0","0","0","16221","","null","","","null","82","NaN","","","","","","","","","","","","","","",""
"","S2","","html-keyboard-response","544","591116","0.0-1.0-742.0","0","0","16221","","null","","","null","82","","NaN","","","","","","","","","","","","","",""
"","response","","html-keyboard-response","545","591376","0.0-1.0-743.0-0.0","0","0","16221","","259","","","68","82","","","2","82","training","adjacent","CD","3","4","P.jpg","L.jpg","0","1","0","",""
"","feedback","","html-keyboard-response","546","592379","0.0-1.0-744.0-0.0","0","0","16221","","null","","","null","82","","","","","","","","","","","","","","","",""
"","time_out","","html-keyboard-response","547","594382","0.0-1.0-746.0-0.0","0","0","16221","","null","","","null","82","","","","","","","","","","","","","","","",""
"","ITI","","html-keyboard-response","548","595383","0.0-1.0-747.0","0","0","16221","","null","","","null","82","","","","","","","","","","","","","","","NaN",""
"","S1","","html-keyboard-response","549","595536","0.0-1.0-749.0","0","0","16221","","null","","","null","83","","","","","","","","","","","","","","","",""
"","ISI","","html-keyboard-response","550","597537","0.0-1.0-750.0","0","0","16221","","null","","","null","83","NaN","","","","","","","","","","","","","","",""
"","S2","","html-keyboard-response","551","597689","0.0-1.0-751.0","0","0","16221","","null","","","null","83","","NaN","","","","","","","","","","","","","",""
"","response","","html-keyboard-response","552","597837","0.0-1.0-752.0-0.0","0","0","16221","","146","","","75","83","","","2","83","training","adjacent","ED","5","4","N.jpg","L.jpg","1","0","0","",""
"","feedback","","html-keyboard-response","553","598839","0.0-1.0-753.0-0.0","0","0","16221","","null","","","null","83","","","","","","","","","","","","","","","",""
"","time_out","","html-keyboard-response","554","600841","0.0-1.0-755.0-0.0","0","0","16221","","null","","","null","83","","","","","","","","","","","","","","","",""
"","ITI","","html-keyboard-response","555","601844","0.0-1.0-756.0","0","0","16221","","null","","","null","83","","","","","","","","","","","","","","","NaN",""
"","S1","","html-keyboard-response","556","601996","0.0-1.0-758.0","0","0","16221","","null","","","null","84","","","","","","","","","","","","","","","",""
"","ISI","","html-keyboard-response","557","603999","0.0-1.0-759.0","0","0","16221","","null","","","null","84","NaN","","","","","","","","","","","","","","",""
"","S2","","html-keyboard-response","558","604150","0.0-1.0-760.0","0","0","16221","","null","","","null","84","","NaN","","","","","","","","","","","","","",""
"","response","","html-keyboard-response","559","604405","0.0-1.0-761.0-0.0","0","0","16221","","253","","","68","84","","","2","84","training","adjacent","AB","1","2","R.jpg","O.jpg","0","1","0","",""
"","feedback","","html-keyboard-response","560","605407","0.0-1.0-762.0-0.0","0","0","16221","","null","","","null","84","","","","","","","","","","","","","","","",""
"","time_out","","html-keyboard-response","561","607409","0.0-1.0-764.0-0.0","0","0","16221","","null","","","null","84","","","","","","","","","","","","","","","",""
"","ITI","","html-keyboard-response","562","608411","0.0-1.0-765.0","0","0","16221","","null","","","null","84","","","","","","","","","","","","","","","NaN",""
"","S1","","html-keyboard-response","563","608564","0.0-1.0-767.0","0","0","16221","","null","","","null","85","","","","","","","","","","","","","","","",""
"","ISI","","html-keyboard-response","564","610565","0.0-1.0-768.0","0","0","16221","","null","","","null","85","NaN","","","","","","","","","","","","","","",""
"","S2","","html-keyboard-response","565","610717","0.0-1.0-769.0","0","0","16221","","null","","","null","85","","NaN","","","","","","","","","","","","","",""
"","response","","html-keyboard-response","566","611248","0.0-1.0-770.0-0.0","0","0","16221","","530","","","75","85","","","2","85","training","adjacent","BA","2","1","O.jpg","R.jpg","1","0","0","",""
"","feedback","","html-keyboard-response","567","612251","0.0-1.0-771.0-0.0","0","0","16221","","null","","","null","85","","","","","","","","","","","","","","","",""
"","time_out","","html-keyboard-response","568","614253","0.0-1.0-773.0-0.0","0","0","16221","","null","","","null","85","","","","","","","","","","","","","","","",""
"","ITI","","html-keyboard-response","569","615256","0.0-1.0-774.0","0","0","16221","","null","","","null","85","","","","","","","","","","","","","","","NaN",""
"","S1","","html-keyboard-response","570","615408","0.0-1.0-776.0","0","0","16221","","null","","","null","86","","","","","","","","","","","","","","","",""
"","ISI","","html-keyboard-response","571","617411","0.0-1.0-777.0","0","0","16221","","null","","","null","86","NaN","","","","","","","","","","","","","","",""
"","S2","","html-keyboard-response","572","617563","0.0-1.0-778.0","0","0","16221","","null","","","null","86","","NaN","","","","","","","","","","","","","",""
"","response","","html-keyboard-response","573","617857","0.0-1.0-779.0-0.0","0","0","16221","","293","","","68","86","","","2","86","training","adjacent","BA","2","1","O.jpg","R.jpg","0","0","1","",""
"","feedback","","html-keyboard-response","574","618860","0.0-1.0-780.0-0.0","0","0","16221","","null","","","null","86","","","","","","","","","","","","","","","",""
"","ITI","","html-keyboard-response","575","619862","0.0-1.0-783.0","0","0","16221","","null","","","null","86","","","","","","","","","","","","","","","NaN",""
"","S1","","html-keyboard-response","576","620015","0.0-1.0-785.0","0","0","16221","","null","","","null","87","","","","","","","","","","","","","","","",""
"","ISI","","html-keyboard-response","577","622018","0.0-1.0-786.0","0","0","16221","","null","","","null","87","NaN","","","","","","","","","","","","","","",""
"","S2","","html-keyboard-response","578","622170","0.0-1.0-787.0","0","0","16221","","null","","","null","87","","NaN","","","","","","","","","","","","","",""
"","response","","html-keyboard-response","579","622301","0.0-1.0-788.0-0.0","0","0","16221","","130","","","68","87","","","2","87","training","adjacent","FE","6","5","Q.jpg","N.jpg","0","0","1","",""
"","feedback","","html-keyboard-response","580","623304","0.0-1.0-789.0-0.0","0","0","16221","","null","","","null","87","","","","","","","","","","","","","","","",""
