"success","ttype","start_time","trial_type","trial_index","time_elapsed","internal_node_id","warning","missed_checkup","PID","view_history","rt","responses","repeat_instructions","key_press","index","keypress_isi","keypress_S2","block","trial_num","phase","group_type","pair_type","S1_stim","S2_stim","S1_img","S2_img","S1_chosen","S1_higher","accuracy","keypress_iti","total_bonus_tally"
"true","full_screen","d04062023hr1950","fullscreen","0","7442","0.0-0.0","0","0","39536","","","","","","","","","","","","","","","","","","","","","",""
"","instructions","","instructions","1","33518","0.0-1.0-0.0-0.0","0","0","39536","[{""page_index"":0,""viewing_time"":3889},{""page_index"":1,""viewing_time"":11733},{""page_index"":2,""viewing_time"":8965},{""page_index"":3,""viewing_time"":1482}]","26069","","","","","","","","","","","","","","","","","","","",""
"","comprehension_check","","survey-multi-choice","2","52862","0.0-1.0-0.0-1.0","0","0","39536","","19338","{""Q0"":""True"",""Q1"":""D"",""Q2"":""Only when the screen 'MAKE A CHOICE' is shown"",""Q3"":""Red cross"",""Q4"":""either D or K""}","1","","","","","","","","","","","","","","","","","",""
"","missed_instruction_checkup","","html-keyboard-response","3","54334","0.0-1.0-0.0-2.0-0.0","0","1","39536","","1466","","","32","","","","","","","","","","","","","","","","",""
"","instructions","","instructions","4","71589","0.0-1.0-0.1-0.1","0","0","39536","[{""page_index"":0,""viewing_time"":6140},{""page_index"":1,""viewing_time"":9096},{""page_index"":2,""viewing_time"":1049},{""page_index"":3,""viewing_time"":968}]","17254","","","","","","","","","","","","","","","","","","","",""
"","comprehension_check","","survey-multi-choice","5","83409","0.0-1.0-0.1-1.1","0","0","39536","","11815","{""Q0"":""True"",""Q1"":""D"",""Q2"":""Once the second image appears and while the screen 'MAKE A CHOICE' is shown"",""Q3"":""Red cross"",""Q4"":""either D or K""}","1","","","","","","","","","","","","","","","","","",""
"","missed_instruction_checkup","","html-keyboard-response","6","84584","0.0-1.0-0.1-2.1-0.1","0","1","39536","","1173","","","32","","","","","","","","","","","","","","","","",""
"","instructions","","instructions","7","101476","0.0-1.0-0.2-0.2","0","0","39536","[{""page_index"":0,""viewing_time"":3279},{""page_index"":1,""viewing_time"":12105},{""page_index"":2,""viewing_time"":888},{""page_index"":3,""viewing_time"":618}]","16890","","","","","","","","","","","","","","","","","","","",""
"","comprehension_check","","survey-multi-choice","8","141504","0.0-1.0-0.2-1.2","0","0","39536","","40023","{""Q0"":""True"",""Q1"":""D"",""Q2"":""Once the second image appears and while the screen 'MAKE A CHOICE' is shown"",""Q3"":""Green mark"",""Q4"":""either D or K""}","0","","","","","","","","","","","","","","","","","",""
"","start_exp","","html-keyboard-response","9","146113","0.0-1.0-1.0","0","0","39536","","4603","","","32","","","","","","","","","","","","","","","","",""
"","S1","","html-keyboard-response","10","146277","0.0-1.0-2.0","0","0","39536","","null","","","null","0","","","","","","","","","","","","","","","",""
"","ISI","","html-keyboard-response","11","148289","0.0-1.0-3.0","0","0","39536","","null","","","null","0","NaN","","","","","","","","","","","","","","",""
"","S2","","html-keyboard-response","12","148448","0.0-1.0-4.0","0","0","39536","","null","","","null","0","","NaN","","","","","","","","","","","","","",""
"","response","","html-keyboard-response","13","150293","0.0-1.0-5.0-0.0","0","0","39536","","1841","","","68","0","","","1","0","training","adjacent","ED","5","4","O.jpg","P.jpg","1","0","0","",""
"","feedback","","html-keyboard-response","14","151299","0.0-1.0-6.0-0.0","0","0","39536","","null","","","null","0","","","","","","","","","","","","","","","",""
"","time_out","","html-keyboard-response","15","153313","0.0-1.0-8.0-0.0","0","0","39536","","null","","","null","0","","","","","","","","","","","","","","","",""
"","ITI","","html-keyboard-response","16","154332","0.0-1.0-9.0","0","0","39536","","null","","","null","0","","","","","","","","","","","","","","","NaN",""
"","S1","","html-keyboard-response","17","154489","0.0-1.0-11.0","0","0","39536","","null","","","null","1","","","","","","","","","","","","","","","",""
"","ISI","","html-keyboard-response","18","156504","0.0-1.0-12.0","0","0","39536","","null","","","null","1","NaN","","","","","","","","","","","","","","",""
"","S2","","html-keyboard-response","19","156663","0.0-1.0-13.0","0","0","39536","","null","","","null","1","","NaN","","","","","","","","","","","","","",""
"","response","","html-keyboard-response","20","157302","0.0-1.0-14.0-0.0","0","0","39536","","633","","","68","1","","","1","1","training","adjacent","EF","5","6","O.jpg","L.jpg","1","1","1","",""
"","feedback","","html-keyboard-response","21","158313","0.0-1.0-15.0-0.0","0","0","39536","","null","","","null","1","","","","","","","","","","","","","","","",""
"","ITI","","html-keyboard-response","22","159318","0.0-1.0-18.0","0","0","39536","","null","","","null","1","","","","","","","","","","","","","","","NaN",""
"","S1","","html-keyboard-response","23","159475","0.0-1.0-20.0","0","0","39536","","null","","","null","2","","","","","","","","","","","","","","","",""
"","ISI","","html-keyboard-response","24","161493","0.0-1.0-21.0","0","0","39536","","null","","","null","2","NaN","","","","","","","","","","","","","","",""
"","S2","","html-keyboard-response","25","161649","0.0-1.0-22.0","0","0","39536","","null","","","null","2","","NaN","","","","","","","","","","","","","",""
"","response","","html-keyboard-response","26","162052","0.0-1.0-23.0-0.0","0","0","39536","","400","","","68","2","","","1","2","training","adjacent","ED","5","4","O.jpg","P.jpg","1","0","0","",""
"","feedback","","html-keyboard-response","27","163066","0.0-1.0-24.0-0.0","0","0","39536","","null","","","null","2","","","","","","","","","","","","","","","",""
"","time_out","","html-keyboard-response","28","165085","0.0-1.0-26.0-0.0","0","0","39536","","null","","","null","2","","","","","","","","","","","","","","","",""
"","ITI","","html-keyboard-response","29","166092","0.0-1.0-27.0","0","0","39536","","null","","","null","2","","","","","","","","","","","","","","","NaN",""
"","S1","","html-keyboard-response","30","166249","0.0-1.0-29.0","0","0","39536","","null","","","null","3","","","","","","","","","","","","","","","",""
"","ISI","","html-keyboard-response","31","168263","0.0-1.0-30.0","0","0","39536","","null","","","null","3","NaN","","","","","","","","","","","","","","",""
"","S2","","html-keyboard-response","32","168420","0.0-1.0-31.0","0","0","39536","","null","","","null","3","","NaN","","","","","","","","","","","","","",""
"","response","","html-keyboard-response","33","168812","0.0-1.0-32.0-0.0","0","0","39536","","389","","","75","3","","","1","3","training","adjacent","CB","3","2","M.jpg","R.jpg","0","0","1","",""
"","feedback","","html-keyboard-response","34","169819","0.0-1.0-33.0-0.0","0","0","39536","","null","","","null","3","","","","","","","","","","","","","","","",""
"","ITI","","html-keyboard-response","35","170830","0.0-1.0-36.0","0","0","39536","","null","","","null","3","","","","","","","","","","","","","","","NaN",""
"","S1","","html-keyboard-response","36","170987","0.0-1.0-38.0","0","0","39536","","null","","","null","4","","","","","","","","","","","","","","","",""
"","ISI","","html-keyboard-response","37","173001","0.0-1.0-39.0","0","0","39536","","null","","","null","4","NaN","","","","","","","","","","","","","","",""
"","S2","","html-keyboard-response","38","173158","0.0-1.0-40.0","0","0","39536","","null","","","null","4","","NaN","","","","","","","","","","","","","",""
"","response","","html-keyboard-response","39","173464","0.0-1.0-41.0-0.0","0","0","39536","","302","","","75","4","","","1","4","training","adjacent","FG","6","7","L.jpg","Q.jpg","0","1","0","",""
"","feedback","","html-keyboard-response","40","174478","0.0-1.0-42.0-0.0","0","0","39536","","null","","","null","4","","","","","","","","","","","","","","","",""
"","time_out","","html-keyboard-response","41","176497","0.0-1.0-44.0-0.0","0","0","39536","","null","","","null","4","","","","","","","","","","","","","","","",""
"","ITI","","html-keyboard-response","42","177504","0.0-1.0-45.0","0","0","39536","","null","","","null","4","","","","","","","","","","","","","","","NaN",""
"","S1","","html-keyboard-response","43","177661","0.0-1.0-47.0","0","0","39536","","null","","","null","5","","","","","","","","","","","","","","","",""
"","ISI","","html-keyboard-response","44","179674","0.0-1.0-48.0","0","0","39536","","null","","","null","5","NaN","","","","","","","","","","","","","","",""
"","S2","","html-keyboard-response","45","179830","0.0-1.0-49.0","0","0","39536","","null","","","null","5","","NaN","","","","","","","","","","","","","",""
"","response","","html-keyboard-response","46","180299","0.0-1.0-50.0-0.0","0","0","39536","","465","","","68","5","","","1","5","training","adjacent","AB","1","2","N.jpg","R.jpg","1","1","1","",""
"","feedback","","html-keyboard-response","47","181313","0.0-1.0-51.0-0.0","0","0","39536","","null","","","null","5","","","","","","","","","","","","","","","",""
"","ITI","","html-keyboard-response","48","182322","0.0-1.0-54.0","0","0","39536","","null","","","null","5","","","","","","","","","","","","","","","NaN",""
"","S1","","html-keyboard-response","49","182479","0.0-1.0-56.0","0","0","39536","","null","","","null","6","","","","","","","","","","","","","","","",""
"","ISI","","html-keyboard-response","50","184493","0.0-1.0-57.0","0","0","39536","","null","","","null","6","NaN","","","","","","","","","","","","","","",""
"","S2","","html-keyboard-response","51","184649","0.0-1.0-58.0","0","0","39536","","null","","","null","6","","NaN","","","","","","","","","","","","","",""
"","response","","html-keyboard-response","52","185220","0.0-1.0-59.0-0.0","0","0","39536","","569","","","68","6","","","1","6","training","adjacent","ED","5","4","O.jpg","P.jpg","1","0","0","",""
"","feedback","","html-keyboard-response","53","186235","0.0-1.0-60.0-0.0","0","0","39536","","null","","","null","6","","","","","","","","","","","","","","","",""
"","time_out","","html-keyboard-response","54","188251","0.0-1.0-62.0-0.0","0","0","39536","","null","","","null","6","","","","","","","","","","","","","","","",""
"","ITI","","html-keyboard-response","55","189257","0.0-1.0-63.0","0","0","39536","","null","","","null","6","","","","","","","","","","","","","","","NaN",""
"","S1","","html-keyboard-response","56","189413","0.0-1.0-65.0","0","0","39536","","null","","","null","7","","","","","","","","","","","","","","","",""
"","ISI","","html-keyboard-response","57","191431","0.0-1.0-66.0","0","0","39536","","null","","","null","7","NaN","","","","","","","","","","","","","","",""
"","S2","","html-keyboard-response","58","191588","0.0-1.0-67.0","0","0","39536","","null","","","null","7","","NaN","","","","","","","","","","","","","",""
"","response","","html-keyboard-response","59","191858","0.0-1.0-68.0-0.0","0","0","39536","","266","","","75","7","","","1","7","training","adjacent","EF","5","6","O.jpg","L.jpg","0","1","0","",""
"","feedback","","html-keyboard-response","60","192865","0.0-1.0-69.0-0.0","0","0","39536","","null","","","null","7","","","","","","","","","","","","","","","",""
"","time_out","","html-keyboard-response","61","194880","0.0-1.0-71.0-0.0","0","0","39536","","null","","","null","7","","","","","","","","","","","","","","","",""
"","ITI","","html-keyboard-response","62","195888","0.0-1.0-72.0","0","0","39536","","null","","","null","7","","","","","","","","","","","","","","","NaN",""
"","S1","","html-keyboard-response","63","196046","0.0-1.0-74.0","0","0","39536","","null","","","null","8","","","","","","","","","","","","","","","",""
"","ISI","","html-keyboard-response","64","198049","0.0-1.0-75.0","0","0","39536","","null","","","null","8","NaN","","","","","","","","","","","","","","",""
"","S2","","html-keyboard-response","65","198207","0.0-1.0-76.0","0","0","39536","","null","","","null","8","","NaN","","","","","","","","","","","","","",""
"","response","","html-keyboard-response","66","198273","0.0-1.0-77.0-0.0","0","0","39536","","61","","","68","8","","","1","8","training","adjacent","CB","3","2","M.jpg","R.jpg","1","0","0","",""
"","feedback","","html-keyboard-response","67","199291","0.0-1.0-78.0-0.0","0","0","39536","","null","","","null","8","","","","","","","","","","","","","","","",""
"","time_out","","html-keyboard-response","68","201305","0.0-1.0-80.0-0.0","0","0","39536","","null","","","null","8","","","","","","","","","","","","","","","",""
"","ITI","","html-keyboard-response","69","202310","0.0-1.0-81.0","0","0","39536","","null","","","null","8","","","","","","","","","","","","","","","NaN",""
"","S1","","html-keyboard-response","70","202467","0.0-1.0-83.0","0","0","39536","","null","","","null","9","","","","","","","","","","","","","","","",""
"","ISI","","html-keyboard-response","71","204483","0.0-1.0-84.0","0","0","39536","","null","","","null","9","NaN","","","","","","","","","","","","","","",""
"","S2","","html-keyboard-response","72","204641","0.0-1.0-85.0","0","0","39536","","null","","","null","9","","NaN","","","","","","","","","","","","","",""
"","response","","html-keyboard-response","73","205306","0.0-1.0-86.0-0.0","0","0","39536","","662","","","68","9","","","1","9","training","adjacent","GF","7","6","Q.jpg","L.jpg","1","0","0","",""
"","feedback","","html-keyboard-response","74","206310","0.0-1.0-87.0-0.0","0","0","39536","","null","","","null","9","","","","","","","","","","","","","","","",""
"","time_out","","html-keyboard-response","75","208324","0.0-1.0-89.0-0.0","0","0","39536","","null","","","null","9","","","","","","","","","","","","","","","",""
"","ITI","","html-keyboard-response","76","209329","0.0-1.0-90.0","0","0","39536","","null","","","null","9","","","","","","","","","","","","","","","NaN",""
"","S1","","html-keyboard-response","77","209489","0.0-1.0-92.0","0","0","39536","","null","","","null","10","","","","","","","","","","","","","","","",""
"","ISI","","html-keyboard-response","78","211506","0.0-1.0-93.0","0","0","39536","","null","","","null","10","NaN","","","","","","","","","","","","","","",""
"","S2","","html-keyboard-response","79","211663","0.0-1.0-94.0","0","0","39536","","null","","","null","10","","NaN","","","","","","","","","","","","","",""
"","response","","html-keyboard-response","80","211947","0.0-1.0-95.0-0.0","0","0","39536","","281","","","68","10","","","1","10","training","adjacent","FE","6","5","L.jpg","O.jpg","1","0","0","",""
"","feedback","","html-keyboard-response","81","212950","0.0-1.0-96.0-0.0","0","0","39536","","null","","","null","10","","","","","","","","","","","","","","","",""
"","time_out","","html-keyboard-response","82","214965","0.0-1.0-98.0-0.0","0","0","39536","","null","","","null","10","","","","","","","","","","","","","","","",""
"","ITI","","html-keyboard-response","83","215970","0.0-1.0-99.0","0","0","39536","","null","","","null","10","","","","","","","","","","","","","","","NaN",""
"","S1","","html-keyboard-response","84","216128","0.0-1.0-101.0","0","0","39536","","null","","","null","11","","","","","","","","","","","","","","","",""
"","ISI","","html-keyboard-response","85","218132","0.0-1.0-102.0","0","0","39536","","null","","","null","11","NaN","","","","","","","","","","","","","","",""
"","S2","","html-keyboard-response","86","218288","0.0-1.0-103.0","0","0","39536","","null","","","null","11","","NaN","","","","","","","","","","","","","",""
"","response","","html-keyboard-response","87","218819","0.0-1.0-104.0-0.0","0","0","39536","","527","","","68","11","","","1","11","training","adjacent","ED","5","4","O.jpg","P.jpg","1","0","0","",""
"","feedback","","html-keyboard-response","88","219830","0.0-1.0-105.0-0.0","0","0","39536","","null","","","null","11","","","","","","","","","","","","","","","",""
"","time_out","","html-keyboard-response","89","221844","0.0-1.0-107.0-0.0","0","0","39536","","null","","","null","11","","","","","","","","","","","","","","","",""
"","ITI","","html-keyboard-response","90","222854","0.0-1.0-108.0","0","0","39536","","null","","","null","11","","","","","","","","","","","","","","","NaN",""
"","S1","","html-keyboard-response","91","223010","0.0-1.0-110.0","0","0","39536","","null","","","null","12","","","","","","","","","","","","","","","",""
"","ISI","","html-keyboard-response","92","225026","0.0-1.0-111.0","0","0","39536","","null","","","null","12","NaN","","","","","","","","","","","","","","",""
"","S2","","html-keyboard-response","93","225183","0.0-1.0-112.0","0","0","39536","","null","","","null","12","","NaN","","","","","","","","","","","","","",""
"","response","","html-keyboard-response","94","225284","0.0-1.0-113.0-0.0","0","0","39536","","97","","","75","12","","","1","12","training","adjacent","FE","6","5","L.jpg","O.jpg","0","0","1","",""
"","feedback","","html-keyboard-response","95","226303","0.0-1.0-114.0-0.0","0","0","39536","","null","","","null","12","","","","","","","","","","","","","","","",""
"","ITI","","html-keyboard-response","96","227311","0.0-1.0-117.0","0","0","39536","","null","","","null","12","","","","","","","","","","","","","","","NaN",""
"","S1","","html-keyboard-response","97","227469","0.0-1.0-119.0","0","0","39536","","null","","","null","13","","","","","","","","","","","","","","","",""
"","ISI","","html-keyboard-response","98","229482","0.0-1.0-120.0","0","0","39536","","null","","","null","13","NaN","","","","","","","","","","","","","","",""
"","S2","","html-keyboard-response","99","229638","0.0-1.0-121.0","0","0","39536","","null","","","null","13","","NaN","","","","","","","","","","","","","",""
"","response","","html-keyboard-response","100","229697","0.0-1.0-122.0-0.0","0","0","39536","","54","","","68","13","","","1","13","training","adjacent","DE","4","5","P.jpg","O.jpg","1","1","1","",""
"","feedback","","html-keyboard-response","101","230707","0.0-1.0-123.0-0.0","0","0","39536","","null","","","null","13","","","","","","","","","","","","","","","",""
"","ITI","","html-keyboard-response","102","231718","0.0-1.0-126.0","0","0","39536","","null","","","null","13","","","","","","","","","","","","","","","NaN",""
"","S1","","html-keyboard-response","103","231873","0.0-1.0-128.0","0","0","39536","","null","","","null","14","","","","","","","","","","","","","","","",""
"","ISI","","html-keyboard-response","104","233882","0.0-1.0-129.0","0","0","39536","","null","","","null","14","NaN","","","","","","","","","","","","","","",""
"","S2","","html-keyboard-response","105","234037","0.0-1.0-130.0","0","0","39536","","null","","","null","14","","NaN","","","","","","","","","","","","","",""
"","response","","html-keyboard-response","106","234120","0.0-1.0-131.0-0.0","0","0","39536","","80","","","75","14","","","1","14","training","adjacent","BA","2","1","R.jpg","N.jpg","0","0","1","",""
"","feedback","","html-keyboard-response","107","235136","0.0-1.0-132.0-0.0","0","0","39536","","null","","","null","14","","","","","","","","","","","","","","","",""
"","ITI","","html-keyboard-response","108","236154","0.0-1.0-135.0","0","0","39536","","null","","","null","14","","","","","","","","","","","","","","","NaN",""
"","S1","","html-keyboard-response","109","236319","0.0-1.0-137.0","0","0","39536","","null","","","null","15","","","","","","","","","","","","","","","",""
"","ISI","","html-keyboard-response","110","238326","0.0-1.0-138.0","0","0","39536","","null","","","null","15","NaN","","","","","","","","","","","","","","",""
"","S2","","html-keyboard-response","111","238492","0.0-1.0-139.0","0","0","39536","","null","","","null","15","","NaN","","","","","","","","","","","","","",""
"","response","","html-keyboard-response","112","238538","0.0-1.0-140.0-0.0","0","0","39536","","43","","","68","15","","","1","15","training","adjacent","DC","4","3","P.jpg","M.jpg","1","0","0","",""
"","feedback","","html-keyboard-response","113","239551","0.0-1.0-141.0-0.0","0","0","39536","","null","","","null","15","","","","","","","","","","","","","","","",""
"","time_out","","html-keyboard-response","114","241555","0.0-1.0-143.0-0.0","0","0","39536","","null","","","null","15","","","","","","","","","","","","","","","",""
"","ITI","","html-keyboard-response","115","242571","0.0-1.0-144.0","0","0","39536","","813","","","75","15","","","","","","","","","","","","","","","k",""
"","S1","","html-keyboard-response","116","242738","0.0-1.0-146.0","0","0","39536","","null","","","null","16","","","","","","","","","","","","","","","",""
"","ISI","","html-keyboard-response","117","244752","0.0-1.0-147.0","0","0","39536","","null","","","null","16","NaN","","","","","","","","","","","","","","",""
"","S2","","html-keyboard-response","118","244911","0.0-1.0-148.0","0","0","39536","","null","","","null","16","","NaN","","","","","","","","","","","","","",""
"","response","","html-keyboard-response","119","245036","0.0-1.0-149.0-0.0","0","0","39536","","122","","","75","16","","","1","16","training","adjacent","CB","3","2","M.jpg","R.jpg","0","0","1","",""
"","feedback","","html-keyboard-response","120","246047","0.0-1.0-150.0-0.0","0","0","39536","","null","","","null","16","","","","","","","","","","","","","","","",""
"","ITI","","html-keyboard-response","121","247051","0.0-1.0-153.0","0","0","39536","","null","","","null","16","","","","","","","","","","","","","","","NaN",""
"","S1","","html-keyboard-response","122","247206","0.0-1.0-155.0","0","0","39536","","null","","","null","17","","","","","","","","","","","","","","","",""
"","ISI","","html-keyboard-response","123","249210","0.0-1.0-156.0","0","0","39536","","null","","","null","17","NaN","","","","","","","","","","","","","","",""
"","S2","","html-keyboard-response","124","249374","0.0-1.0-157.0","0","0","39536","","null","","","null","17","","NaN","","","","","","","","","","","","","",""
"","response","","html-keyboard-response","125","249503","0.0-1.0-158.0-0.0","0","0","39536","","126","","","75","17","","","1","17","training","adjacent","DC","4","3","P.jpg","M.jpg","0","0","1","",""
"","feedback","","html-keyboard-response","126","250522","0.0-1.0-159.0-0.0","0","0","39536","","null","","","null","17","","","","","","","","","","","","","","","",""
"","ITI","","html-keyboard-response","127","251527","0.0-1.0-162.0","0","0","39536","","null","","","null","17","","","","","","","","","","","","","","","NaN",""
"","S1","","html-keyboard-response","128","251684","0.0-1.0-164.0","0","0","39536","","null","","","null","18","","","","","","","","","","","","","","","",""
"","ISI","","html-keyboard-response","129","253693","0.0-1.0-165.0","0","0","39536","","null","","","null","18","NaN","","","","","","","","","","","","","","",""
"","S2","","html-keyboard-response","130","253850","0.0-1.0-166.0","0","0","39536","","null","","","null","18","","NaN","","","","","","","","","","","","","",""
"","response","","html-keyboard-response","131","253911","0.0-1.0-167.0-0.0","0","0","39536","","58","","","68","18","","","1","18","training","adjacent","FG","6","7","L.jpg","Q.jpg","1","1","1","",""
"","feedback","","html-keyboard-response","132","254929","0.0-1.0-168.0-0.0","0","0","39536","","null","","","null","18","","","","","","","","","","","","","","","",""
"","ITI","","html-keyboard-response","133","255935","0.0-1.0-171.0","0","0","39536","","null","","","null","18","","","","","","","","","","","","","","","NaN",""
"","S1","","html-keyboard-response","134","256091","0.0-1.0-173.0","0","0","39536","","null","","","null","19","","","","","","","","","","","","","","","",""
"","ISI","","html-keyboard-response","135","258098","0.0-1.0-174.0","0","0","39536","","null","","","null","19","NaN","","","","","","","","","","","","","","",""
"","S2","","html-keyboard-response","136","258265","0.0-1.0-175.0","0","0","39536","","null","","","null","19","","NaN","","","","","","","","","","","","","",""
"","response","","html-keyboard-response","137","258434","0.0-1.0-176.0-0.0","0","0","39536","","165","","","68","19","","","1","19","training","adjacent","FE","6","5","L.jpg","O.jpg","1","0","0","",""
"","feedback","","html-keyboard-response","138","259438","0.0-1.0-177.0-0.0","0","0","39536","","null","","","null","19","","","","","","","","","","","","","","","",""
"","time_out","","html-keyboard-response","139","261443","0.0-1.0-179.0-0.0","0","0","39536","","null","","","null","19","","","","","","","","","","","","","","","",""
"","ITI","","html-keyboard-response","140","262460","0.0-1.0-180.0","0","0","39536","","null","","","null","19","","","","","","","","","","","","","","","NaN",""
"","S1","","html-keyboard-response","141","262621","0.0-1.0-182.0","0","0","39536","","null","","","null","20","","","","","","","","","","","","","","","",""
"","ISI","","html-keyboard-response","142","264637","0.0-1.0-183.0","0","0","39536","","351","","","75","20","k","","","","","","","","","","","","","","",""
"","S2","","html-keyboard-response","143","264792","0.0-1.0-184.0","0","0","39536","","null","","","null","20","","NaN","","","","","","","","","","","","","",""
"","response","","html-keyboard-response","144","264877","0.0-1.0-185.0-0.0","0","0","39536","","81","","","75","20","","","1","20","training","adjacent","BC","2","3","R.jpg","M.jpg","0","1","0","",""
"","feedback","","html-keyboard-response","145","265886","0.0-1.0-186.0-0.0","0","0","39536","","null","","","null","20","","","","","","","","","","","","","","","",""
"","time_out","","html-keyboard-response","146","267898","0.0-1.0-188.0-0.0","0","0","39536","","null","","","null","20","","","","","","","","","","","","","","","",""
"","ITI","","html-keyboard-response","147","268904","0.0-1.0-189.0","0","0","39536","","null","","","null","20","","","","","","","","","","","","","","","NaN",""
"","S1","","html-keyboard-response","148","269062","0.0-1.0-191.0","0","0","39536","","null","","","null","21","","","","","","","","","","","","","","","",""
"","ISI","","html-keyboard-response","149","271077","0.0-1.0-192.0","0","0","39536","","null","","","null","21","NaN","","","","","","","","","","","","","","",""
"","S2","","html-keyboard-response","150","271234","0.0-1.0-193.0","0","0","39536","","null","","","null","21","","NaN","","","","","","","","","","","","","",""
"","response","","html-keyboard-response","151","271623","0.0-1.0-194.0-0.0","0","0","39536","","384","","","68","21","","","1","21","training","adjacent","BA","2","1","R.jpg","N.jpg","1","0","0","",""
"","feedback","","html-keyboard-response","152","272636","0.0-1.0-195.0-0.0","0","0","39536","","null","","","null","21","","","","","","","","","","","","","","","",""
"","time_out","","html-keyboard-response","153","274646","0.0-1.0-197.0-0.0","0","0","39536","","null","","","null","21","","","","","","","","","","","","","","","",""
"","ITI","","html-keyboard-response","154","275650","0.0-1.0-198.0","0","0","39536","","null","","","null","21","","","","","","","","","","","","","","","NaN",""
"","S1","","html-keyboard-response","155","275817","0.0-1.0-200.0","0","0","39536","","null","","","null","22","","","","","","","","","","","","","","","",""
"","ISI","","html-keyboard-response","156","277823","0.0-1.0-201.0","0","0","39536","","null","","","null","22","NaN","","","","","","","","","","","","","","",""
"","S2","","html-keyboard-response","157","277981","0.0-1.0-202.0","0","0","39536","","null","","","null","22","","NaN","","","","","","","","","","","","","",""
"","response","","html-keyboard-response","158","278461","0.0-1.0-203.0-0.0","0","0","39536","","476","","","68","22","","","1","22","training","adjacent","DE","4","5","P.jpg","O.jpg","1","1","1","",""
"","feedback","","html-keyboard-response","159","279478","0.0-1.0-204.0-0.0","0","0","39536","","null","","","null","22","","","","","","","","","","","","","","","",""
"","ITI","","html-keyboard-response","160","280485","0.0-1.0-207.0","0","0","39536","","null","","","null","22","","","","","","","","","","","","","","","NaN",""
"","S1","","html-keyboard-response","161","280642","0.0-1.0-209.0","0","0","39536","","null","","","null","23","","","","","","","","","","","","","","","",""
"","ISI","","html-keyboard-response","162","282658","0.0-1.0-210.0","0","0","39536","","null","","","null","23","NaN","","","","","","","","","","","","","","",""
"","S2","","html-keyboard-response","163","282815","0.0-1.0-211.0","0","0","39536","","null","","","null","23","","NaN","","","","","","","","","","","","","",""
"","response","","html-keyboard-response","164","283270","0.0-1.0-212.0-0.0","0","0","39536","","452","","","68","23","","","1","23","training","adjacent","GF","7","6","Q.jpg","L.jpg","1","0","0","",""
"","feedback","","html-keyboard-response","165","284281","0.0-1.0-213.0-0.0","0","0","39536","","null","","","null","23","","","","","","","","","","","","","","","",""
"","time_out","","html-keyboard-response","166","286286","0.0-1.0-215.0-0.0","0","0","39536","","null","","","null","23","","","","","","","","","","","","","","","",""
"","ITI","","html-keyboard-response","167","287292","0.0-1.0-216.0","0","0","39536","","null","","","null","23","","","","","","","","","","","","","","","NaN",""
"","S1","","html-keyboard-response","168","287448","0.0-1.0-218.0","0","0","39536","","null","","","null","24","","","","","","","","","","","","","","","",""
"","ISI","","html-keyboard-response","169","289462","0.0-1.0-219.0","0","0","39536","","null","","","null","24","NaN","","","","","","","","","","","","","","",""
"","S2","","html-keyboard-response","170","289619","0.0-1.0-220.0","0","0","39536","","null","","","null","24","","NaN","","","","","","","","","","","","","",""
"","response","","html-keyboard-response","171","289683","0.0-1.0-221.0-0.0","0","0","39536","","60","","","75","24","","","1","24","training","adjacent","CD","3","4","M.jpg","P.jpg","0","1","0","",""
"","feedback","","html-keyboard-response","172","290690","0.0-1.0-222.0-0.0","0","0","39536","","null","","","null","24","","","","","","","","","","","","","","","",""
"","time_out","","html-keyboard-response","173","292704","0.0-1.0-224.0-0.0","0","0","39536","","null","","","null","24","","","","","","","","","","","","","","","",""
"","ITI","","html-keyboard-response","174","293709","0.0-1.0-225.0","0","0","39536","","null","","","null","24","","","","","","","","","","","","","","","NaN",""
"","S1","","html-keyboard-response","175","293867","0.0-1.0-227.0","0","0","39536","","null","","","null","25","","","","","","","","","","","","","","","",""
"","ISI","","html-keyboard-response","176","295880","0.0-1.0-228.0","0","0","39536","","null","","","null","25","NaN","","","","","","","","","","","","","","",""
"","S2","","html-keyboard-response","177","296037","0.0-1.0-229.0","0","0","39536","","null","","","null","25","","NaN","","","","","","","","","","","","","",""
"","response","","html-keyboard-response","178","296582","0.0-1.0-230.0-0.0","0","0","39536","","542","","","75","25","","","1","25","training","adjacent","BC","2","3","R.jpg","M.jpg","0","1","0","",""
"","feedback","","html-keyboard-response","179","297598","0.0-1.0-231.0-0.0","0","0","39536","","null","","","null","25","","","","","","","","","","","","","","","",""
"","time_out","","html-keyboard-response","180","299616","0.0-1.0-233.0-0.0","0","0","39536","","null","","","null","25","","","","","","","","","","","","","","","",""
"","ITI","","html-keyboard-response","181","300626","0.0-1.0-234.0","0","0","39536","","null","","","null","25","","","","","","","","","","","","","","","NaN",""
"","S1","","html-keyboard-response","182","300782","0.0-1.0-236.0","0","0","39536","","null","","","null","26","","","","","","","","","","","","","","","",""
"","ISI","","html-keyboard-response","183","302798","0.0-1.0-237.0","0","0","39536","","null","","","null","26","NaN","","","","","","","","","","","","","","",""
"","S2","","html-keyboard-response","184","302954","0.0-1.0-238.0","0","0","39536","","null","","","null","26","","NaN","","","","","","","","","","","","","",""
"","response","","html-keyboard-response","185","303625","0.0-1.0-239.0-0.0","0","0","39536","","667","","","68","26","","","1","26","training","adjacent","BA","2","1","R.jpg","N.jpg","1","0","0","",""
"","feedback","","html-keyboard-response","186","304638","0.0-1.0-240.0-0.0","0","0","39536","","null","","","null","26","","","","","","","","","","","","","","","",""
"","time_out","","html-keyboard-response","187","306653","0.0-1.0-242.0-0.0","0","0","39536","","null","","","null","26","","","","","","","","","","","","","","","",""
"","ITI","","html-keyboard-response","188","307659","0.0-1.0-243.0","0","0","39536","","null","","","null","26","","","","","","","","","","","","","","","NaN",""
"","S1","","html-keyboard-response","189","307813","0.0-1.0-245.0","0","0","39536","","null","","","null","27","","","","","","","","","","","","","","","",""
"","ISI","","html-keyboard-response","190","309825","0.0-1.0-246.0","0","0","39536","","null","","","null","27","NaN","","","","","","","","","","","","","","",""
"","S2","","html-keyboard-response","191","309978","0.0-1.0-247.0","0","0","39536","","null","","","null","27","","NaN","","","","","","","","","","","","","",""
"","response","","html-keyboard-response","192","310633","0.0-1.0-248.0-0.0","0","0","39536","","651","","","75","27","","","1","27","training","adjacent","AB","1","2","N.jpg","R.jpg","0","1","0","",""
"","feedback","","html-keyboard-response","193","311641","0.0-1.0-249.0-0.0","0","0","39536","","null","","","null","27","","","","","","","","","","","","","","","",""
"","time_out","","html-keyboard-response","194","313650","0.0-1.0-251.0-0.0","0","0","39536","","null","","","null","27","","","","","","","","","","","","","","","",""
"","ITI","","html-keyboard-response","195","314656","0.0-1.0-252.0","0","0","39536","","null","","","null","27","","","","","","","","","","","","","","","NaN",""
"","S1","","html-keyboard-response","196","314822","0.0-1.0-254.0","0","0","39536","","null","","","null","28","","","","","","","","","","","","","","","",""
"","ISI","","html-keyboard-response","197","316837","0.0-1.0-255.0","0","0","39536","","null","","","null","28","NaN","","","","","","","","","","","","","","",""
"","S2","","html-keyboard-response","198","317003","0.0-1.0-256.0","0","0","39536","","null","","","null","28","","NaN","","","","","","","","","","","","","",""
"","response","","html-keyboard-response","199","317192","0.0-1.0-257.0-0.0","0","0","39536","","186","","","75","28","","","1","28","training","adjacent","BC","2","3","R.jpg","M.jpg","0","1","0","",""
"","feedback","","html-keyboard-response","200","318203","0.0-1.0-258.0-0.0","0","0","39536","","null","","","null","28","","","","","","","","","","","","","","","",""
"","time_out","","html-keyboard-response","201","320207","0.0-1.0-260.0-0.0","0","0","39536","","null","","","null","28","","","","","","","","","","","","","","","",""
"","ITI","","html-keyboard-response","202","321212","0.0-1.0-261.0","0","0","39536","","null","","","null","28","","","","","","","","","","","","","","","NaN",""
"","S1","","html-keyboard-response","203","321374","0.0-1.0-263.0","0","0","39536","","null","","","null","29","","","","","","","","","","","","","","","",""
"","ISI","","html-keyboard-response","204","323382","0.0-1.0-264.0","0","0","39536","","null","","","null","29","NaN","","","","","","","","","","","","","","",""
"","S2","","html-keyboard-response","205","323536","0.0-1.0-265.0","0","0","39536","","null","","","null","29","","NaN","","","","","","","","","","","","","",""
"","response","","html-keyboard-response","206","323608","0.0-1.0-266.0-0.0","0","0","39536","","68","","","68","29","","","1","29","training","adjacent","FE","6","5","L.jpg","O.jpg","1","0","0","",""
"","feedback","","html-keyboard-response","207","324622","0.0-1.0-267.0-0.0","0","0","39536","","null","","","null","29","","","","","","","","","","","","","","","",""
"","time_out","","html-keyboard-response","208","326631","0.0-1.0-269.0-0.0","0","0","39536","","null","","","null","29","","","","","","","","","","","","","","","",""
"","ITI","","html-keyboard-response","209","327643","0.0-1.0-270.0","0","0","39536","","null","","","null","29","","","","","","","","","","","","","","","NaN",""
"","S1","","html-keyboard-response","210","327800","0.0-1.0-272.0","0","0","39536","","null","","","null","30","","","","","","","","","","","","","","","",""
"","ISI","","html-keyboard-response","211","329817","0.0-1.0-273.0","0","0","39536","","null","","","null","30","NaN","","","","","","","","","","","","","","",""
"","S2","","html-keyboard-response","212","329974","0.0-1.0-274.0","0","0","39536","","null","","","null","30","","NaN","","","","","","","","","","","","","",""
"","response","","html-keyboard-response","213","330524","0.0-1.0-275.0-0.0","0","0","39536","","546","","","68","30","","","1","30","training","adjacent","CD","3","4","M.jpg","P.jpg","1","1","1","",""
"","feedback","","html-keyboard-response","214","331530","0.0-1.0-276.0-0.0","0","0","39536","","null","","","null","30","","","","","","","","","","","","","","","",""
"","ITI","","html-keyboard-response","215","332537","0.0-1.0-279.0","0","0","39536","","null","","","null","30","","","","","","","","","","","","","","","NaN",""
"","S1","","html-keyboard-response","216","332693","0.0-1.0-281.0","0","0","39536","","null","","","null","31","","","","","","","","","","","","","","","",""
"","ISI","","html-keyboard-response","217","334697","0.0-1.0-282.0","0","0","39536","","null","","","null","31","NaN","","","","","","","","","","","","","","",""
"","S2","","html-keyboard-response","218","334852","0.0-1.0-283.0","0","0","39536","","null","","","null","31","","NaN","","","","","","","","","","","","","",""
"","response","","html-keyboard-response","219","335209","0.0-1.0-284.0-0.0","0","0","39536","","354","","","75","31","","","1","31","training","adjacent","EF","5","6","O.jpg","L.jpg","0","1","0","",""
"","feedback","","html-keyboard-response","220","336222","0.0-1.0-285.0-0.0","0","0","39536","","null","","","null","31","","","","","","","","","","","","","","","",""
"","time_out","","html-keyboard-response","221","338237","0.0-1.0-287.0-0.0","0","0","39536","","null","","","null","31","","","","","","","","","","","","","","","",""
"","ITI","","html-keyboard-response","222","339244","0.0-1.0-288.0","0","0","39536","","null","","","null","31","","","","","","","","","","","","","","","NaN",""
"","S1","","html-keyboard-response","223","339400","0.0-1.0-290.0","0","0","39536","","null","","","null","32","","","","","","","","","","","","","","","",""
"","ISI","","html-keyboard-response","224","341418","0.0-1.0-291.0","0","0","39536","","null","","","null","32","NaN","","","","","","","","","","","","","","",""
"","S2","","html-keyboard-response","225","341576","0.0-1.0-292.0","0","0","39536","","null","","","null","32","","NaN","","","","","","","","","","","","","",""
"","response","","html-keyboard-response","226","341662","0.0-1.0-293.0-0.0","0","0","39536","","82","","","68","32","","","1","32","training","adjacent","DC","4","3","P.jpg","M.jpg","1","0","0","",""
"","feedback","","html-keyboard-response","227","342678","0.0-1.0-294.0-0.0","0","0","39536","","null","","","null","32","","","","","","","","","","","","","","","",""
"","time_out","","html-keyboard-response","228","344695","0.0-1.0-296.0-0.0","0","0","39536","","null","","","null","32","","","","","","","","","","","","","","","",""
"","ITI","","html-keyboard-response","229","345703","0.0-1.0-297.0","0","0","39536","","null","","","null","32","","","","","","","","","","","","","","","NaN",""
"","S1","","html-keyboard-response","230","345861","0.0-1.0-299.0","0","0","39536","","null","","","null","33","","","","","","","","","","","","","","","",""
"","ISI","","html-keyboard-response","231","347875","0.0-1.0-300.0","0","0","39536","","null","","","null","33","NaN","","","","","","","","","","","","","","",""
"","S2","","html-keyboard-response","232","348032","0.0-1.0-301.0","0","0","39536","","null","","","null","33","","NaN","","","","","","","","","","","","","",""
"","response","","html-keyboard-response","233","348394","0.0-1.0-302.0-0.0","0","0","39536","","358","","","75","33","","","1","33","training","adjacent","GF","7","6","Q.jpg","L.jpg","0","0","1","",""
"","feedback","","html-keyboard-response","234","349405","0.0-1.0-303.0-0.0","0","0","39536","","null","","","null","33","","","","","","","","","","","","","","","",""
"","ITI","","html-keyboard-response","235","350415","0.0-1.0-306.0","0","0","39536","","null","","","null","33","","","","","","","","","","","","","","","NaN",""
"","S1","","html-keyboard-response","236","350571","0.0-1.0-308.0","0","0","39536","","null","","","null","34","","","","","","","","","","","","","","","",""
"","ISI","","html-keyboard-response","237","352582","0.0-1.0-309.0","0","0","39536","","null","","","null","34","NaN","","","","","","","","","","","","","","",""
"","S2","","html-keyboard-response","238","352739","0.0-1.0-310.0","0","0","39536","","null","","","null","34","","NaN","","","","","","","","","","","","","",""
"","response","","html-keyboard-response","239","353326","0.0-1.0-311.0-0.0","0","0","39536","","583","","","68","34","","","1","34","training","adjacent","EF","5","6","O.jpg","L.jpg","1","1","1","",""
"","feedback","","html-keyboard-response","240","354343","0.0-1.0-312.0-0.0","0","0","39536","","null","","","null","34","","","","","","","","","","","","","","","",""
"","ITI","","html-keyboard-response","241","355361","0.0-1.0-315.0","0","0","39536","","null","","","null","34","","","","","","","","","","","","","","","NaN",""
"","S1","","html-keyboard-response","242","355517","0.0-1.0-317.0","0","0","39536","","null","","","null","35","","","","","","","","","","","","","","","",""
"","ISI","","html-keyboard-response","243","357531","0.0-1.0-318.0","0","0","39536","","null","","","null","35","NaN","","","","","","","","","","","","","","",""
"","S2","","html-keyboard-response","244","357686","0.0-1.0-319.0","0","0","39536","","null","","","null","35","","NaN","","","","","","","","","","","","","",""
"","response","","html-keyboard-response","245","358053","0.0-1.0-320.0-0.0","0","0","39536","","364","","","68","35","","","1","35","training","adjacent","CD","3","4","M.jpg","P.jpg","1","1","1","",""
"","feedback","","html-keyboard-response","246","359068","0.0-1.0-321.0-0.0","0","0","39536","","null","","","null","35","","","","","","","","","","","","","","","",""
"","ITI","","html-keyboard-response","247","360077","0.0-1.0-324.0","0","0","39536","","null","","","null","35","","","","","","","","","","","","","","","NaN",""
"","S1","","html-keyboard-response","248","360234","0.0-1.0-326.0","0","0","39536","","null","","","null","36","","","","","","","","","","","","","","","",""
"","ISI","","html-keyboard-response","249","362251","0.0-1.0-327.0","0","0","39536","","null","","","null","36","NaN","","","","","","","","","","","","","","",""
"","S2","","html-keyboard-response","250","362407","0.0-1.0-328.0","0","0","39536","","null","","","null","36","","NaN","","","","","","","","","","","","","",""
"","response","","html-keyboard-response","251","363146","0.0-1.0-329.0-0.0","0","0","39536","","734","","","68","36","","","1","36","training","adjacent","FG","6","7","L.jpg","Q.jpg","1","1","1","",""
"","feedback","","html-keyboard-response","252","364155","0.0-1.0-330.0-0.0","0","0","39536","","null","","","null","36","","","","","","","","","","","","","","","",""
"","ITI","","html-keyboard-response","253","365161","0.0-1.0-333.0","0","0","39536","","null","","","null","36","","","","","","","","","","","","","","","NaN",""
"","S1","","html-keyboard-response","254","365318","0.0-1.0-335.0","0","0","39536","","null","","","null","37","","","","","","","","","","","","","","","",""
"","ISI","","html-keyboard-response","255","367331","0.0-1.0-336.0","0","0","39536","","null","","","null","37","NaN","","","","","","","","","","","","","","",""
"","S2","","html-keyboard-response","256","367488","0.0-1.0-337.0","0","0","39536","","null","","","null","37","","NaN","","","","","","","","","","","","","",""
"","response","","html-keyboard-response","257","368167","0.0-1.0-338.0-0.0","0","0","39536","","674","","","75","37","","","1","37","training","adjacent","AB","1","2","N.jpg","R.jpg","0","1","0","",""
"","feedback","","html-keyboard-response","258","369185","0.0-1.0-339.0-0.0","0","0","39536","","null","","","null","37","","","","","","","","","","","","","","","",""
"","time_out","","html-keyboard-response","259","371194","0.0-1.0-341.0-0.0","0","0","39536","","null","","","null","37","","","","","","","","","","","","","","","",""
"","ITI","","html-keyboard-response","260","372207","0.0-1.0-342.0","0","0","39536","","null","","","null","37","","","","","","","","","","","","","","","NaN",""
"","S1","","html-keyboard-response","261","372366","0.0-1.0-344.0","0","0","39536","","null","","","null","38","","","","","","","","","","","","","","","",""
"","ISI","","html-keyboard-response","262","374379","0.0-1.0-345.0","0","0","39536","","null","","","null","38","NaN","","","","","","","","","","","","","","",""
"","S2","","html-keyboard-response","263","374545","0.0-1.0-346.0","0","0","39536","","null","","","null","38","","NaN","","","","","","","","","","","","","",""
"","response","","html-keyboard-response","264","375036","0.0-1.0-347.0-0.0","0","0","39536","","488","","","68","38","","","1","38","training","adjacent","FG","6","7","L.jpg","Q.jpg","1","1","1","",""
"","feedback","","html-keyboard-response","265","376053","0.0-1.0-348.0-0.0","0","0","39536","","null","","","null","38","","","","","","","","","","","","","","","",""
"","ITI","","html-keyboard-response","266","377071","0.0-1.0-351.0","0","0","39536","","null","","","null","38","","","","","","","","","","","","","","","NaN",""
"","S1","","html-keyboard-response","267","377229","0.0-1.0-353.0","0","0","39536","","null","","","null","39","","","","","","","","","","","","","","","",""
"","ISI","","html-keyboard-response","268","379240","0.0-1.0-354.0","0","0","39536","","null","","","null","39","NaN","","","","","","","","","","","","","","",""
"","S2","","html-keyboard-response","269","379392","0.0-1.0-355.0","0","0","39536","","null","","","null","39","","NaN","","","","","","","","","","","","","",""
"","response","","html-keyboard-response","270","379595","0.0-1.0-356.0-0.0","0","0","39536","","201","","","75","39","","","1","39","training","adjacent","GF","7","6","Q.jpg","L.jpg","0","0","1","",""
"","feedback","","html-keyboard-response","271","380602","0.0-1.0-357.0-0.0","0","0","39536","","null","","","null","39","","","","","","","","","","","","","","","",""
"","ITI","","html-keyboard-response","272","381619","0.0-1.0-360.0","0","0","39536","","null","","","null","39","","","","","","","","","","","","","","","NaN",""
"","S1","","html-keyboard-response","273","381788","0.0-1.0-362.0","0","0","39536","","null","","","null","40","","","","","","","","","","","","","","","",""
"","ISI","","html-keyboard-response","274","383804","0.0-1.0-363.0","0","0","39536","","null","","","null","40","NaN","","","","","","","","","","","","","","",""
"","S2","","html-keyboard-response","275","383970","0.0-1.0-364.0","0","0","39536","","null","","","null","40","","NaN","","","","","","","","","","","","","",""
"","response","","html-keyboard-response","276","384448","0.0-1.0-365.0-0.0","0","0","39536","","474","","","68","40","","","1","40","training","adjacent","DC","4","3","P.jpg","M.jpg","1","0","0","",""
"","feedback","","html-keyboard-response","277","385459","0.0-1.0-366.0-0.0","0","0","39536","","null","","","null","40","","","","","","","","","","","","","","","",""
"","time_out","","html-keyboard-response","278","387474","0.0-1.0-368.0-0.0","0","0","39536","","null","","","null","40","","","","","","","","","","","","","","","",""
"","ITI","","html-keyboard-response","279","388487","0.0-1.0-369.0","0","0","39536","","null","","","null","40","","","","","","","","","","","","","","","NaN",""
"","S1","","html-keyboard-response","280","388652","0.0-1.0-371.0","0","0","39536","","null","","","null","41","","","","","","","","","","","","","","","",""
"","ISI","","html-keyboard-response","281","390659","0.0-1.0-372.0","0","0","39536","","null","","","null","41","NaN","","","","","","","","","","","","","","",""
"","S2","","html-keyboard-response","282","390823","0.0-1.0-373.0","0","0","39536","","null","","","null","41","","NaN","","","","","","","","","","","","","",""
"","response","","html-keyboard-response","283","391318","0.0-1.0-374.0-0.0","0","0","39536","","490","","","68","41","","","1","41","training","adjacent","BC","2","3","R.jpg","M.jpg","1","1","1","",""
"","feedback","","html-keyboard-response","284","392322","0.0-1.0-375.0-0.0","0","0","39536","","null","","","null","41","","","","","","","","","","","","","","","",""
"","ITI","","html-keyboard-response","285","393331","0.0-1.0-378.0","0","0","39536","","null","","","null","41","","","","","","","","","","","","","","","NaN",""
"","S1","","html-keyboard-response","286","393491","0.0-1.0-380.0","0","0","39536","","null","","","null","42","","","","","","","","","","","","","","","",""
"","ISI","","html-keyboard-response","287","395494","0.0-1.0-381.0","0","0","39536","","null","","","null","42","NaN","","","","","","","","","","","","","","",""
"","S2","","html-keyboard-response","288","395659","0.0-1.0-382.0","0","0","39536","","null","","","null","42","","NaN","","","","","","","","","","","","","",""
"","response","","html-keyboard-response","289","396448","0.0-1.0-383.0-0.0","0","0","39536","","786","","","68","42","","","1","42","training","adjacent","BA","2","1","R.jpg","N.jpg","1","0","0","",""
"","feedback","","html-keyboard-response","290","397459","0.0-1.0-384.0-0.0","0","0","39536","","null","","","null","42","","","","","","","","","","","","","","","",""
"","time_out","","html-keyboard-response","291","399468","0.0-1.0-386.0-0.0","0","0","39536","","null","","","null","42","","","","","","","","","","","","","","","",""
"","ITI","","html-keyboard-response","292","400471","0.0-1.0-387.0","0","0","39536","","null","","","null","42","","","","","","","","","","","","","","","NaN",""
"","S1","","html-keyboard-response","293","400630","0.0-1.0-389.0","0","0","39536","","null","","","null","43","","","","","","","","","","","","","","","",""
"","ISI","","html-keyboard-response","294","402640","0.0-1.0-390.0","0","0","39536","","null","","","null","43","NaN","","","","","","","","","","","","","","",""
"","S2","","html-keyboard-response","295","402808","0.0-1.0-391.0","0","0","39536","","null","","","null","43","","NaN","","","","","","","","","","","","","",""
"","response","","html-keyboard-response","296","403680","0.0-1.0-392.0-0.0","0","0","39536","","867","","","68","43","","","1","43","training","adjacent","CD","3","4","M.jpg","P.jpg","1","1","1","",""
"","feedback","","html-keyboard-response","297","404690","0.0-1.0-393.0-0.0","0","0","39536","","null","","","null","43","","","","","","","","","","","","","","","",""
"","ITI","","html-keyboard-response","298","405702","0.0-1.0-396.0","0","0","39536","","null","","","null","43","","","","","","","","","","","","","","","NaN",""
"","S1","","html-keyboard-response","299","405860","0.0-1.0-398.0","0","0","39536","","null","","","null","44","","","","","","","","","","","","","","","",""
"","ISI","","html-keyboard-response","300","407870","0.0-1.0-399.0","0","0","39536","","null","","","null","44","NaN","","","","","","","","","","","","","","",""
"","S2","","html-keyboard-response","301","408032","0.0-1.0-400.0","0","0","39536","","null","","","null","44","","NaN","","","","","","","","","","","","","",""
"","response","","html-keyboard-response","302","408741","0.0-1.0-401.0-0.0","0","0","39536","","702","","","75","44","","","1","44","training","adjacent","DE","4","5","P.jpg","O.jpg","0","1","0","",""
"","feedback","","html-keyboard-response","303","409753","0.0-1.0-402.0-0.0","0","0","39536","","null","","","null","44","","","","","","","","","","","","","","","",""
"","time_out","","html-keyboard-response","304","411764","0.0-1.0-404.0-0.0","0","0","39536","","null","","","null","44","","","","","","","","","","","","","","","",""
"","ITI","","html-keyboard-response","305","412770","0.0-1.0-405.0","0","0","39536","","null","","","null","44","","","","","","","","","","","","","","","NaN",""
"","S1","","html-keyboard-response","306","412925","0.0-1.0-407.0","0","0","39536","","null","","","null","45","","","","","","","","","","","","","","","",""
"","ISI","","html-keyboard-response","307","414938","0.0-1.0-408.0","0","0","39536","","null","","","null","45","NaN","","","","","","","","","","","","","","",""
"","S2","","html-keyboard-response","308","415101","0.0-1.0-409.0","0","0","39536","","null","","","null","45","","NaN","","","","","","","","","","","","","",""
"","response","","html-keyboard-response","309","415920","0.0-1.0-410.0-0.0","0","0","39536","","813","","","68","45","","","1","45","training","adjacent","CB","3","2","M.jpg","R.jpg","1","0","0","",""
"","feedback","","html-keyboard-response","310","416924","0.0-1.0-411.0-0.0","0","0","39536","","null","","","null","45","","","","","","","","","","","","","","","",""
"","time_out","","html-keyboard-response","311","418935","0.0-1.0-413.0-0.0","0","0","39536","","null","","","null","45","","","","","","","","","","","","","","","",""
"","ITI","","html-keyboard-response","312","419952","0.0-1.0-414.0","0","0","39536","","null","","","null","45","","","","","","","","","","","","","","","NaN",""
"","S1","","html-keyboard-response","313","420116","0.0-1.0-416.0","0","0","39536","","null","","","null","46","","","","","","","","","","","","","","","",""
"","ISI","","html-keyboard-response","314","422127","0.0-1.0-417.0","0","0","39536","","null","","","null","46","NaN","","","","","","","","","","","","","","",""
"","S2","","html-keyboard-response","315","422292","0.0-1.0-418.0","0","0","39536","","null","","","null","46","","NaN","","","","","","","","","","","","","",""
"","response","","html-keyboard-response","316","422956","0.0-1.0-419.0-0.0","0","0","39536","","660","","","75","46","","","1","46","training","adjacent","AB","1","2","N.jpg","R.jpg","0","1","0","",""
"","feedback","","html-keyboard-response","317","423972","0.0-1.0-420.0-0.0","0","0","39536","","null","","","null","46","","","","","","","","","","","","","","","",""
"","time_out","","html-keyboard-response","318","425976","0.0-1.0-422.0-0.0","0","0","39536","","null","","","null","46","","","","","","","","","","","","","","","",""
"","ITI","","html-keyboard-response","319","426992","0.0-1.0-423.0","0","0","39536","","null","","","null","46","","","","","","","","","","","","","","","NaN",""
"","S1","","html-keyboard-response","320","427145","0.0-1.0-425.0","0","0","39536","","null","","","null","47","","","","","","","","","","","","","","","",""
"","ISI","","html-keyboard-response","321","429153","0.0-1.0-426.0","0","0","39536","","null","","","null","47","NaN","","","","","","","","","","","","","","",""
"","S2","","html-keyboard-response","322","429313","0.0-1.0-427.0","0","0","39536","","null","","","null","47","","NaN","","","","","","","","","","","","","",""
"","response","","html-keyboard-response","323","429927","0.0-1.0-428.0-0.0","0","0","39536","","611","","","68","47","","","1","47","training","adjacent","DE","4","5","P.jpg","O.jpg","1","1","1","",""
"","feedback","","html-keyboard-response","324","430937","0.0-1.0-429.0-0.0","0","0","39536","","null","","","null","47","","","","","","","","","","","","","","","",""
"","ITI","","html-keyboard-response","325","431949","0.0-1.0-432.0","0","0","39536","","null","","","null","47","","","","","","","","","","","","","","","NaN",""
"","block_over","","html-keyboard-response","326","435245","0.0-1.0-433.0-0.0","0","0","39536","","3291","","","32","47","","","","","","","","","","","","","","","",""
"","S1","","html-keyboard-response","327","435409","0.0-1.0-434.0","0","0","39536","","null","","","null","48","","","","","","","","","","","","","","","",""
"","ISI","","html-keyboard-response","328","437424","0.0-1.0-435.0","0","0","39536","","null","","","null","48","NaN","","","","","","","","","","","","","","",""
"","S2","","html-keyboard-response","329","437581","0.0-1.0-436.0","0","0","39536","","null","","","null","48","","NaN","","","","","","","","","","","","","",""
"","response","","html-keyboard-response","330","438133","0.0-1.0-437.0-0.0","0","0","39536","","548","","","75","48","","","2","48","training","adjacent","BC","2","3","R.jpg","M.jpg","0","1","0","",""
"","feedback","","html-keyboard-response","331","439153","0.0-1.0-438.0-0.0","0","0","39536","","null","","","null","48","","","","","","","","","","","","","","","",""
"","time_out","","html-keyboard-response","332","441157","0.0-1.0-440.0-0.0","0","0","39536","","null","","","null","48","","","","","","","","","","","","","","","",""
"","ITI","","html-keyboard-response","333","442165","0.0-1.0-441.0","0","0","39536","","null","","","null","48","","","","","","","","","","","","","","","NaN",""
"","S1","","html-keyboard-response","334","442324","0.0-1.0-443.0","0","0","39536","","null","","","null","49","","","","","","","","","","","","","","","",""
"","ISI","","html-keyboard-response","335","444341","0.0-1.0-444.0","0","0","39536","","null","","","null","49","NaN","","","","","","","","","","","","","","",""
"","S2","","html-keyboard-response","336","444507","0.0-1.0-445.0","0","0","39536","","null","","","null","49","","NaN","","","","","","","","","","","","","",""
"","response","","html-keyboard-response","337","445256","0.0-1.0-446.0-0.0","0","0","39536","","747","","","68","49","","","2","49","training","adjacent","DE","4","5","P.jpg","O.jpg","1","1","1","",""
"","feedback","","html-keyboard-response","338","446271","0.0-1.0-447.0-0.0","0","0","39536","","null","","","null","49","","","","","","","","","","","","","","","",""
"","ITI","","html-keyboard-response","339","447285","0.0-1.0-450.0","0","0","39536","","null","","","null","49","","","","","","","","","","","","","","","NaN",""
"","S1","","html-keyboard-response","340","447447","0.0-1.0-452.0","0","0","39536","","null","","","null","50","","","","","","","","","","","","","","","",""
"","ISI","","html-keyboard-response","341","449462","0.0-1.0-453.0","0","0","39536","","null","","","null","50","NaN","","","","","","","","","","","","","","",""
"","S2","","html-keyboard-response","342","449627","0.0-1.0-454.0","0","0","39536","","null","","","null","50","","NaN","","","","","","","","","","","","","",""
"","response","","html-keyboard-response","343","450531","0.0-1.0-455.0-0.0","0","0","39536","","900","","","68","50","","","2","50","training","adjacent","ED","5","4","O.jpg","P.jpg","1","0","0","",""
"","feedback","","html-keyboard-response","344","451538","0.0-1.0-456.0-0.0","0","0","39536","","null","","","null","50","","","","","","","","","","","","","","","",""
"","time_out","","html-keyboard-response","345","453547","0.0-1.0-458.0-0.0","0","0","39536","","null","","","null","50","","","","","","","","","","","","","","","",""
"","ITI","","html-keyboard-response","346","454556","0.0-1.0-459.0","0","0","39536","","null","","","null","50","","","","","","","","","","","","","","","NaN",""
"","S1","","html-keyboard-response","347","454719","0.0-1.0-461.0","0","0","39536","","null","","","null","51","","","","","","","","","","","","","","","",""
"","ISI","","html-keyboard-response","348","456731","0.0-1.0-462.0","0","0","39536","","null","","","null","51","NaN","","","","","","","","","","","","","","",""
"","S2","","html-keyboard-response","349","456888","0.0-1.0-463.0","0","0","39536","","null","","","null","51","","NaN","","","","","","","","","","","","","",""
"","response","","html-keyboard-response","350","457531","0.0-1.0-464.0-0.0","0","0","39536","","640","","","68","51","","","2","51","training","adjacent","ED","5","4","O.jpg","P.jpg","1","0","0","",""
"","feedback","","html-keyboard-response","351","458535","0.0-1.0-465.0-0.0","0","0","39536","","null","","","null","51","","","","","","","","","","","","","","","",""
"","time_out","","html-keyboard-response","352","460548","0.0-1.0-467.0-0.0","0","0","39536","","null","","","null","51","","","","","","","","","","","","","","","",""
"","ITI","","html-keyboard-response","353","461555","0.0-1.0-468.0","0","0","39536","","null","","","null","51","","","","","","","","","","","","","","","NaN",""
"","S1","","html-keyboard-response","354","461710","0.0-1.0-470.0","0","0","39536","","null","","","null","52","","","","","","","","","","","","","","","",""
"","ISI","","html-keyboard-response","355","463722","0.0-1.0-471.0","0","0","39536","","null","","","null","52","NaN","","","","","","","","","","","","","","",""
"","S2","","html-keyboard-response","356","463879","0.0-1.0-472.0","0","0","39536","","null","","","null","52","","NaN","","","","","","","","","","","","","",""
"","response","","html-keyboard-response","357","464140","0.0-1.0-473.0-0.0","0","0","39536","","258","","","75","52","","","2","52","training","adjacent","GF","7","6","Q.jpg","L.jpg","0","0","1","",""
"","feedback","","html-keyboard-response","358","465151","0.0-1.0-474.0-0.0","0","0","39536","","null","","","null","52","","","","","","","","","","","","","","","",""
"","ITI","","html-keyboard-response","359","466160","0.0-1.0-477.0","0","0","39536","","null","","","null","52","","","","","","","","","","","","","","","NaN",""
"","S1","","html-keyboard-response","360","466316","0.0-1.0-479.0","0","0","39536","","null","","","null","53","","","","","","","","","","","","","","","",""
"","ISI","","html-keyboard-response","361","468329","0.0-1.0-480.0","0","0","39536","","null","","","null","53","NaN","","","","","","","","","","","","","","",""
"","S2","","html-keyboard-response","362","468486","0.0-1.0-481.0","0","0","39536","","null","","","null","53","","NaN","","","","","","","","","","","","","",""
"","response","","html-keyboard-response","363","469216","0.0-1.0-482.0-0.0","0","0","39536","","727","","","75","53","","","2","53","training","adjacent","BC","2","3","R.jpg","M.jpg","0","1","0","",""
"","feedback","","html-keyboard-response","364","470235","0.0-1.0-483.0-0.0","0","0","39536","","null","","","null","53","","","","","","","","","","","","","","","",""
"","time_out","","html-keyboard-response","365","472247","0.0-1.0-485.0-0.0","0","0","39536","","null","","","null","53","","","","","","","","","","","","","","","",""
"","ITI","","html-keyboard-response","366","473257","0.0-1.0-486.0","0","0","39536","","null","","","null","53","","","","","","","","","","","","","","","NaN",""
"","S1","","html-keyboard-response","367","473415","0.0-1.0-488.0","0","0","39536","","null","","","null","54","","","","","","","","","","","","","","","",""
"","ISI","","html-keyboard-response","368","475427","0.0-1.0-489.0","0","0","39536","","null","","","null","54","NaN","","","","","","","","","","","","","","",""
"","S2","","html-keyboard-response","369","475584","0.0-1.0-490.0","0","0","39536","","null","","","null","54","","NaN","","","","","","","","","","","","","",""
"","response","","html-keyboard-response","370","476343","0.0-1.0-491.0-0.0","0","0","39536","","753","","","68","54","","","2","54","training","adjacent","CD","3","4","M.jpg","P.jpg","1","1","1","",""
"","feedback","","html-keyboard-response","371","477358","0.0-1.0-492.0-0.0","0","0","39536","","null","","","null","54","","","","","","","","","","","","","","","",""
"","ITI","","html-keyboard-response","372","478366","0.0-1.0-495.0","0","0","39536","","null","","","null","54","","","","","","","","","","","","","","","NaN",""
"","S1","","html-keyboard-response","373","478524","0.0-1.0-497.0","0","0","39536","","null","","","null","55","","","","","","","","","","","","","","","",""
"","ISI","","html-keyboard-response","374","480541","0.0-1.0-498.0","0","0","39536","","null","","","null","55","NaN","","","","","","","","","","","","","","",""
"","S2","","html-keyboard-response","375","480699","0.0-1.0-499.0","0","0","39536","","null","","","null","55","","NaN","","","","","","","","","","","","","",""
"","response","","html-keyboard-response","376","481961","0.0-1.0-500.0-0.0","0","0","39536","","1257","","","75","55","","","2","55","training","adjacent","DE","4","5","P.jpg","O.jpg","0","1","0","",""
"","feedback","","html-keyboard-response","377","482978","0.0-1.0-501.0-0.0","0","0","39536","","null","","","null","55","","","","","","","","","","","","","","","",""
"","time_out","","html-keyboard-response","378","484992","0.0-1.0-503.0-0.0","0","0","39536","","null","","","null","55","","","","","","","","","","","","","","","",""
"","ITI","","html-keyboard-response","379","485999","0.0-1.0-504.0","0","0","39536","","null","","","null","55","","","","","","","","","","","","","","","NaN",""
"","S1","","html-keyboard-response","380","486155","0.0-1.0-506.0","0","0","39536","","null","","","null","56","","","","","","","","","","","","","","","",""
"","ISI","","html-keyboard-response","381","488173","0.0-1.0-507.0","0","0","39536","","null","","","null","56","NaN","","","","","","","","","","","","","","",""
"","S2","","html-keyboard-response","382","488330","0.0-1.0-508.0","0","0","39536","","null","","","null","56","","NaN","","","","","","","","","","","","","",""
"","response","","html-keyboard-response","383","488816","0.0-1.0-509.0-0.0","0","0","39536","","481","","","75","56","","","2","56","training","adjacent","AB","1","2","N.jpg","R.jpg","0","1","0","",""
"","feedback","","html-keyboard-response","384","489825","0.0-1.0-510.0-0.0","0","0","39536","","null","","","null","56","","","","","","","","","","","","","","","",""
"","time_out","","html-keyboard-response","385","491840","0.0-1.0-512.0-0.0","0","0","39536","","null","","","null","56","","","","","","","","","","","","","","","",""
"","ITI","","html-keyboard-response","386","492850","0.0-1.0-513.0","0","0","39536","","null","","","null","56","","","","","","","","","","","","","","","NaN",""
"","S1","","html-keyboard-response","387","493007","0.0-1.0-515.0","0","0","39536","","null","","","null","57","","","","","","","","","","","","","","","",""
"","ISI","","html-keyboard-response","388","495019","0.0-1.0-516.0","0","0","39536","","null","","","null","57","NaN","","","","","","","","","","","","","","",""
"","S2","","html-keyboard-response","389","495174","0.0-1.0-517.0","0","0","39536","","null","","","null","57","","NaN","","","","","","","","","","","","","",""
"","response","","html-keyboard-response","390","495290","0.0-1.0-518.0-0.0","0","0","39536","","112","","","68","57","","","2","57","training","adjacent","BA","2","1","R.jpg","N.jpg","1","0","0","",""
"","feedback","","html-keyboard-response","391","496305","0.0-1.0-519.0-0.0","0","0","39536","","null","","","null","57","","","","","","","","","","","","","","","",""
"","time_out","","html-keyboard-response","392","498317","0.0-1.0-521.0-0.0","0","0","39536","","null","","","null","57","","","","","","","","","","","","","","","",""
"","ITI","","html-keyboard-response","393","499325","0.0-1.0-522.0","0","0","39536","","null","","","null","57","","","","","","","","","","","","","","","NaN",""
"","S1","","html-keyboard-response","394","499490","0.0-1.0-524.0","0","0","39536","","null","","","null","58","","","","","","","","","","","","","","","",""
"","ISI","","html-keyboard-response","395","501500","0.0-1.0-525.0","0","0","39536","","null","","","null","58","NaN","","","","","","","","","","","","","","",""
"","S2","","html-keyboard-response","396","501655","0.0-1.0-526.0","0","0","39536","","null","","","null","58","","NaN","","","","","","","","","","","","","",""
"","response","","html-keyboard-response","397","501815","0.0-1.0-527.0-0.0","0","0","39536","","157","","","75","58","","","2","58","training","adjacent","GF","7","6","Q.jpg","L.jpg","0","0","1","",""
"","feedback","","html-keyboard-response","398","502834","0.0-1.0-528.0-0.0","0","0","39536","","null","","","null","58","","","","","","","","","","","","","","","",""
"","ITI","","html-keyboard-response","399","503841","0.0-1.0-531.0","0","0","39536","","null","","","null","58","","","","","","","","","","","","","","","NaN",""
"","S1","","html-keyboard-response","400","503999","0.0-1.0-533.0","0","0","39536","","null","","","null","59","","","","","","","","","","","","","","","",""
"","ISI","","html-keyboard-response","401","506014","0.0-1.0-534.0","0","0","39536","","null","","","null","59","NaN","","","","","","","","","","","","","","",""
"","S2","","html-keyboard-response","402","506171","0.0-1.0-535.0","0","0","39536","","null","","","null","59","","NaN","","","","","","","","","","","","","",""
"","response","","html-keyboard-response","403","506642","0.0-1.0-536.0-0.0","0","0","39536","","466","","","68","59","","","2","59","training","adjacent","CB","3","2","M.jpg","R.jpg","1","0","0","",""
"","feedback","","html-keyboard-response","404","507652","0.0-1.0-537.0-0.0","0","0","39536","","null","","","null","59","","","","","","","","","","","","","","","",""
"","time_out","","html-keyboard-response","405","509664","0.0-1.0-539.0-0.0","0","0","39536","","null","","","null","59","","","","","","","","","","","","","","","",""
"","ITI","","html-keyboard-response","406","510674","0.0-1.0-540.0","0","0","39536","","null","","","null","59","","","","","","","","","","","","","","","NaN",""
"","S1","","html-keyboard-response","407","510831","0.0-1.0-542.0","0","0","39536","","null","","","null","60","","","","","","","","","","","","","","","",""
"","ISI","","html-keyboard-response","408","512849","0.0-1.0-543.0","0","0","39536","","null","","","null","60","NaN","","","","","","","","","","","","","","",""
"","S2","","html-keyboard-response","409","513004","0.0-1.0-544.0","0","0","39536","","null","","","null","60","","NaN","","","","","","","","","","","","","",""
"","response","","html-keyboard-response","410","513799","0.0-1.0-545.0-0.0","0","0","39536","","791","","","68","60","","","2","60","training","adjacent","DE","4","5","P.jpg","O.jpg","1","1","1","",""
"","feedback","","html-keyboard-response","411","514812","0.0-1.0-546.0-0.0","0","0","39536","","null","","","null","60","","","","","","","","","","","","","","","",""
"","ITI","","html-keyboard-response","412","515821","0.0-1.0-549.0","0","0","39536","","null","","","null","60","","","","","","","","","","","","","","","NaN",""
"","S1","","html-keyboard-response","413","515978","0.0-1.0-551.0","0","0","39536","","null","","","null","61","","","","","","","","","","","","","","","",""
"","ISI","","html-keyboard-response","414","517994","0.0-1.0-552.0","0","0","39536","","null","","","null","61","NaN","","","","","","","","","","","","","","",""
"","S2","","html-keyboard-response","415","518150","0.0-1.0-553.0","0","0","39536","","null","","","null","61","","NaN","","","","","","","","","","","","","",""
"","response","","html-keyboard-response","416","519330","0.0-1.0-554.0-0.0","0","0","39536","","1177","","","68","61","","","2","61","training","adjacent","BA","2","1","R.jpg","N.jpg","1","0","0","",""
"","feedback","","html-keyboard-response","417","520338","0.0-1.0-555.0-0.0","0","0","39536","","null","","","null","61","","","","","","","","","","","","","","","",""
"","time_out","","html-keyboard-response","418","522351","0.0-1.0-557.0-0.0","0","0","39536","","null","","","null","61","","","","","","","","","","","","","","","",""
"","ITI","","html-keyboard-response","419","523361","0.0-1.0-558.0","0","0","39536","","null","","","null","61","","","","","","","","","","","","","","","NaN",""
"","S1","","html-keyboard-response","420","523516","0.0-1.0-560.0","0","0","39536","","null","","","null","62","","","","","","","","","","","","","","","",""
"","ISI","","html-keyboard-response","421","525532","0.0-1.0-561.0","0","0","39536","","null","","","null","62","NaN","","","","","","","","","","","","","","",""
"","S2","","html-keyboard-response","422","525689","0.0-1.0-562.0","0","0","39536","","null","","","null","62","","NaN","","","","","","","","","","","","","",""
"","response","","html-keyboard-response","423","526179","0.0-1.0-563.0-0.0","0","0","39536","","486","","","75","62","","","2","62","training","adjacent","EF","5","6","O.jpg","L.jpg","0","1","0","",""
"","feedback","","html-keyboard-response","424","527197","0.0-1.0-564.0-0.0","0","0","39536","","null","","","null","62","","","","","","","","","","","","","","","",""
"","time_out","","html-keyboard-response","425","529210","0.0-1.0-566.0-0.0","0","0","39536","","null","","","null","62","","","","","","","","","","","","","","","",""
"","ITI","","html-keyboard-response","426","530217","0.0-1.0-567.0","0","0","39536","","null","","","null","62","","","","","","","","","","","","","","","NaN",""
"","S1","","html-keyboard-response","427","530371","0.0-1.0-569.0","0","0","39536","","null","","","null","63","","","","","","","","","","","","","","","",""
"","ISI","","html-keyboard-response","428","532389","0.0-1.0-570.0","0","0","39536","","null","","","null","63","NaN","","","","","","","","","","","","","","",""
"","S2","","html-keyboard-response","429","532545","0.0-1.0-571.0","0","0","39536","","null","","","null","63","","NaN","","","","","","","","","","","","","",""
"","response","","html-keyboard-response","430","533581","0.0-1.0-572.0-0.0","0","0","39536","","1032","","","68","63","","","2","63","training","adjacent","BA","2","1","R.jpg","N.jpg","1","0","0","",""
"","feedback","","html-keyboard-response","431","534590","0.0-1.0-573.0-0.0","0","0","39536","","null","","","null","63","","","","","","","","","","","","","","","",""
"","time_out","","html-keyboard-response","432","536597","0.0-1.0-575.0-0.0","0","0","39536","","null","","","null","63","","","","","","","","","","","","","","","",""
"","ITI","","html-keyboard-response","433","537603","0.0-1.0-576.0","0","0","39536","","null","","","null","63","","","","","","","","","","","","","","","NaN",""
"","S1","","html-keyboard-response","434","537761","0.0-1.0-578.0","0","0","39536","","null","","","null","64","","","","","","","","","","","","","","","",""
"","ISI","","html-keyboard-response","435","539777","0.0-1.0-579.0","0","0","39536","","null","","","null","64","NaN","","","","","","","","","","","","","","",""
"","S2","","html-keyboard-response","436","539934","0.0-1.0-580.0","0","0","39536","","null","","","null","64","","NaN","","","","","","","","","","","","","",""
"","response","","html-keyboard-response","437","541069","0.0-1.0-581.0-0.0","0","0","39536","","1130","","","68","64","","","2","64","training","adjacent","EF","5","6","O.jpg","L.jpg","1","1","1","",""
"","feedback","","html-keyboard-response","438","542086","0.0-1.0-582.0-0.0","0","0","39536","","null","","","null","64","","","","","","","","","","","","","","","",""
"","ITI","","html-keyboard-response","439","543095","0.0-1.0-585.0","0","0","39536","","null","","","null","64","","","","","","","","","","","","","","","NaN",""
"","S1","","html-keyboard-response","440","543253","0.0-1.0-587.0","0","0","39536","","null","","","null","65","","","","","","","","","","","","","","","",""
"","ISI","","html-keyboard-response","441","545268","0.0-1.0-588.0","0","0","39536","","null","","","null","65","NaN","","","","","","","","","","","","","","",""
"","S2","","html-keyboard-response","442","545425","0.0-1.0-589.0","0","0","39536","","null","","","null","65","","NaN","","","","","","","","","","","","","",""
"","response","","html-keyboard-response","443","546566","0.0-1.0-590.0-0.0","0","0","39536","","1138","","","68","65","","","2","65","training","adjacent","DC","4","3","P.jpg","M.jpg","1","0","0","",""
"","feedback","","html-keyboard-response","444","547583","0.0-1.0-591.0-0.0","0","0","39536","","null","","","null","65","","","","","","","","","","","","","","","",""
"","time_out","","html-keyboard-response","445","549600","0.0-1.0-593.0-0.0","0","0","39536","","null","","","null","65","","","","","","","","","","","","","","","",""
"","ITI","","html-keyboard-response","446","550619","0.0-1.0-594.0","0","0","39536","","null","","","null","65","","","","","","","","","","","","","","","NaN",""
"","S1","","html-keyboard-response","447","550774","0.0-1.0-596.0","0","0","39536","","null","","","null","66","","","","","","","","","","","","","","","",""
"","ISI","","html-keyboard-response","448","552791","0.0-1.0-597.0","0","0","39536","","null","","","null","66","NaN","","","","","","","","","","","","","","",""
"","S2","","html-keyboard-response","449","552947","0.0-1.0-598.0","0","0","39536","","null","","","null","66","","NaN","","","","","","","","","","","","","",""
"","response","","html-keyboard-response","450","553143","0.0-1.0-599.0-0.0","0","0","39536","","192","","","75","66","","","2","66","training","adjacent","FG","6","7","L.jpg","Q.jpg","0","1","0","",""
"","feedback","","html-keyboard-response","451","554158","0.0-1.0-600.0-0.0","0","0","39536","","null","","","null","66","","","","","","","","","","","","","","","",""
"","time_out","","html-keyboard-response","452","556174","0.0-1.0-602.0-0.0","0","0","39536","","null","","","null","66","","","","","","","","","","","","","","","",""
"","ITI","","html-keyboard-response","453","557186","0.0-1.0-603.0","0","0","39536","","null","","","null","66","","","","","","","","","","","","","","","NaN",""
"","S1","","html-keyboard-response","454","557344","0.0-1.0-605.0","0","0","39536","","null","","","null","67","","","","","","","","","","","","","","","",""
"","ISI","","html-keyboard-response","455","559362","0.0-1.0-606.0","0","0","39536","","null","","","null","67","NaN","","","","","","","","","","","","","","",""
"","S2","","html-keyboard-response","456","559517","0.0-1.0-607.0","0","0","39536","","null","","","null","67","","NaN","","","","","","","","","","","","","",""
"","response","","html-keyboard-response","457","560714","0.0-1.0-608.0-0.0","0","0","39536","","1195","","","68","67","","","2","67","training","adjacent","FE","6","5","L.jpg","O.jpg","1","0","0","",""
"","feedback","","html-keyboard-response","458","561722","0.0-1.0-609.0-0.0","0","0","39536","","null","","","null","67","","","","","","","","","","","","","","","",""
"","time_out","","html-keyboard-response","459","563735","0.0-1.0-611.0-0.0","0","0","39536","","null","","","null","67","","","","","","","","","","","","","","","",""
"","ITI","","html-keyboard-response","460","564743","0.0-1.0-612.0","0","0","39536","","null","","","null","67","","","","","","","","","","","","","","","NaN",""
"","S1","","html-keyboard-response","461","564900","0.0-1.0-614.0","0","0","39536","","null","","","null","68","","","","","","","","","","","","","","","",""
"","ISI","","html-keyboard-response","462","566913","0.0-1.0-615.0","0","0","39536","","null","","","null","68","NaN","","","","","","","","","","","","","","",""
"","S2","","html-keyboard-response","463","567070","0.0-1.0-616.0","0","0","39536","","null","","","null","68","","NaN","","","","","","","","","","","","","",""
"","response","","html-keyboard-response","464","567560","0.0-1.0-617.0-0.0","0","0","39536","","487","","","75","68","","","2","68","training","adjacent","BC","2","3","R.jpg","M.jpg","0","1","0","",""
"","feedback","","html-keyboard-response","465","568566","0.0-1.0-618.0-0.0","0","0","39536","","null","","","null","68","","","","","","","","","","","","","","","",""
"","time_out","","html-keyboard-response","466","570578","0.0-1.0-620.0-0.0","0","0","39536","","null","","","null","68","","","","","","","","","","","","","","","",""
"","ITI","","html-keyboard-response","467","571582","0.0-1.0-621.0","0","0","39536","","null","","","null","68","","","","","","","","","","","","","","","NaN",""
"","S1","","html-keyboard-response","468","571739","0.0-1.0-623.0","0","0","39536","","null","","","null","69","","","","","","","","","","","","","","","",""
"","ISI","","html-keyboard-response","469","573754","0.0-1.0-624.0","0","0","39536","","null","","","null","69","NaN","","","","","","","","","","","","","","",""
"","S2","","html-keyboard-response","470","573911","0.0-1.0-625.0","0","0","39536","","null","","","null","69","","NaN","","","","","","","","","","","","","",""
"","response","","html-keyboard-response","471","574438","0.0-1.0-626.0-0.0","0","0","39536","","521","","","68","69","","","2","69","training","adjacent","CB","3","2","M.jpg","R.jpg","1","0","0","",""
"","feedback","","html-keyboard-response","472","575450","0.0-1.0-627.0-0.0","0","0","39536","","null","","","null","69","","","","","","","","","","","","","","","",""
"","time_out","","html-keyboard-response","473","577467","0.0-1.0-629.0-0.0","0","0","39536","","null","","","null","69","","","","","","","","","","","","","","","",""
"","ITI","","html-keyboard-response","474","578472","0.0-1.0-630.0","0","0","39536","","null","","","null","69","","","","","","","","","","","","","","","NaN",""
"","S1","","html-keyboard-response","475","578630","0.0-1.0-632.0","0","0","39536","","null","","","null","70","","","","","","","","","","","","","","","",""
"","ISI","","html-keyboard-response","476","580645","0.0-1.0-633.0","0","0","39536","","null","","","null","70","NaN","","","","","","","","","","","","","","",""
"","S2","","html-keyboard-response","477","580806","0.0-1.0-634.0","0","0","39536","","null","","","null","70","","NaN","","","","","","","","","","","","","",""
"","response","","html-keyboard-response","478","582660","0.0-1.0-635.0-0.0","0","0","39536","","null","","","null","70","","","2","70","training","adjacent","FE","6","5","L.jpg","O.jpg","NaN","0","0","",""
"","too_slow_prompt","","html-keyboard-response","479","583677","0.0-1.0-637.0-0.0","1","0","39536","","null","","","null","","","","","","","","","","","","","","","","",""
"","time_out","","html-keyboard-response","480","585685","0.0-1.0-638.0-0.0","0","0","39536","","null","","","null","70","","","","","","","","","","","","","","","",""
"","ITI","","html-keyboard-response","481","586701","0.0-1.0-639.0","0","0","39536","","null","","","null","70","","","","","","","","","","","","","","","NaN",""
"","S1","","html-keyboard-response","482","586854","0.0-1.0-641.0","0","0","39536","","null","","","null","71","","","","","","","","","","","","","","","",""
"","ISI","","html-keyboard-response","483","588862","0.0-1.0-642.0","0","0","39536","","null","","","null","71","NaN","","","","","","","","","","","","","","",""
"","S2","","html-keyboard-response","484","589028","0.0-1.0-643.0","0","0","39536","","null","","","null","71","","NaN","","","","","","","","","","","","","",""
"","response","","html-keyboard-response","485","589461","0.0-1.0-644.0-0.0","0","0","39536","","430","","","75","71","","","2","71","training","adjacent","DC","4","3","P.jpg","M.jpg","0","0","1","",""
"","feedback","","html-keyboard-response","486","590480","0.0-1.0-645.0-0.0","0","0","39536","","null","","","null","71","","","","","","","","","","","","","","","",""
"","ITI","","html-keyboard-response","487","591491","0.0-1.0-648.0","0","0","39536","","null","","","null","71","","","","","","","","","","","","","","","NaN",""
"","S1","","html-keyboard-response","488","591649","0.0-1.0-650.0","0","0","39536","","null","","","null","72","","","","","","","","","","","","","","","",""
"","ISI","","html-keyboard-response","489","593665","0.0-1.0-651.0","0","0","39536","","null","","","null","72","NaN","","","","","","","","","","","","","","",""
"","S2","","html-keyboard-response","490","593820","0.0-1.0-652.0","0","0","39536","","null","","","null","72","","NaN","","","","","","","","","","","","","",""
"","response","","html-keyboard-response","491","594848","0.0-1.0-653.0-0.0","0","0","39536","","1025","","","68","72","","","2","72","training","adjacent","DE","4","5","P.jpg","O.jpg","1","1","1","",""
"","feedback","","html-keyboard-response","492","595855","0.0-1.0-654.0-0.0","0","0","39536","","null","","","null","72","","","","","","","","","","","","","","","",""
"","ITI","","html-keyboard-response","493","596861","0.0-1.0-657.0","0","0","39536","","null","","","null","72","","","","","","","","","","","","","","","NaN",""
"","S1","","html-keyboard-response","494","597017","0.0-1.0-659.0","0","0","39536","","null","","","null","73","","","","","","","","","","","","","","","",""
"","ISI","","html-keyboard-response","495","599032","0.0-1.0-660.0","0","0","39536","","null","","","null","73","NaN","","","","","","","","","","","","","","",""
"","S2","","html-keyboard-response","496","599191","0.0-1.0-661.0","0","0","39536","","null","","","null","73","","NaN","","","","","","","","","","","","","",""
"","response","","html-keyboard-response","497","599688","0.0-1.0-662.0-0.0","0","0","39536","","494","","","75","73","","","2","73","training","adjacent","ED","5","4","O.jpg","P.jpg","0","0","1","",""
"","feedback","","html-keyboard-response","498","600704","0.0-1.0-663.0-0.0","0","0","39536","","null","","","null","73","","","","","","","","","","","","","","","",""
"","ITI","","html-keyboard-response","499","601711","0.0-1.0-666.0","0","0","39536","","null","","","null","73","","","","","","","","","","","","","","","NaN",""
"","S1","","html-keyboard-response","500","601867","0.0-1.0-668.0","0","0","39536","","null","","","null","74","","","","","","","","","","","","","","","",""
"","ISI","","html-keyboard-response","501","603882","0.0-1.0-669.0","0","0","39536","","null","","","null","74","NaN","","","","","","","","","","","","","","",""
"","S2","","html-keyboard-response","502","604040","0.0-1.0-670.0","0","0","39536","","null","","","null","74","","NaN","","","","","","","","","","","","","",""
"","response","","html-keyboard-response","503","604607","0.0-1.0-671.0-0.0","0","0","39536","","563","","","75","74","","","2","74","training","adjacent","AB","1","2","N.jpg","R.jpg","0","1","0","",""
"","feedback","","html-keyboard-response","504","605626","0.0-1.0-672.0-0.0","0","0","39536","","null","","","null","74","","","","","","","","","","","","","","","",""
"","time_out","","html-keyboard-response","505","607640","0.0-1.0-674.0-0.0","0","0","39536","","null","","","null","74","","","","","","","","","","","","","","","",""
"","ITI","","html-keyboard-response","506","608648","0.0-1.0-675.0","0","0","39536","","null","","","null","74","","","","","","","","","","","","","","","NaN",""
"","S1","","html-keyboard-response","507","608805","0.0-1.0-677.0","0","0","39536","","null","","","null","75","","","","","","","","","","","","","","","",""
"","ISI","","html-keyboard-response","508","610822","0.0-1.0-678.0","0","0","39536","","null","","","null","75","NaN","","","","","","","","","","","","","","",""
"","S2","","html-keyboard-response","509","610979","0.0-1.0-679.0","0","0","39536","","null","","","null","75","","NaN","","","","","","","","","","","","","",""
"","response","","html-keyboard-response","510","611607","0.0-1.0-680.0-0.0","0","0","39536","","623","","","68","75","","","2","75","training","adjacent","CD","3","4","M.jpg","P.jpg","1","1","1","",""
"","feedback","","html-keyboard-response","511","612615","0.0-1.0-681.0-0.0","0","0","39536","","null","","","null","75","","","","","","","","","","","","","","","",""
"","ITI","","html-keyboard-response","512","613623","0.0-1.0-684.0","0","0","39536","","null","","","null","75","","","","","","","","","","","","","","","NaN",""
"","S1","","html-keyboard-response","513","613780","0.0-1.0-686.0","0","0","39536","","null","","","null","76","","","","","","","","","","","","","","","",""
"","ISI","","html-keyboard-response","514","615792","0.0-1.0-687.0","0","0","39536","","null","","","null","76","NaN","","","","","","","","","","","","","","",""
"","S2","","html-keyboard-response","515","615949","0.0-1.0-688.0","0","0","39536","","null","","","null","76","","NaN","","","","","","","","","","","","","",""
"","response","","html-keyboard-response","516","617059","0.0-1.0-689.0-0.0","0","0","39536","","1107","","","68","76","","","2","76","training","adjacent","FE","6","5","L.jpg","O.jpg","1","0","0","",""
"","feedback","","html-keyboard-response","517","618074","0.0-1.0-690.0-0.0","0","0","39536","","null","","","null","76","","","","","","","","","","","","","","","",""
"","time_out","","html-keyboard-response","518","620088","0.0-1.0-692.0-0.0","0","0","39536","","null","","","null","76","","","","","","","","","","","","","","","",""
"","ITI","","html-keyboard-response","519","621104","0.0-1.0-693.0","0","0","39536","","null","","","null","76","","","","","","","","","","","","","","","NaN",""
"","S1","","html-keyboard-response","520","621261","0.0-1.0-695.0","0","0","39536","","null","","","null","77","","","","","","","","","","","","","","","",""
"","ISI","","html-keyboard-response","521","623277","0.0-1.0-696.0","0","0","39536","","null","","","null","77","NaN","","","","","","","","","","","","","","",""
"","S2","","html-keyboard-response","522","623434","0.0-1.0-697.0","0","0","39536","","null","","","null","77","","NaN","","","","","","","","","","","","","",""
"","response","","html-keyboard-response","523","624183","0.0-1.0-698.0-0.0","0","0","39536","","745","","","75","77","","","2","77","training","adjacent","FE","6","5","L.jpg","O.jpg","0","0","1","",""
"","feedback","","html-keyboard-response","524","625192","0.0-1.0-699.0-0.0","0","0","39536","","null","","","null","77","","","","","","","","","","","","","","","",""
"","ITI","","html-keyboard-response","525","626202","0.0-1.0-702.0","0","0","39536","","null","","","null","77","","","","","","","","","","","","","","","NaN",""
"","S1","","html-keyboard-response","526","626359","0.0-1.0-704.0","0","0","39536","","null","","","null","78","","","","","","","","","","","","","","","",""
"","ISI","","html-keyboard-response","527","628377","0.0-1.0-705.0","0","0","39536","","null","","","null","78","NaN","","","","","","","","","","","","","","",""
"","S2","","html-keyboard-response","528","628534","0.0-1.0-706.0","0","0","39536","","null","","","null","78","","NaN","","","","","","","","","","","","","",""
"","response","","html-keyboard-response","529","629449","0.0-1.0-707.0-0.0","0","0","39536","","912","","","68","78","","","2","78","training","adjacent","ED","5","4","O.jpg","P.jpg","1","0","0","",""
"","feedback","","html-keyboard-response","530","630467","0.0-1.0-708.0-0.0","0","0","39536","","null","","","null","78","","","","","","","","","","","","","","","",""
"","time_out","","html-keyboard-response","531","632479","0.0-1.0-710.0-0.0","0","0","39536","","null","","","null","78","","","","","","","","","","","","","","","",""
"","ITI","","html-keyboard-response","532","633485","0.0-1.0-711.0","0","0","39536","","null","","","null","78","","","","","","","","","","","","","","","NaN",""
"","S1","","html-keyboard-response","533","633644","0.0-1.0-713.0","0","0","39536","","null","","","null","79","","","","","","","","","","","","","","","",""
"","ISI","","html-keyboard-response","534","635661","0.0-1.0-714.0","0","0","39536","","null","","","null","79","NaN","","","","","","","","","","","","","","",""
"","S2","","html-keyboard-response","535","635818","0.0-1.0-715.0","0","0","39536","","null","","","null","79","","NaN","","","","","","","","","","","","","",""
"","response","","html-keyboard-response","536","636165","0.0-1.0-716.0-0.0","0","0","39536","","343","","","68","79","","","2","79","training","adjacent","GF","7","6","Q.jpg","L.jpg","1","0","0","",""
"","feedback","","html-keyboard-response","537","637185","0.0-1.0-717.0-0.0","0","0","39536","","null","","","null","79","","","","","","","","","","","","","","","",""
"","time_out","","html-keyboard-response","538","639199","0.0-1.0-719.0-0.0","0","0","39536","","null","","","null","79","","","","","","","","","","","","","","","",""
"","ITI","","html-keyboard-response","539","640206","0.0-1.0-720.0","0","0","39536","","null","","","null","79","","","","","","","","","","","","","","","NaN",""
"","S1","","html-keyboard-response","540","640363","0.0-1.0-722.0","0","0","39536","","null","","","null","80","","","","","","","","","","","","","","","",""
"","ISI","","html-keyboard-response","541","642378","0.0-1.0-723.0","0","0","39536","","null","","","null","80","NaN","","","","","","","","","","","","","","",""
"","S2","","html-keyboard-response","542","642536","0.0-1.0-724.0","0","0","39536","","null","","","null","80","","NaN","","","","","","","","","","","","","",""
"","response","","html-keyboard-response","543","643024","0.0-1.0-725.0-0.0","0","0","39536","","484","","","68","80","","","2","80","training","adjacent","CB","3","2","M.jpg","R.jpg","1","0","0","",""
"","feedback","","html-keyboard-response","544","644030","0.0-1.0-726.0-0.0","0","0","39536","","null","","","null","80","","","","","","","","","","","","","","","",""
"","time_out","","html-keyboard-response","545","646048","0.0-1.0-728.0-0.0","0","0","39536","","null","","","null","80","","","","","","","","","","","","","","","",""
"","ITI","","html-keyboard-response","546","647058","0.0-1.0-729.0","0","0","39536","","null","","","null","80","","","","","","","","","","","","","","","NaN",""
"","S1","","html-keyboard-response","547","647215","0.0-1.0-731.0","0","0","39536","","null","","","null","81","","","","","","","","","","","","","","","",""
"","ISI","","html-keyboard-response","548","649230","0.0-1.0-732.0","0","0","39536","","null","","","null","81","NaN","","","","","","","","","","","","","","",""
"","S2","","html-keyboard-response","549","649387","0.0-1.0-733.0","0","0","39536","","null","","","null","81","","NaN","","","","","","","","","","","","","",""
"","response","","html-keyboard-response","550","649941","0.0-1.0-734.0-0.0","0","0","39536","","550","","","68","81","","","2","81","training","adjacent","CD","3","4","M.jpg","P.jpg","1","1","1","",""
"","feedback","","html-keyboard-response","551","650955","0.0-1.0-735.0-0.0","0","0","39536","","null","","","null","81","","","","","","","","","","","","","","","",""
"","ITI","","html-keyboard-response","552","651962","0.0-1.0-738.0","0","0","39536","","null","","","null","81","","","","","","","","","","","","","","","NaN",""
"","S1","","html-keyboard-response","553","652120","0.0-1.0-740.0","0","0","39536","","null","","","null","82","","","","","","","","","","","","","","","",""
"","ISI","","html-keyboard-response","554","654135","0.0-1.0-741.0","0","0","39536","","null","","","null","82","NaN","","","","","","","","","","","","","","",""
"","S2","","html-keyboard-response","555","654293","0.0-1.0-742.0","0","0","39536","","null","","","null","82","","NaN","","","","","","","","","","","","","",""
"","response","","html-keyboard-response","556","655548","0.0-1.0-743.0-0.0","0","0","39536","","1251","","","68","82","","","2","82","training","adjacent","FG","6","7","L.jpg","Q.jpg","1","1","1","",""
"","feedback","","html-keyboard-response","557","656557","0.0-1.0-744.0-0.0","0","0","39536","","null","","","null","82","","","","","","","","","","","","","","","",""
"","ITI","","html-keyboard-response","558","657564","0.0-1.0-747.0","0","0","39536","","null","","","null","82","","","","","","","","","","","","","","","NaN",""
"","S1","","html-keyboard-response","559","657721","0.0-1.0-749.0","0","0","39536","","null","","","null","83","","","","","","","","","","","","","","","",""
"","ISI","","html-keyboard-response","560","659735","0.0-1.0-750.0","0","0","39536","","null","","","null","83","NaN","","","","","","","","","","","","","","",""
"","S2","","html-keyboard-response","561","659892","0.0-1.0-751.0","0","0","39536","","null","","","null","83","","NaN","","","","","","","","","","","","","",""
"","response","","html-keyboard-response","562","660278","0.0-1.0-752.0-0.0","0","0","39536","","381","","","75","83","","","2","83","training","adjacent","GF","7","6","Q.jpg","L.jpg","0","0","1","",""
"","feedback","","html-keyboard-response","563","661292","0.0-1.0-753.0-0.0","0","0","39536","","null","","","null","83","","","","","","","","","","","","","","","",""
"","ITI","","html-keyboard-response","564","662301","0.0-1.0-756.0","0","0","39536","","null","","","null","83","","","","","","","","","","","","","","","NaN",""
"","S1","","html-keyboard-response","565","662457","0.0-1.0-758.0","0","0","39536","","null","","","null","84","","","","","","","","","","","","","","","",""
"","ISI","","html-keyboard-response","566","664474","0.0-1.0-759.0","0","0","39536","","null","","","null","84","NaN","","","","","","","","","","","","","","",""
"","S2","","html-keyboard-response","567","664632","0.0-1.0-760.0","0","0","39536","","null","","","null","84","","NaN","","","","","","","","","","","","","",""
"","response","","html-keyboard-response","568","665102","0.0-1.0-761.0-0.0","0","0","39536","","466","","","68","84","","","2","84","training","adjacent","AB","1","2","N.jpg","R.jpg","1","1","1","",""
"","feedback","","html-keyboard-response","569","666112","0.0-1.0-762.0-0.0","0","0","39536","","null","","","null","84","","","","","","","","","","","","","","","",""
"","ITI","","html-keyboard-response","570","667118","0.0-1.0-765.0","0","0","39536","","null","","","null","84","","","","","","","","","","","","","","","NaN",""
"","S1","","html-keyboard-response","571","667276","0.0-1.0-767.0","0","0","39536","","null","","","null","85","","","","","","","","","","","","","","","",""
"","ISI","","html-keyboard-response","572","669286","0.0-1.0-768.0","0","0","39536","","null","","","null","85","NaN","","","","","","","","","","","","","","",""
"","S2","","html-keyboard-response","573","669440","0.0-1.0-769.0","0","0","39536","","null","","","null","85","","NaN","","","","","","","","","","","","","",""
"","response","","html-keyboard-response","574","670120","0.0-1.0-770.0-0.0","0","0","39536","","676","","","68","85","","","2","85","training","adjacent","EF","5","6","O.jpg","L.jpg","1","1","1","",""
"","feedback","","html-keyboard-response","575","671140","0.0-1.0-771.0-0.0","0","0","39536","","null","","","null","85","","","","","","","","","","","","","","","",""
"","ITI","","html-keyboard-response","576","672148","0.0-1.0-774.0","0","0","39536","","null","","","null","85","","","","","","","","","","","","","","","NaN",""
"","S1","","html-keyboard-response","577","672306","0.0-1.0-776.0","0","0","39536","","null","","","null","86","","","","","","","","","","","","","","","",""
"","ISI","","html-keyboard-response","578","674319","0.0-1.0-777.0","0","0","39536","","null","","","null","86","NaN","","","","","","","","","","","","","","",""
"","S2","","html-keyboard-response","579","674476","0.0-1.0-778.0","0","0","39536","","null","","","null","86","","NaN","","","","","","","","","","","","","",""
