"success","ttype","start_time","trial_type","trial_index","time_elapsed","internal_node_id","warning","missed_checkup","PID","view_history","rt","responses","repeat_instructions","key_press","index","keypress_isi","keypress_S2","block","trial_num","phase","group_type","pair_type","S1_stim","S2_stim","S1_img","S2_img","S1_chosen","S1_higher","accuracy","keypress_iti","total_bonus_tally"
"true","full_screen","d08012022hr1545","fullscreen","0","6169","0.0-0.0","0","0","97856","","","","","","","","","","","","","","","","","","","","","",""
"","instructions","","instructions","1","25305","0.0-1.0-0.0-0.0","0","0","97856","[{""page_index"":0,""viewing_time"":6923},{""page_index"":1,""viewing_time"":42},{""page_index"":2,""viewing_time"":7878},{""page_index"":3,""viewing_time"":4290}]","19134","","","","","","","","","","","","","","","","","","","",""
"","comprehension_check","","survey-multi-choice","2","40186","0.0-1.0-0.0-1.0","0","0","97856","","14874","{""Q0"":""True"",""Q1"":""K"",""Q2"":""When you see the prompt 'MAKE A CHOICE' after the second image was presented"",""Q3"":""Green mark"",""Q4"":""either D or K""}","1","","","","","","","","","","","","","","","","","",""
"","missed_instruction_checkup","","html-keyboard-response","3","41964","0.0-1.0-0.0-2.0-0.0","0","1","97856","","1773","","","32","","","","","","","","","","","","","","","","",""
"","instructions","","instructions","4","55742","0.0-1.0-0.1-0.1","0","0","97856","[{""page_index"":0,""viewing_time"":4388},{""page_index"":1,""viewing_time"":3939},{""page_index"":2,""viewing_time"":2402},{""page_index"":3,""viewing_time"":3048}]","13777","","","","","","","","","","","","","","","","","","","",""
"","comprehension_check","","survey-multi-choice","5","68912","0.0-1.0-0.1-1.1","0","0","97856","","13166","{""Q0"":""True"",""Q1"":""K"",""Q2"":""When you see the prompt 'MAKE A CHOICE' after the second image was presented"",""Q3"":""Green mark"",""Q4"":""either D or K""}","1","","","","","","","","","","","","","","","","","",""
"","missed_instruction_checkup","","html-keyboard-response","6","71994","0.0-1.0-0.1-2.1-0.1","0","1","97856","","3079","","","32","","","","","","","","","","","","","","","","",""
"","instructions","","instructions","7","84053","0.0-1.0-0.2-0.2","0","0","97856","[{""page_index"":0,""viewing_time"":2247},{""page_index"":1,""viewing_time"":7040},{""page_index"":2,""viewing_time"":1441},{""page_index"":3,""viewing_time"":1330}]","12058","","","","","","","","","","","","","","","","","","","",""
"","comprehension_check","","survey-multi-choice","8","92095","0.0-1.0-0.2-1.2","0","0","97856","","8036","{""Q0"":""True"",""Q1"":""D"",""Q2"":""When you see the prompt 'MAKE A CHOICE' after the second image was presented"",""Q3"":""Green mark"",""Q4"":""either D or K""}","0","","","","","","","","","","","","","","","","","",""
"","start_exp","","html-keyboard-response","9","96592","0.0-1.0-1.0","0","0","97856","","4494","","","32","","","","","","","","","","","","","","","","",""
"","S1","","html-keyboard-response","10","96844","0.0-1.0-2.0","0","0","97856","","null","","","null","0","","","","","","","","","","","","","","","",""
"","ISI","","html-keyboard-response","11","98846","0.0-1.0-3.0","0","0","97856","","null","","","null","0","NaN","","","","","","","","","","","","","","",""
"","S2","","html-keyboard-response","12","99097","0.0-1.0-4.0","0","0","97856","","null","","","null","0","","NaN","","","","","","","","","","","","","",""
"","response","","html-keyboard-response","13","100051","0.0-1.0-5.0","0","0","97856","","953","","","75","0","","","1","0","training","adjacent","CD","3","4","Q.jpg","N.jpg","0","1","0","",""
"","feedback","","html-keyboard-response","14","101053","0.0-1.0-6.0-0.0","0","0","97856","","null","","","null","0","","","","","","","","","","","","","","","",""
"","time_out","","html-keyboard-response","15","103054","0.0-1.0-8.0-0.0","0","0","97856","","null","","","null","0","","","","","","","","","","","","","","","",""
"","ITI","","html-keyboard-response","16","104057","0.0-1.0-9.0","0","0","97856","","178","","","68","0","","","","","","","","","","","","","","","d",""
"","S1","","html-keyboard-response","17","104310","0.0-1.0-11.0","0","0","97856","","null","","","null","1","","","","","","","","","","","","","","","",""
"","ISI","","html-keyboard-response","18","106312","0.0-1.0-12.0","0","0","97856","","1480","","","75","1","k","","","","","","","","","","","","","","",""
"","S2","","html-keyboard-response","19","106563","0.0-1.0-13.0","0","0","97856","","null","","","null","1","","NaN","","","","","","","","","","","","","",""
"","response","","html-keyboard-response","20","106924","0.0-1.0-14.0","0","0","97856","","359","","","75","1","","","1","1","training","adjacent","ED","5","4","L.jpg","N.jpg","0","0","1","",""
"","feedback","","html-keyboard-response","21","107928","0.0-1.0-15.0-0.0","0","0","97856","","null","","","null","1","","","","","","","","","","","","","","","",""
"","ITI","","html-keyboard-response","22","108930","0.0-1.0-18.0","0","0","97856","","null","","","null","1","","","","","","","","","","","","","","","NaN",""
"","S1","","html-keyboard-response","23","109181","0.0-1.0-20.0","0","0","97856","","null","","","null","2","","","","","","","","","","","","","","","",""
"","ISI","","html-keyboard-response","24","111183","0.0-1.0-21.0","0","0","97856","","610","","","75","2","k","","","","","","","","","","","","","","",""
"","S2","","html-keyboard-response","25","111435","0.0-1.0-22.0","0","0","97856","","168","","","75","2","","k","","","","","","","","","","","","","",""
"","response","","html-keyboard-response","26","111862","0.0-1.0-23.0","0","0","97856","","426","","","75","2","","","1","2","training","adjacent","FE","6","5","P.jpg","L.jpg","0","0","1","",""
"","feedback","","html-keyboard-response","27","112864","0.0-1.0-24.0-0.0","0","0","97856","","null","","","null","2","","","","","","","","","","","","","","","",""
"","ITI","","html-keyboard-response","28","113865","0.0-1.0-27.0","0","0","97856","","59","","","75","2","","","","","","","","","","","","","","","k",""
"","S1","","html-keyboard-response","29","114117","0.0-1.0-29.0","0","0","97856","","null","","","null","3","","","","","","","","","","","","","","","",""
"","ISI","","html-keyboard-response","30","116120","0.0-1.0-30.0","0","0","97856","","494","","","75","3","k","","","","","","","","","","","","","","",""
"","S2","","html-keyboard-response","31","116374","0.0-1.0-31.0","0","0","97856","","141","","","75","3","","k","","","","","","","","","","","","","",""
"","response","","html-keyboard-response","32","116731","0.0-1.0-32.0","0","0","97856","","354","","","75","3","","","1","3","training","adjacent","FG","6","7","P.jpg","M.jpg","0","1","0","",""
"","feedback","","html-keyboard-response","33","117733","0.0-1.0-33.0-0.0","0","0","97856","","null","","","null","3","","","","","","","","","","","","","","","",""
"","time_out","","html-keyboard-response","34","119739","0.0-1.0-35.0-0.0","0","0","97856","","null","","","null","3","","","","","","","","","","","","","","","",""
"","ITI","","html-keyboard-response","35","120740","0.0-1.0-36.0","0","0","97856","","245","","","68","3","","","","","","","","","","","","","","","d",""
"","S1","","html-keyboard-response","36","120991","0.0-1.0-38.0","0","0","97856","","null","","","null","4","","","","","","","","","","","","","","","",""
"","ISI","","html-keyboard-response","37","122992","0.0-1.0-39.0","0","0","97856","","211","","","75","4","k","","","","","","","","","","","","","","",""
"","S2","","html-keyboard-response","38","123245","0.0-1.0-40.0","0","0","97856","","null","","","null","4","","NaN","","","","","","","","","","","","","",""
"","response","","html-keyboard-response","39","123803","0.0-1.0-41.0","0","0","97856","","557","","","75","4","","","1","4","training","adjacent","CB","3","2","Q.jpg","R.jpg","0","0","1","",""
"","feedback","","html-keyboard-response","40","124806","0.0-1.0-42.0-0.0","0","0","97856","","null","","","null","4","","","","","","","","","","","","","","","",""
"","ITI","","html-keyboard-response","41","125807","0.0-1.0-45.0","0","0","97856","","757","","","75","4","","","","","","","","","","","","","","","k",""
"","S1","","html-keyboard-response","42","126059","0.0-1.0-47.0","0","0","97856","","null","","","null","5","","","","","","","","","","","","","","","",""
"","ISI","","html-keyboard-response","43","128061","0.0-1.0-48.0","0","0","97856","","453","","","75","5","k","","","","","","","","","","","","","","",""
"","S2","","html-keyboard-response","44","128312","0.0-1.0-49.0","0","0","97856","","null","","","null","5","","NaN","","","","","","","","","","","","","",""
"","response","","html-keyboard-response","45","128753","0.0-1.0-50.0","0","0","97856","","439","","","68","5","","","1","5","training","adjacent","GF","7","6","M.jpg","P.jpg","1","0","0","",""
"","feedback","","html-keyboard-response","46","129755","0.0-1.0-51.0-0.0","0","0","97856","","null","","","null","5","","","","","","","","","","","","","","","",""
"","time_out","","html-keyboard-response","47","131757","0.0-1.0-53.0-0.0","0","0","97856","","null","","","null","5","","","","","","","","","","","","","","","",""
"","ITI","","html-keyboard-response","48","132758","0.0-1.0-54.0","0","0","97856","","115","","","75","5","","","","","","","","","","","","","","","k",""
"","S1","","html-keyboard-response","49","133010","0.0-1.0-56.0","0","0","97856","","null","","","null","6","","","","","","","","","","","","","","","",""
"","ISI","","html-keyboard-response","50","135011","0.0-1.0-57.0","0","0","97856","","130","","","75","6","k","","","","","","","","","","","","","","",""
"","S2","","html-keyboard-response","51","135262","0.0-1.0-58.0","0","0","97856","","null","","","null","6","","NaN","","","","","","","","","","","","","",""
"","response","","html-keyboard-response","52","135687","0.0-1.0-59.0","0","0","97856","","423","","","75","6","","","1","6","training","adjacent","BA","2","1","R.jpg","O.jpg","0","0","1","",""
"","feedback","","html-keyboard-response","53","136689","0.0-1.0-60.0-0.0","0","0","97856","","null","","","null","6","","","","","","","","","","","","","","","",""
"","ITI","","html-keyboard-response","54","137691","0.0-1.0-63.0","0","0","97856","","523","","","75","6","","","","","","","","","","","","","","","k",""
"","S1","","html-keyboard-response","55","137943","0.0-1.0-65.0","0","0","97856","","null","","","null","7","","","","","","","","","","","","","","","",""
"","ISI","","html-keyboard-response","56","139945","0.0-1.0-66.0","0","0","97856","","738","","","75","7","k","","","","","","","","","","","","","","",""
"","S2","","html-keyboard-response","57","140197","0.0-1.0-67.0","0","0","97856","","null","","","null","7","","NaN","","","","","","","","","","","","","",""
"","response","","html-keyboard-response","58","140683","0.0-1.0-68.0","0","0","97856","","485","","","68","7","","","1","7","training","adjacent","ED","5","4","L.jpg","N.jpg","1","0","0","",""
"","feedback","","html-keyboard-response","59","141695","0.0-1.0-69.0-0.0","0","0","97856","","null","","","null","7","","","","","","","","","","","","","","","",""
"","time_out","","html-keyboard-response","60","143699","0.0-1.0-71.0-0.0","0","0","97856","","null","","","null","7","","","","","","","","","","","","","","","",""
"","ITI","","html-keyboard-response","61","144702","0.0-1.0-72.0","0","0","97856","","434","","","75","7","","","","","","","","","","","","","","","k",""
"","S1","","html-keyboard-response","62","144953","0.0-1.0-74.0","0","0","97856","","null","","","null","8","","","","","","","","","","","","","","","",""
"","ISI","","html-keyboard-response","63","146954","0.0-1.0-75.0","0","0","97856","","459","","","75","8","k","","","","","","","","","","","","","","",""
"","S2","","html-keyboard-response","64","147204","0.0-1.0-76.0","0","0","97856","","null","","","null","8","","NaN","","","","","","","","","","","","","",""
"","response","","html-keyboard-response","65","148113","0.0-1.0-77.0","0","0","97856","","908","","","75","8","","","1","8","training","adjacent","CB","3","2","Q.jpg","R.jpg","0","0","1","",""
"","feedback","","html-keyboard-response","66","149115","0.0-1.0-78.0-0.0","0","0","97856","","null","","","null","8","","","","","","","","","","","","","","","",""
"","ITI","","html-keyboard-response","67","150119","0.0-1.0-81.0","0","0","97856","","null","","","null","8","","","","","","","","","","","","","","","NaN",""
"","S1","","html-keyboard-response","68","150371","0.0-1.0-83.0","0","0","97856","","null","","","null","9","","","","","","","","","","","","","","","",""
"","ISI","","html-keyboard-response","69","152371","0.0-1.0-84.0","0","0","97856","","1482","","","68","9","d","","","","","","","","","","","","","","",""
"","S2","","html-keyboard-response","70","152623","0.0-1.0-85.0","0","0","97856","","null","","","null","9","","NaN","","","","","","","","","","","","","",""
"","response","","html-keyboard-response","71","153294","0.0-1.0-86.0","0","0","97856","","669","","","68","9","","","1","9","training","adjacent","BC","2","3","R.jpg","Q.jpg","1","1","1","",""
"","feedback","","html-keyboard-response","72","154295","0.0-1.0-87.0-0.0","0","0","97856","","null","","","null","9","","","","","","","","","","","","","","","",""
"","ITI","","html-keyboard-response","73","155296","0.0-1.0-90.0","0","0","97856","","null","","","null","9","","","","","","","","","","","","","","","NaN",""
"","S1","","html-keyboard-response","74","155547","0.0-1.0-92.0","0","0","97856","","null","","","null","10","","","","","","","","","","","","","","","",""
"","ISI","","html-keyboard-response","75","157550","0.0-1.0-93.0","0","0","97856","","495","","","75","10","k","","","","","","","","","","","","","","",""
"","S2","","html-keyboard-response","76","157802","0.0-1.0-94.0","0","0","97856","","null","","","null","10","","NaN","","","","","","","","","","","","","",""
"","response","","html-keyboard-response","77","158325","0.0-1.0-95.0","0","0","97856","","520","","","75","10","","","1","10","training","adjacent","AB","1","2","O.jpg","R.jpg","0","1","0","",""
"","feedback","","html-keyboard-response","78","159327","0.0-1.0-96.0-0.0","0","0","97856","","null","","","null","10","","","","","","","","","","","","","","","",""
"","time_out","","html-keyboard-response","79","161328","0.0-1.0-98.0-0.0","0","0","97856","","null","","","null","10","","","","","","","","","","","","","","","",""
"","ITI","","html-keyboard-response","80","162330","0.0-1.0-99.0","0","0","97856","","null","","","null","10","","","","","","","","","","","","","","","NaN",""
"","S1","","html-keyboard-response","81","162581","0.0-1.0-101.0","0","0","97856","","null","","","null","11","","","","","","","","","","","","","","","",""
"","ISI","","html-keyboard-response","82","164582","0.0-1.0-102.0","0","0","97856","","null","","","null","11","NaN","","","","","","","","","","","","","","",""
"","S2","","html-keyboard-response","83","164835","0.0-1.0-103.0","0","0","97856","","null","","","null","11","","NaN","","","","","","","","","","","","","",""
"","response","","html-keyboard-response","84","165843","0.0-1.0-104.0","0","0","97856","","1006","","","75","11","","","1","11","training","adjacent","FG","6","7","P.jpg","M.jpg","0","1","0","",""
"","feedback","","html-keyboard-response","85","166845","0.0-1.0-105.0-0.0","0","0","97856","","null","","","null","11","","","","","","","","","","","","","","","",""
"","time_out","","html-keyboard-response","86","168848","0.0-1.0-107.0-0.0","0","0","97856","","null","","","null","11","","","","","","","","","","","","","","","",""
"","ITI","","html-keyboard-response","87","169850","0.0-1.0-108.0","0","0","97856","","null","","","null","11","","","","","","","","","","","","","","","NaN",""
"","S1","","html-keyboard-response","88","170102","0.0-1.0-110.0","0","0","97856","","null","","","null","12","","","","","","","","","","","","","","","",""
"","ISI","","html-keyboard-response","89","172103","0.0-1.0-111.0","0","0","97856","","null","","","null","12","NaN","","","","","","","","","","","","","","",""
"","S2","","html-keyboard-response","90","172354","0.0-1.0-112.0","0","0","97856","","null","","","null","12","","NaN","","","","","","","","","","","","","",""
"","response","","html-keyboard-response","91","173084","0.0-1.0-113.0","0","0","97856","","729","","","75","12","","","1","12","training","adjacent","EF","5","6","L.jpg","P.jpg","0","1","0","",""
"","feedback","","html-keyboard-response","92","174086","0.0-1.0-114.0-0.0","0","0","97856","","null","","","null","12","","","","","","","","","","","","","","","",""
"","time_out","","html-keyboard-response","93","176087","0.0-1.0-116.0-0.0","0","0","97856","","null","","","null","12","","","","","","","","","","","","","","","",""
"","ITI","","html-keyboard-response","94","177089","0.0-1.0-117.0","0","0","97856","","213","","","68","12","","","","","","","","","","","","","","","d",""
"","S1","","html-keyboard-response","95","177342","0.0-1.0-119.0","0","0","97856","","null","","","null","13","","","","","","","","","","","","","","","",""
"","ISI","","html-keyboard-response","96","179343","0.0-1.0-120.0","0","0","97856","","1911","","","68","13","d","","","","","","","","","","","","","","",""
"","S2","","html-keyboard-response","97","179595","0.0-1.0-121.0","0","0","97856","","null","","","null","13","","NaN","","","","","","","","","","","","","",""
"","response","","html-keyboard-response","98","179650","0.0-1.0-122.0","0","0","97856","","54","","","68","13","","","1","13","training","adjacent","DC","4","3","N.jpg","Q.jpg","1","0","0","",""
"","feedback","","html-keyboard-response","99","180667","0.0-1.0-123.0-0.0","0","0","97856","","null","","","null","13","","","","","","","","","","","","","","","",""
"","time_out","","html-keyboard-response","100","182668","0.0-1.0-125.0-0.0","0","0","97856","","null","","","null","13","","","","","","","","","","","","","","","",""
"","ITI","","html-keyboard-response","101","183712","0.0-1.0-126.0","0","0","97856","","275","","","75","13","","","","","","","","","","","","","","","k",""
"","S1","","html-keyboard-response","102","183963","0.0-1.0-128.0","0","0","97856","","null","","","null","14","","","","","","","","","","","","","","","",""
"","ISI","","html-keyboard-response","103","185966","0.0-1.0-129.0","0","0","97856","","59","","","75","14","k","","","","","","","","","","","","","","",""
"","S2","","html-keyboard-response","104","186218","0.0-1.0-130.0","0","0","97856","","null","","","null","14","","NaN","","","","","","","","","","","","","",""
"","response","","html-keyboard-response","105","186614","0.0-1.0-131.0","0","0","97856","","395","","","75","14","","","1","14","training","adjacent","BA","2","1","R.jpg","O.jpg","0","0","1","",""
"","feedback","","html-keyboard-response","106","187658","0.0-1.0-132.0-0.0","0","0","97856","","null","","","null","14","","","","","","","","","","","","","","","",""
"","ITI","","html-keyboard-response","107","188678","0.0-1.0-135.0","0","0","97856","","null","","","null","14","","","","","","","","","","","","","","","NaN",""
"","S1","","html-keyboard-response","108","188930","0.0-1.0-137.0","0","0","97856","","null","","","null","15","","","","","","","","","","","","","","","",""
"","ISI","","html-keyboard-response","109","190931","0.0-1.0-138.0","0","0","97856","","543","","","75","15","k","","","","","","","","","","","","","","",""
"","S2","","html-keyboard-response","110","191182","0.0-1.0-139.0","0","0","97856","","null","","","null","15","","NaN","","","","","","","","","","","","","",""
"","response","","html-keyboard-response","111","191705","0.0-1.0-140.0","0","0","97856","","522","","","75","15","","","1","15","training","adjacent","CD","3","4","Q.jpg","N.jpg","0","1","0","",""
"","feedback","","html-keyboard-response","112","192707","0.0-1.0-141.0-0.0","0","0","97856","","null","","","null","15","","","","","","","","","","","","","","","",""
"","time_out","","html-keyboard-response","113","194707","0.0-1.0-143.0-0.0","0","0","97856","","null","","","null","15","","","","","","","","","","","","","","","",""
"","ITI","","html-keyboard-response","114","195708","0.0-1.0-144.0","0","0","97856","","167","","","68","15","","","","","","","","","","","","","","","d",""
"","S1","","html-keyboard-response","115","195960","0.0-1.0-146.0","0","0","97856","","null","","","null","16","","","","","","","","","","","","","","","",""
"","ISI","","html-keyboard-response","116","197961","0.0-1.0-147.0","0","0","97856","","494","","","75","16","k","","","","","","","","","","","","","","",""
"","S2","","html-keyboard-response","117","198214","0.0-1.0-148.0","0","0","97856","","null","","","null","16","","NaN","","","","","","","","","","","","","",""
"","response","","html-keyboard-response","118","198966","0.0-1.0-149.0","0","0","97856","","751","","","75","16","","","1","16","training","adjacent","FG","6","7","P.jpg","M.jpg","0","1","0","",""
"","feedback","","html-keyboard-response","119","199969","0.0-1.0-150.0-0.0","0","0","97856","","null","","","null","16","","","","","","","","","","","","","","","",""
"","time_out","","html-keyboard-response","120","201972","0.0-1.0-152.0-0.0","0","0","97856","","null","","","null","16","","","","","","","","","","","","","","","",""
"","ITI","","html-keyboard-response","121","202973","0.0-1.0-153.0","0","0","97856","","null","","","null","16","","","","","","","","","","","","","","","NaN",""
"","S1","","html-keyboard-response","122","203226","0.0-1.0-155.0","0","0","97856","","null","","","null","17","","","","","","","","","","","","","","","",""
"","ISI","","html-keyboard-response","123","205257","0.0-1.0-156.0","0","0","97856","","1569","","","68","17","d","","","","","","","","","","","","","","",""
"","S2","","html-keyboard-response","124","205508","0.0-1.0-157.0","0","0","97856","","null","","","null","17","","NaN","","","","","","","","","","","","","",""
"","response","","html-keyboard-response","125","206504","0.0-1.0-158.0","0","0","97856","","994","","","75","17","","","1","17","training","adjacent","DE","4","5","N.jpg","L.jpg","0","1","0","",""
"","feedback","","html-keyboard-response","126","207505","0.0-1.0-159.0-0.0","0","0","97856","","null","","","null","17","","","","","","","","","","","","","","","",""
"","time_out","","html-keyboard-response","127","209508","0.0-1.0-161.0-0.0","0","0","97856","","null","","","null","17","","","","","","","","","","","","","","","",""
"","ITI","","html-keyboard-response","128","210510","0.0-1.0-162.0","0","0","97856","","null","","","null","17","","","","","","","","","","","","","","","NaN",""
"","S1","","html-keyboard-response","129","210800","0.0-1.0-164.0","0","0","97856","","null","","","null","18","","","","","","","","","","","","","","","",""
"","ISI","","html-keyboard-response","130","212800","0.0-1.0-165.0","0","0","97856","","579","","","75","18","k","","","","","","","","","","","","","","",""
"","S2","","html-keyboard-response","131","213052","0.0-1.0-166.0","0","0","97856","","null","","","null","18","","NaN","","","","","","","","","","","","","",""
"","response","","html-keyboard-response","132","213584","0.0-1.0-167.0","0","0","97856","","531","","","75","18","","","1","18","training","adjacent","BA","2","1","R.jpg","O.jpg","0","0","1","",""
"","feedback","","html-keyboard-response","133","214588","0.0-1.0-168.0-0.0","0","0","97856","","null","","","null","18","","","","","","","","","","","","","","","",""
"","ITI","","html-keyboard-response","134","215589","0.0-1.0-171.0","0","0","97856","","745","","","68","18","","","","","","","","","","","","","","","d",""
"","S1","","html-keyboard-response","135","215841","0.0-1.0-173.0","0","0","97856","","null","","","null","19","","","","","","","","","","","","","","","",""
"","ISI","","html-keyboard-response","136","217843","0.0-1.0-174.0","0","0","97856","","null","","","null","19","NaN","","","","","","","","","","","","","","",""
"","S2","","html-keyboard-response","137","218096","0.0-1.0-175.0","0","0","97856","","null","","","null","19","","NaN","","","","","","","","","","","","","",""
"","response","","html-keyboard-response","138","218585","0.0-1.0-176.0","0","0","97856","","488","","","68","19","","","1","19","training","adjacent","CB","3","2","Q.jpg","R.jpg","1","0","0","",""
"","feedback","","html-keyboard-response","139","219591","0.0-1.0-177.0-0.0","0","0","97856","","null","","","null","19","","","","","","","","","","","","","","","",""
"","time_out","","html-keyboard-response","140","221592","0.0-1.0-179.0-0.0","0","0","97856","","null","","","null","19","","","","","","","","","","","","","","","",""
"","ITI","","html-keyboard-response","141","222594","0.0-1.0-180.0","0","0","97856","","null","","","null","19","","","","","","","","","","","","","","","NaN",""
"","S1","","html-keyboard-response","142","222845","0.0-1.0-182.0","0","0","97856","","null","","","null","20","","","","","","","","","","","","","","","",""
"","ISI","","html-keyboard-response","143","224847","0.0-1.0-183.0","0","0","97856","","null","","","null","20","NaN","","","","","","","","","","","","","","",""
"","S2","","html-keyboard-response","144","225099","0.0-1.0-184.0","0","0","97856","","49","","","68","20","","d","","","","","","","","","","","","","",""
"","response","","html-keyboard-response","145","225786","0.0-1.0-185.0","0","0","97856","","685","","","68","20","","","1","20","training","adjacent","DC","4","3","N.jpg","Q.jpg","1","0","0","",""
"","feedback","","html-keyboard-response","146","226787","0.0-1.0-186.0-0.0","0","0","97856","","null","","","null","20","","","","","","","","","","","","","","","",""
"","time_out","","html-keyboard-response","147","228789","0.0-1.0-188.0-0.0","0","0","97856","","null","","","null","20","","","","","","","","","","","","","","","",""
"","ITI","","html-keyboard-response","148","229791","0.0-1.0-189.0","0","0","97856","","null","","","null","20","","","","","","","","","","","","","","","NaN",""
"","S1","","html-keyboard-response","149","230043","0.0-1.0-191.0","0","0","97856","","null","","","null","21","","","","","","","","","","","","","","","",""
"","ISI","","html-keyboard-response","150","232045","0.0-1.0-192.0","0","0","97856","","null","","","null","21","NaN","","","","","","","","","","","","","","",""
"","S2","","html-keyboard-response","151","232297","0.0-1.0-193.0","0","0","97856","","null","","","null","21","","NaN","","","","","","","","","","","","","",""
"","response","","html-keyboard-response","152","232745","0.0-1.0-194.0","0","0","97856","","447","","","75","21","","","1","21","training","adjacent","CD","3","4","Q.jpg","N.jpg","0","1","0","",""
"","feedback","","html-keyboard-response","153","233747","0.0-1.0-195.0-0.0","0","0","97856","","null","","","null","21","","","","","","","","","","","","","","","",""
"","time_out","","html-keyboard-response","154","235748","0.0-1.0-197.0-0.0","0","0","97856","","null","","","null","21","","","","","","","","","","","","","","","",""
"","ITI","","html-keyboard-response","155","236747","0.0-1.0-198.0","0","0","97856","","196","","","75","21","","","","","","","","","","","","","","","k",""
"","S1","","html-keyboard-response","156","236999","0.0-1.0-200.0","0","0","97856","","null","","","null","22","","","","","","","","","","","","","","","",""
"","ISI","","html-keyboard-response","157","239001","0.0-1.0-201.0","0","0","97856","","null","","","null","22","NaN","","","","","","","","","","","","","","",""
"","S2","","html-keyboard-response","158","239253","0.0-1.0-202.0","0","0","97856","","null","","","null","22","","NaN","","","","","","","","","","","","","",""
"","response","","html-keyboard-response","159","239695","0.0-1.0-203.0","0","0","97856","","440","","","68","22","","","1","22","training","adjacent","CB","3","2","Q.jpg","R.jpg","1","0","0","",""
"","feedback","","html-keyboard-response","160","240695","0.0-1.0-204.0-0.0","0","0","97856","","null","","","null","22","","","","","","","","","","","","","","","",""
"","time_out","","html-keyboard-response","161","242697","0.0-1.0-206.0-0.0","0","0","97856","","null","","","null","22","","","","","","","","","","","","","","","",""
"","ITI","","html-keyboard-response","162","243698","0.0-1.0-207.0","0","0","97856","","306","","","75","22","","","","","","","","","","","","","","","k",""
"","S1","","html-keyboard-response","163","243950","0.0-1.0-209.0","0","0","97856","","null","","","null","23","","","","","","","","","","","","","","","",""
"","ISI","","html-keyboard-response","164","245952","0.0-1.0-210.0","0","0","97856","","23","","","75","23","k","","","","","","","","","","","","","","",""
"","S2","","html-keyboard-response","165","246204","0.0-1.0-211.0","0","0","97856","","null","","","null","23","","NaN","","","","","","","","","","","","","",""
"","response","","html-keyboard-response","166","246214","0.0-1.0-212.0","0","0","97856","","9","","","75","23","","","1","23","training","adjacent","FE","6","5","P.jpg","L.jpg","0","0","1","",""
"","feedback","","html-keyboard-response","167","247216","0.0-1.0-213.0-0.0","0","0","97856","","null","","","null","23","","","","","","","","","","","","","","","",""
"","ITI","","html-keyboard-response","168","248217","0.0-1.0-216.0","0","0","97856","","347","","","75","23","","","","","","","","","","","","","","","k",""
"","S1","","html-keyboard-response","169","248470","0.0-1.0-218.0","0","0","97856","","null","","","null","24","","","","","","","","","","","","","","","",""
"","ISI","","html-keyboard-response","170","250470","0.0-1.0-219.0","0","0","97856","","644","","","75","24","k","","","","","","","","","","","","","","",""
"","S2","","html-keyboard-response","171","250723","0.0-1.0-220.0","0","0","97856","","null","","","null","24","","NaN","","","","","","","","","","","","","",""
"","response","","html-keyboard-response","172","251379","0.0-1.0-221.0","0","0","97856","","655","","","75","24","","","1","24","training","adjacent","BC","2","3","R.jpg","Q.jpg","0","1","0","",""
"","feedback","","html-keyboard-response","173","252381","0.0-1.0-222.0-0.0","0","0","97856","","null","","","null","24","","","","","","","","","","","","","","","",""
"","time_out","","html-keyboard-response","174","254382","0.0-1.0-224.0-0.0","0","0","97856","","null","","","null","24","","","","","","","","","","","","","","","",""
"","ITI","","html-keyboard-response","175","255385","0.0-1.0-225.0","0","0","97856","","253","","","68","24","","","","","","","","","","","","","","","d",""
"","S1","","html-keyboard-response","176","255640","0.0-1.0-227.0","0","0","97856","","null","","","null","25","","","","","","","","","","","","","","","",""
"","ISI","","html-keyboard-response","177","257657","0.0-1.0-228.0","0","0","97856","","385","","","75","25","k","","","","","","","","","","","","","","",""
"","S2","","html-keyboard-response","178","257909","0.0-1.0-229.0","0","0","97856","","181","","","75","25","","k","","","","","","","","","","","","","",""
"","response","","html-keyboard-response","179","258301","0.0-1.0-230.0","0","0","97856","","390","","","75","25","","","1","25","training","adjacent","AB","1","2","O.jpg","R.jpg","0","1","0","",""
"","feedback","","html-keyboard-response","180","259303","0.0-1.0-231.0-0.0","0","0","97856","","null","","","null","25","","","","","","","","","","","","","","","",""
"","time_out","","html-keyboard-response","181","261304","0.0-1.0-233.0-0.0","0","0","97856","","null","","","null","25","","","","","","","","","","","","","","","",""
"","ITI","","html-keyboard-response","182","262306","0.0-1.0-234.0","0","0","97856","","172","","","68","25","","","","","","","","","","","","","","","d",""
"","S1","","html-keyboard-response","183","262570","0.0-1.0-236.0","0","0","97856","","null","","","null","26","","","","","","","","","","","","","","","",""
"","ISI","","html-keyboard-response","184","264572","0.0-1.0-237.0","0","0","97856","","338","","","68","26","d","","","","","","","","","","","","","","",""
"","S2","","html-keyboard-response","185","264824","0.0-1.0-238.0","0","0","97856","","null","","","null","26","","NaN","","","","","","","","","","","","","",""
"","response","","html-keyboard-response","186","264909","0.0-1.0-239.0","0","0","97856","","84","","","75","26","","","1","26","training","adjacent","DE","4","5","N.jpg","L.jpg","0","1","0","",""
"","feedback","","html-keyboard-response","187","265911","0.0-1.0-240.0-0.0","0","0","97856","","null","","","null","26","","","","","","","","","","","","","","","",""
"","time_out","","html-keyboard-response","188","267913","0.0-1.0-242.0-0.0","0","0","97856","","null","","","null","26","","","","","","","","","","","","","","","",""
"","ITI","","html-keyboard-response","189","268914","0.0-1.0-243.0","0","0","97856","","285","","","68","26","","","","","","","","","","","","","","","d",""
"","S1","","html-keyboard-response","190","269167","0.0-1.0-245.0","0","0","97856","","null","","","null","27","","","","","","","","","","","","","","","",""
"","ISI","","html-keyboard-response","191","271168","0.0-1.0-246.0","0","0","97856","","543","","","75","27","k","","","","","","","","","","","","","","",""
"","S2","","html-keyboard-response","192","271421","0.0-1.0-247.0","0","0","97856","","null","","","null","27","","NaN","","","","","","","","","","","","","",""
"","response","","html-keyboard-response","193","271459","0.0-1.0-248.0","0","0","97856","","37","","","68","27","","","1","27","training","adjacent","GF","7","6","M.jpg","P.jpg","1","0","0","",""
"","feedback","","html-keyboard-response","194","272461","0.0-1.0-249.0-0.0","0","0","97856","","null","","","null","27","","","","","","","","","","","","","","","",""
"","time_out","","html-keyboard-response","195","274462","0.0-1.0-251.0-0.0","0","0","97856","","null","","","null","27","","","","","","","","","","","","","","","",""
"","ITI","","html-keyboard-response","196","275464","0.0-1.0-252.0","0","0","97856","","745","","","75","27","","","","","","","","","","","","","","","k",""
"","S1","","html-keyboard-response","197","275716","0.0-1.0-254.0","0","0","97856","","null","","","null","28","","","","","","","","","","","","","","","",""
"","ISI","","html-keyboard-response","198","277720","0.0-1.0-255.0","0","0","97856","","461","","","75","28","k","","","","","","","","","","","","","","",""
"","S2","","html-keyboard-response","199","277972","0.0-1.0-256.0","0","0","97856","","null","","","null","28","","NaN","","","","","","","","","","","","","",""
"","response","","html-keyboard-response","200","278479","0.0-1.0-257.0","0","0","97856","","506","","","75","28","","","1","28","training","adjacent","FG","6","7","P.jpg","M.jpg","0","1","0","",""
"","feedback","","html-keyboard-response","201","279479","0.0-1.0-258.0-0.0","0","0","97856","","null","","","null","28","","","","","","","","","","","","","","","",""
"","time_out","","html-keyboard-response","202","281481","0.0-1.0-260.0-0.0","0","0","97856","","null","","","null","28","","","","","","","","","","","","","","","",""
"","ITI","","html-keyboard-response","203","282483","0.0-1.0-261.0","0","0","97856","","367","","","75","28","","","","","","","","","","","","","","","k",""
"","S1","","html-keyboard-response","204","282734","0.0-1.0-263.0","0","0","97856","","null","","","null","29","","","","","","","","","","","","","","","",""
"","ISI","","html-keyboard-response","205","284735","0.0-1.0-264.0","0","0","97856","","109","","","75","29","k","","","","","","","","","","","","","","",""
"","S2","","html-keyboard-response","206","284987","0.0-1.0-265.0","0","0","97856","","null","","","null","29","","NaN","","","","","","","","","","","","","",""
"","response","","html-keyboard-response","207","285389","0.0-1.0-266.0","0","0","97856","","401","","","68","29","","","1","29","training","adjacent","DE","4","5","N.jpg","L.jpg","1","1","1","",""
"","feedback","","html-keyboard-response","208","286392","0.0-1.0-267.0-0.0","0","0","97856","","null","","","null","29","","","","","","","","","","","","","","","",""
"","ITI","","html-keyboard-response","209","287393","0.0-1.0-270.0","0","0","97856","","null","","","null","29","","","","","","","","","","","","","","","NaN",""
"","S1","","html-keyboard-response","210","287646","0.0-1.0-272.0","0","0","97856","","null","","","null","30","","","","","","","","","","","","","","","",""
"","ISI","","html-keyboard-response","211","289648","0.0-1.0-273.0","0","0","97856","","null","","","null","30","NaN","","","","","","","","","","","","","","",""
"","S2","","html-keyboard-response","212","289899","0.0-1.0-274.0","0","0","97856","","null","","","null","30","","NaN","","","","","","","","","","","","","",""
"","response","","html-keyboard-response","213","290588","0.0-1.0-275.0","0","0","97856","","687","","","75","30","","","1","30","training","adjacent","FE","6","5","P.jpg","L.jpg","0","0","1","",""
"","feedback","","html-keyboard-response","214","291591","0.0-1.0-276.0-0.0","0","0","97856","","null","","","null","30","","","","","","","","","","","","","","","",""
"","ITI","","html-keyboard-response","215","292594","0.0-1.0-279.0","0","0","97856","","null","","","null","30","","","","","","","","","","","","","","","NaN",""
"","S1","","html-keyboard-response","216","292843","0.0-1.0-281.0","0","0","97856","","null","","","null","31","","","","","","","","","","","","","","","",""
"","ISI","","html-keyboard-response","217","294845","0.0-1.0-282.0","0","0","97856","","725","","","68","31","d","","","","","","","","","","","","","","",""
"","S2","","html-keyboard-response","218","295098","0.0-1.0-283.0","0","0","97856","","null","","","null","31","","NaN","","","","","","","","","","","","","",""
"","response","","html-keyboard-response","219","296068","0.0-1.0-284.0","0","0","97856","","970","","","68","31","","","1","31","training","adjacent","EF","5","6","L.jpg","P.jpg","1","1","1","",""
"","feedback","","html-keyboard-response","220","297072","0.0-1.0-285.0-0.0","0","0","97856","","null","","","null","31","","","","","","","","","","","","","","","",""
"","ITI","","html-keyboard-response","221","298075","0.0-1.0-288.0","0","0","97856","","null","","","null","31","","","","","","","","","","","","","","","NaN",""
"","S1","","html-keyboard-response","222","298329","0.0-1.0-290.0","0","0","97856","","null","","","null","32","","","","","","","","","","","","","","","",""
"","ISI","","html-keyboard-response","223","300331","0.0-1.0-291.0","0","0","97856","","779","","","75","32","k","","","","","","","","","","","","","","",""
"","S2","","html-keyboard-response","224","300583","0.0-1.0-292.0","0","0","97856","","null","","","null","32","","NaN","","","","","","","","","","","","","",""
"","response","","html-keyboard-response","225","301440","0.0-1.0-293.0","0","0","97856","","855","","","75","32","","","1","32","training","adjacent","DE","4","5","N.jpg","L.jpg","0","1","0","",""
"","feedback","","html-keyboard-response","226","302442","0.0-1.0-294.0-0.0","0","0","97856","","null","","","null","32","","","","","","","","","","","","","","","",""
"","time_out","","html-keyboard-response","227","304443","0.0-1.0-296.0-0.0","0","0","97856","","null","","","null","32","","","","","","","","","","","","","","","",""
"","ITI","","html-keyboard-response","228","305444","0.0-1.0-297.0","0","0","97856","","null","","","null","32","","","","","","","","","","","","","","","NaN",""
"","S1","","html-keyboard-response","229","305696","0.0-1.0-299.0","0","0","97856","","null","","","null","33","","","","","","","","","","","","","","","",""
"","ISI","","html-keyboard-response","230","307698","0.0-1.0-300.0","0","0","97856","","812","","","75","33","k","","","","","","","","","","","","","","",""
"","S2","","html-keyboard-response","231","307951","0.0-1.0-301.0","0","0","97856","","null","","","null","33","","NaN","","","","","","","","","","","","","",""
"","response","","html-keyboard-response","232","309050","0.0-1.0-302.0","0","0","97856","","1097","","","68","33","","","1","33","training","adjacent","ED","5","4","L.jpg","N.jpg","1","0","0","",""
"","feedback","","html-keyboard-response","233","310050","0.0-1.0-303.0-0.0","0","0","97856","","null","","","null","33","","","","","","","","","","","","","","","",""
"","time_out","","html-keyboard-response","234","312053","0.0-1.0-305.0-0.0","0","0","97856","","null","","","null","33","","","","","","","","","","","","","","","",""
"","ITI","","html-keyboard-response","235","313054","0.0-1.0-306.0","0","0","97856","","416","","","75","33","","","","","","","","","","","","","","","k",""
"","S1","","html-keyboard-response","236","313307","0.0-1.0-308.0","0","0","97856","","null","","","null","34","","","","","","","","","","","","","","","",""
"","ISI","","html-keyboard-response","237","315309","0.0-1.0-309.0","0","0","97856","","null","","","null","34","NaN","","","","","","","","","","","","","","",""
"","S2","","html-keyboard-response","238","315561","0.0-1.0-310.0","0","0","97856","","null","","","null","34","","NaN","","","","","","","","","","","","","",""
"","response","","html-keyboard-response","239","316629","0.0-1.0-311.0","0","0","97856","","1067","","","75","34","","","1","34","training","adjacent","EF","5","6","L.jpg","P.jpg","0","1","0","",""
"","feedback","","html-keyboard-response","240","317661","0.0-1.0-312.0-0.0","0","0","97856","","null","","","null","34","","","","","","","","","","","","","","","",""
"","time_out","","html-keyboard-response","241","319663","0.0-1.0-314.0-0.0","0","0","97856","","null","","","null","34","","","","","","","","","","","","","","","",""
"","ITI","","html-keyboard-response","242","320665","0.0-1.0-315.0","0","0","97856","","665","","","75","34","","","","","","","","","","","","","","","k",""
"","S1","","html-keyboard-response","243","320918","0.0-1.0-317.0","0","0","97856","","null","","","null","35","","","","","","","","","","","","","","","",""
"","ISI","","html-keyboard-response","244","322919","0.0-1.0-318.0","0","0","97856","","301","","","75","35","k","","","","","","","","","","","","","","",""
"","S2","","html-keyboard-response","245","323171","0.0-1.0-319.0","0","0","97856","","null","","","null","35","","NaN","","","","","","","","","","","","","",""
"","response","","html-keyboard-response","246","323849","0.0-1.0-320.0","0","0","97856","","678","","","75","35","","","1","35","training","adjacent","BA","2","1","R.jpg","O.jpg","0","0","1","",""
"","feedback","","html-keyboard-response","247","324851","0.0-1.0-321.0-0.0","0","0","97856","","null","","","null","35","","","","","","","","","","","","","","","",""
"","ITI","","html-keyboard-response","248","325856","0.0-1.0-324.0","0","0","97856","","null","","","null","35","","","","","","","","","","","","","","","NaN",""
"","S1","","html-keyboard-response","249","326109","0.0-1.0-326.0","0","0","97856","","null","","","null","36","","","","","","","","","","","","","","","",""
"","ISI","","html-keyboard-response","250","328110","0.0-1.0-327.0","0","0","97856","","null","","","null","36","NaN","","","","","","","","","","","","","","",""
"","S2","","html-keyboard-response","251","328362","0.0-1.0-328.0","0","0","97856","","null","","","null","36","","NaN","","","","","","","","","","","","","",""
"","response","","html-keyboard-response","252","328860","0.0-1.0-329.0","0","0","97856","","497","","","68","36","","","1","36","training","adjacent","FE","6","5","P.jpg","L.jpg","1","0","0","",""
"","feedback","","html-keyboard-response","253","329863","0.0-1.0-330.0-0.0","0","0","97856","","null","","","null","36","","","","","","","","","","","","","","","",""
"","time_out","","html-keyboard-response","254","331865","0.0-1.0-332.0-0.0","0","0","97856","","null","","","null","36","","","","","","","","","","","","","","","",""
"","ITI","","html-keyboard-response","255","332866","0.0-1.0-333.0","0","0","97856","","504","","","75","36","","","","","","","","","","","","","","","k",""
"","S1","","html-keyboard-response","256","333121","0.0-1.0-335.0","0","0","97856","","null","","","null","37","","","","","","","","","","","","","","","",""
"","ISI","","html-keyboard-response","257","335123","0.0-1.0-336.0","0","0","97856","","698","","","75","37","k","","","","","","","","","","","","","","",""
"","S2","","html-keyboard-response","258","335379","0.0-1.0-337.0","0","0","97856","","null","","","null","37","","NaN","","","","","","","","","","","","","",""
"","response","","html-keyboard-response","259","336600","0.0-1.0-338.0","0","0","97856","","1219","","","68","37","","","1","37","training","adjacent","DC","4","3","N.jpg","Q.jpg","1","0","0","",""
"","feedback","","html-keyboard-response","260","337658","0.0-1.0-339.0-0.0","0","0","97856","","null","","","null","37","","","","","","","","","","","","","","","",""
"","time_out","","html-keyboard-response","261","339711","0.0-1.0-341.0-0.0","0","0","97856","","null","","","null","37","","","","","","","","","","","","","","","",""
"","ITI","","html-keyboard-response","262","340713","0.0-1.0-342.0","0","0","97856","","null","","","null","37","","","","","","","","","","","","","","","NaN",""
"","S1","","html-keyboard-response","263","340963","0.0-1.0-344.0","0","0","97856","","null","","","null","38","","","","","","","","","","","","","","","",""
"","ISI","","html-keyboard-response","264","342966","0.0-1.0-345.0","0","0","97856","","1024","","","75","38","k","","","","","","","","","","","","","","",""
"","S2","","html-keyboard-response","265","343219","0.0-1.0-346.0","0","0","97856","","null","","","null","38","","NaN","","","","","","","","","","","","","",""
"","response","","html-keyboard-response","266","343230","0.0-1.0-347.0","0","0","97856","","10","","","75","38","","","1","38","training","adjacent","CD","3","4","Q.jpg","N.jpg","0","1","0","",""
"","feedback","","html-keyboard-response","267","344232","0.0-1.0-348.0-0.0","0","0","97856","","null","","","null","38","","","","","","","","","","","","","","","",""
"","time_out","","html-keyboard-response","268","346233","0.0-1.0-350.0-0.0","0","0","97856","","null","","","null","38","","","","","","","","","","","","","","","",""
"","ITI","","html-keyboard-response","269","347235","0.0-1.0-351.0","0","0","97856","","126","","","68","38","","","","","","","","","","","","","","","d",""
"","S1","","html-keyboard-response","270","347486","0.0-1.0-353.0","0","0","97856","","null","","","null","39","","","","","","","","","","","","","","","",""
"","ISI","","html-keyboard-response","271","349487","0.0-1.0-354.0","0","0","97856","","523","","","75","39","k","","","","","","","","","","","","","","",""
"","S2","","html-keyboard-response","272","349738","0.0-1.0-355.0","0","0","97856","","null","","","null","39","","NaN","","","","","","","","","","","","","",""
"","response","","html-keyboard-response","273","350380","0.0-1.0-356.0","0","0","97856","","640","","","75","39","","","1","39","training","adjacent","GF","7","6","M.jpg","P.jpg","0","0","1","",""
"","feedback","","html-keyboard-response","274","351382","0.0-1.0-357.0-0.0","0","0","97856","","null","","","null","39","","","","","","","","","","","","","","","",""
"","ITI","","html-keyboard-response","275","352383","0.0-1.0-360.0","0","0","97856","","null","","","null","39","","","","","","","","","","","","","","","NaN",""
"","S1","","html-keyboard-response","276","352636","0.0-1.0-362.0","0","0","97856","","null","","","null","40","","","","","","","","","","","","","","","",""
"","ISI","","html-keyboard-response","277","354637","0.0-1.0-363.0","0","0","97856","","null","","","null","40","NaN","","","","","","","","","","","","","","",""
"","S2","","html-keyboard-response","278","354889","0.0-1.0-364.0","0","0","97856","","null","","","null","40","","NaN","","","","","","","","","","","","","",""
"","response","","html-keyboard-response","279","355530","0.0-1.0-365.0","0","0","97856","","638","","","75","40","","","1","40","training","adjacent","EF","5","6","L.jpg","P.jpg","0","1","0","",""
"","feedback","","html-keyboard-response","280","356532","0.0-1.0-366.0-0.0","0","0","97856","","null","","","null","40","","","","","","","","","","","","","","","",""
"","time_out","","html-keyboard-response","281","358553","0.0-1.0-368.0-0.0","0","0","97856","","null","","","null","40","","","","","","","","","","","","","","","",""
"","ITI","","html-keyboard-response","282","359555","0.0-1.0-369.0","0","0","97856","","null","","","null","40","","","","","","","","","","","","","","","NaN",""
"","S1","","html-keyboard-response","283","359806","0.0-1.0-371.0","0","0","97856","","null","","","null","41","","","","","","","","","","","","","","","",""
"","ISI","","html-keyboard-response","284","361807","0.0-1.0-372.0","0","0","97856","","null","","","null","41","NaN","","","","","","","","","","","","","","",""
"","S2","","html-keyboard-response","285","362060","0.0-1.0-373.0","0","0","97856","","null","","","null","41","","NaN","","","","","","","","","","","","","",""
"","response","","html-keyboard-response","286","362609","0.0-1.0-374.0","0","0","97856","","548","","","68","41","","","1","41","training","adjacent","ED","5","4","L.jpg","N.jpg","1","0","0","",""
"","feedback","","html-keyboard-response","287","363614","0.0-1.0-375.0-0.0","0","0","97856","","null","","","null","41","","","","","","","","","","","","","","","",""
"","time_out","","html-keyboard-response","288","365797","0.0-1.0-377.0-0.0","0","0","97856","","null","","","null","41","","","","","","","","","","","","","","","",""
"","ITI","","html-keyboard-response","289","366798","0.0-1.0-378.0","0","0","97856","","612","","","68","41","","","","","","","","","","","","","","","d",""
"","S1","","html-keyboard-response","290","367050","0.0-1.0-380.0","0","0","97856","","null","","","null","42","","","","","","","","","","","","","","","",""
"","ISI","","html-keyboard-response","291","369051","0.0-1.0-381.0","0","0","97856","","368","","","68","42","d","","","","","","","","","","","","","","",""
"","S2","","html-keyboard-response","292","369304","0.0-1.0-382.0","0","0","97856","","null","","","null","42","","NaN","","","","","","","","","","","","","",""
"","response","","html-keyboard-response","293","369420","0.0-1.0-383.0","0","0","97856","","114","","","68","42","","","1","42","training","adjacent","GF","7","6","M.jpg","P.jpg","1","0","0","",""
"","feedback","","html-keyboard-response","294","370422","0.0-1.0-384.0-0.0","0","0","97856","","null","","","null","42","","","","","","","","","","","","","","","",""
"","time_out","","html-keyboard-response","295","372423","0.0-1.0-386.0-0.0","0","0","97856","","null","","","null","42","","","","","","","","","","","","","","","",""
"","ITI","","html-keyboard-response","296","373423","0.0-1.0-387.0","0","0","97856","","515","","","76","42","","","","","","","","","","","","","","","l",""
"","S1","","html-keyboard-response","297","373676","0.0-1.0-389.0","0","0","97856","","null","","","null","43","","","","","","","","","","","","","","","",""
"","ISI","","html-keyboard-response","298","375678","0.0-1.0-390.0","0","0","97856","","10","","","75","43","k","","","","","","","","","","","","","","",""
"","S2","","html-keyboard-response","299","375929","0.0-1.0-391.0","0","0","97856","","231","","","68","43","","d","","","","","","","","","","","","","",""
"","response","","html-keyboard-response","300","376331","0.0-1.0-392.0","0","0","97856","","400","","","75","43","","","1","43","training","adjacent","DC","4","3","N.jpg","Q.jpg","0","0","1","",""
"","feedback","","html-keyboard-response","301","377334","0.0-1.0-393.0-0.0","0","0","97856","","null","","","null","43","","","","","","","","","","","","","","","",""
"","ITI","","html-keyboard-response","302","378337","0.0-1.0-396.0","0","0","97856","","686","","","68","43","","","","","","","","","","","","","","","d",""
"","S1","","html-keyboard-response","303","378590","0.0-1.0-398.0","0","0","97856","","null","","","null","44","","","","","","","","","","","","","","","",""
"","ISI","","html-keyboard-response","304","380593","0.0-1.0-399.0","0","0","97856","","139","","","68","44","d","","","","","","","","","","","","","","",""
"","S2","","html-keyboard-response","305","380844","0.0-1.0-400.0","0","0","97856","","null","","","null","44","","NaN","","","","","","","","","","","","","",""
"","response","","html-keyboard-response","306","381800","0.0-1.0-401.0","0","0","97856","","954","","","75","44","","","1","44","training","adjacent","AB","1","2","O.jpg","R.jpg","0","1","0","",""
"","feedback","","html-keyboard-response","307","382803","0.0-1.0-402.0-0.0","0","0","97856","","null","","","null","44","","","","","","","","","","","","","","","",""
"","time_out","","html-keyboard-response","308","384811","0.0-1.0-404.0-0.0","0","0","97856","","null","","","null","44","","","","","","","","","","","","","","","",""
"","ITI","","html-keyboard-response","309","385812","0.0-1.0-405.0","0","0","97856","","null","","","null","44","","","","","","","","","","","","","","","NaN",""
"","S1","","html-keyboard-response","310","386064","0.0-1.0-407.0","0","0","97856","","null","","","null","45","","","","","","","","","","","","","","","",""
"","ISI","","html-keyboard-response","311","388066","0.0-1.0-408.0","0","0","97856","","785","","","75","45","k","","","","","","","","","","","","","","",""
"","S2","","html-keyboard-response","312","388318","0.0-1.0-409.0","0","0","97856","","null","","","null","45","","NaN","","","","","","","","","","","","","",""
"","response","","html-keyboard-response","313","388799","0.0-1.0-410.0","0","0","97856","","480","","","68","45","","","1","45","training","adjacent","AB","1","2","O.jpg","R.jpg","1","1","1","",""
"","feedback","","html-keyboard-response","314","389802","0.0-1.0-411.0-0.0","0","0","97856","","null","","","null","45","","","","","","","","","","","","","","","",""
"","ITI","","html-keyboard-response","315","390805","0.0-1.0-414.0","0","0","97856","","276","","","75","45","","","","","","","","","","","","","","","k",""
"","S1","","html-keyboard-response","316","391059","0.0-1.0-416.0","0","0","97856","","null","","","null","46","","","","","","","","","","","","","","","",""
"","ISI","","html-keyboard-response","317","393060","0.0-1.0-417.0","0","0","97856","","621","","","75","46","k","","","","","","","","","","","","","","",""
"","S2","","html-keyboard-response","318","393312","0.0-1.0-418.0","0","0","97856","","null","","","null","46","","NaN","","","","","","","","","","","","","",""
"","response","","html-keyboard-response","319","393771","0.0-1.0-419.0","0","0","97856","","457","","","75","46","","","1","46","training","adjacent","BC","2","3","R.jpg","Q.jpg","0","1","0","",""
"","feedback","","html-keyboard-response","320","394773","0.0-1.0-420.0-0.0","0","0","97856","","null","","","null","46","","","","","","","","","","","","","","","",""
"","time_out","","html-keyboard-response","321","396775","0.0-1.0-422.0-0.0","0","0","97856","","null","","","null","46","","","","","","","","","","","","","","","",""
"","ITI","","html-keyboard-response","322","397776","0.0-1.0-423.0","0","0","97856","","894","","","75","46","","","","","","","","","","","","","","","k",""
"","S1","","html-keyboard-response","323","398028","0.0-1.0-425.0","0","0","97856","","null","","","null","47","","","","","","","","","","","","","","","",""
"","ISI","","html-keyboard-response","324","400029","0.0-1.0-426.0","0","0","97856","","128","","","75","47","k","","","","","","","","","","","","","","",""
"","S2","","html-keyboard-response","325","400281","0.0-1.0-427.0","0","0","97856","","null","","","null","47","","NaN","","","","","","","","","","","","","",""
"","response","","html-keyboard-response","326","400410","0.0-1.0-428.0","0","0","97856","","127","","","75","47","","","1","47","training","adjacent","BC","2","3","R.jpg","Q.jpg","0","1","0","",""
"","feedback","","html-keyboard-response","327","401412","0.0-1.0-429.0-0.0","0","0","97856","","null","","","null","47","","","","","","","","","","","","","","","",""
"","time_out","","html-keyboard-response","328","403415","0.0-1.0-431.0-0.0","0","0","97856","","null","","","null","47","","","","","","","","","","","","","","","",""
"","ITI","","html-keyboard-response","329","404418","0.0-1.0-432.0","0","0","97856","","853","","","75","47","","","","","","","","","","","","","","","k",""
"","block_over","","html-keyboard-response","330","727698","0.0-1.0-433.0-0.0","0","0","97856","","323278","","","32","47","","","","","","","","","","","","","","","",""
"","S1","","html-keyboard-response","331","727950","0.0-1.0-434.0","0","0","97856","","null","","","null","48","","","","","","","","","","","","","","","",""
"","ISI","","html-keyboard-response","332","729975","0.0-1.0-435.0","0","0","97856","","null","","","null","48","NaN","","","","","","","","","","","","","","",""
"","S2","","html-keyboard-response","333","730228","0.0-1.0-436.0","0","0","97856","","null","","","null","48","","NaN","","","","","","","","","","","","","",""
"","response","","html-keyboard-response","334","731009","0.0-1.0-437.0","0","0","97856","","780","","","75","48","","","2","48","training","adjacent","CD","3","4","Q.jpg","N.jpg","0","1","0","",""
"","feedback","","html-keyboard-response","335","732011","0.0-1.0-438.0-0.0","0","0","97856","","null","","","null","48","","","","","","","","","","","","","","","",""
"","time_out","","html-keyboard-response","336","734014","0.0-1.0-440.0-0.0","0","0","97856","","null","","","null","48","","","","","","","","","","","","","","","",""
"","ITI","","html-keyboard-response","337","735024","0.0-1.0-441.0","0","0","97856","","63","","","68","48","","","","","","","","","","","","","","","d",""
"","S1","","html-keyboard-response","338","735276","0.0-1.0-443.0","0","0","97856","","null","","","null","49","","","","","","","","","","","","","","","",""
"","ISI","","html-keyboard-response","339","737278","0.0-1.0-444.0","0","0","97856","","359","","","75","49","k","","","","","","","","","","","","","","",""
"","S2","","html-keyboard-response","340","737529","0.0-1.0-445.0","0","0","97856","","null","","","null","49","","NaN","","","","","","","","","","","","","",""
"","response","","html-keyboard-response","341","737568","0.0-1.0-446.0","0","0","97856","","38","","","75","49","","","2","49","training","adjacent","FG","6","7","P.jpg","M.jpg","0","1","0","",""
"","feedback","","html-keyboard-response","342","738569","0.0-1.0-447.0-0.0","0","0","97856","","null","","","null","49","","","","","","","","","","","","","","","",""
"","time_out","","html-keyboard-response","343","740570","0.0-1.0-449.0-0.0","0","0","97856","","null","","","null","49","","","","","","","","","","","","","","","",""
"","ITI","","html-keyboard-response","344","741572","0.0-1.0-450.0","0","0","97856","","6","","","75","49","","","","","","","","","","","","","","","k",""
"","S1","","html-keyboard-response","345","741823","0.0-1.0-452.0","0","0","97856","","null","","","null","50","","","","","","","","","","","","","","","",""
"","ISI","","html-keyboard-response","346","743826","0.0-1.0-453.0","0","0","97856","","603","","","75","50","k","","","","","","","","","","","","","","",""
"","S2","","html-keyboard-response","347","744077","0.0-1.0-454.0","0","0","97856","","null","","","null","50","","NaN","","","","","","","","","","","","","",""
"","response","","html-keyboard-response","348","744088","0.0-1.0-455.0","0","0","97856","","10","","","75","50","","","2","50","training","adjacent","FE","6","5","P.jpg","L.jpg","0","0","1","",""
"","feedback","","html-keyboard-response","349","745090","0.0-1.0-456.0-0.0","0","0","97856","","null","","","null","50","","","","","","","","","","","","","","","",""
"","ITI","","html-keyboard-response","350","746090","0.0-1.0-459.0","0","0","97856","","248","","","75","50","","","","","","","","","","","","","","","k",""
"","S1","","html-keyboard-response","351","746344","0.0-1.0-461.0","0","0","97856","","null","","","null","51","","","","","","","","","","","","","","","",""
"","ISI","","html-keyboard-response","352","748344","0.0-1.0-462.0","0","0","97856","","130","","","75","51","k","","","","","","","","","","","","","","",""
"","S2","","html-keyboard-response","353","748596","0.0-1.0-463.0","0","0","97856","","null","","","null","51","","NaN","","","","","","","","","","","","","",""
"","response","","html-keyboard-response","354","749369","0.0-1.0-464.0","0","0","97856","","771","","","68","51","","","2","51","training","adjacent","GF","7","6","M.jpg","P.jpg","1","0","0","",""
"","feedback","","html-keyboard-response","355","750376","0.0-1.0-465.0-0.0","0","0","97856","","null","","","null","51","","","","","","","","","","","","","","","",""
"","time_out","","html-keyboard-response","356","752381","0.0-1.0-467.0-0.0","0","0","97856","","null","","","null","51","","","","","","","","","","","","","","","",""
"","ITI","","html-keyboard-response","357","753384","0.0-1.0-468.0","0","0","97856","","null","","","null","51","","","","","","","","","","","","","","","NaN",""
"","S1","","html-keyboard-response","358","753636","0.0-1.0-470.0","0","0","97856","","null","","","null","52","","","","","","","","","","","","","","","",""
"","ISI","","html-keyboard-response","359","755637","0.0-1.0-471.0","0","0","97856","","null","","","null","52","NaN","","","","","","","","","","","","","","",""
"","S2","","html-keyboard-response","360","755890","0.0-1.0-472.0","0","0","97856","","null","","","null","52","","NaN","","","","","","","","","","","","","",""
"","response","","html-keyboard-response","361","756329","0.0-1.0-473.0","0","0","97856","","438","","","75","52","","","2","52","training","adjacent","GF","7","6","M.jpg","P.jpg","0","0","1","",""
"","feedback","","html-keyboard-response","362","757333","0.0-1.0-474.0-0.0","0","0","97856","","null","","","null","52","","","","","","","","","","","","","","","",""
"","ITI","","html-keyboard-response","363","758337","0.0-1.0-477.0","0","0","97856","","null","","","null","52","","","","","","","","","","","","","","","NaN",""
"","S1","","html-keyboard-response","364","758587","0.0-1.0-479.0","0","0","97856","","null","","","null","53","","","","","","","","","","","","","","","",""
"","ISI","","html-keyboard-response","365","760589","0.0-1.0-480.0","0","0","97856","","null","","","null","53","NaN","","","","","","","","","","","","","","",""
"","S2","","html-keyboard-response","366","760843","0.0-1.0-481.0","0","0","97856","","null","","","null","53","","NaN","","","","","","","","","","","","","",""
"","response","","html-keyboard-response","367","761519","0.0-1.0-482.0","0","0","97856","","675","","","68","53","","","2","53","training","adjacent","AB","1","2","O.jpg","R.jpg","1","1","1","",""
"","feedback","","html-keyboard-response","368","762522","0.0-1.0-483.0-0.0","0","0","97856","","null","","","null","53","","","","","","","","","","","","","","","",""
"","ITI","","html-keyboard-response","369","763523","0.0-1.0-486.0","0","0","97856","","null","","","null","53","","","","","","","","","","","","","","","NaN",""
"","S1","","html-keyboard-response","370","763776","0.0-1.0-488.0","0","0","97856","","null","","","null","54","","","","","","","","","","","","","","","",""
"","ISI","","html-keyboard-response","371","765778","0.0-1.0-489.0","0","0","97856","","null","","","null","54","NaN","","","","","","","","","","","","","","",""
"","S2","","html-keyboard-response","372","766031","0.0-1.0-490.0","0","0","97856","","null","","","null","54","","NaN","","","","","","","","","","","","","",""
"","response","","html-keyboard-response","373","766779","0.0-1.0-491.0","0","0","97856","","746","","","68","54","","","2","54","training","adjacent","GF","7","6","M.jpg","P.jpg","1","0","0","",""
"","feedback","","html-keyboard-response","374","767782","0.0-1.0-492.0-0.0","0","0","97856","","null","","","null","54","","","","","","","","","","","","","","","",""
"","time_out","","html-keyboard-response","375","769784","0.0-1.0-494.0-0.0","0","0","97856","","null","","","null","54","","","","","","","","","","","","","","","",""
"","ITI","","html-keyboard-response","376","770785","0.0-1.0-495.0","0","0","97856","","null","","","null","54","","","","","","","","","","","","","","","NaN",""
"","S1","","html-keyboard-response","377","771037","0.0-1.0-497.0","0","0","97856","","null","","","null","55","","","","","","","","","","","","","","","",""
"","ISI","","html-keyboard-response","378","773038","0.0-1.0-498.0","0","0","97856","","null","","","null","55","NaN","","","","","","","","","","","","","","",""
"","S2","","html-keyboard-response","379","773290","0.0-1.0-499.0","0","0","97856","","null","","","null","55","","NaN","","","","","","","","","","","","","",""
"","response","","html-keyboard-response","380","774009","0.0-1.0-500.0","0","0","97856","","718","","","68","55","","","2","55","training","adjacent","ED","5","4","L.jpg","N.jpg","1","0","0","",""
"","feedback","","html-keyboard-response","381","775016","0.0-1.0-501.0-0.0","0","0","97856","","null","","","null","55","","","","","","","","","","","","","","","",""
"","time_out","","html-keyboard-response","382","777017","0.0-1.0-503.0-0.0","0","0","97856","","null","","","null","55","","","","","","","","","","","","","","","",""
"","ITI","","html-keyboard-response","383","778020","0.0-1.0-504.0","0","0","97856","","null","","","null","55","","","","","","","","","","","","","","","NaN",""
"","S1","","html-keyboard-response","384","778272","0.0-1.0-506.0","0","0","97856","","null","","","null","56","","","","","","","","","","","","","","","",""
"","ISI","","html-keyboard-response","385","780273","0.0-1.0-507.0","0","0","97856","","null","","","null","56","NaN","","","","","","","","","","","","","","",""
"","S2","","html-keyboard-response","386","780524","0.0-1.0-508.0","0","0","97856","","null","","","null","56","","NaN","","","","","","","","","","","","","",""
"","response","","html-keyboard-response","387","780951","0.0-1.0-509.0","0","0","97856","","425","","","75","56","","","2","56","training","adjacent","FE","6","5","P.jpg","L.jpg","0","0","1","",""
"","feedback","","html-keyboard-response","388","781953","0.0-1.0-510.0-0.0","0","0","97856","","null","","","null","56","","","","","","","","","","","","","","","",""
"","ITI","","html-keyboard-response","389","782955","0.0-1.0-513.0","0","0","97856","","null","","","null","56","","","","","","","","","","","","","","","NaN",""
"","S1","","html-keyboard-response","390","783207","0.0-1.0-515.0","0","0","97856","","null","","","null","57","","","","","","","","","","","","","","","",""
"","ISI","","html-keyboard-response","391","785210","0.0-1.0-516.0","0","0","97856","","null","","","null","57","NaN","","","","","","","","","","","","","","",""
"","S2","","html-keyboard-response","392","785481","0.0-1.0-517.0","0","0","97856","","null","","","null","57","","NaN","","","","","","","","","","","","","",""
"","response","","html-keyboard-response","393","786421","0.0-1.0-518.0","0","0","97856","","936","","","68","57","","","2","57","training","adjacent","DC","4","3","N.jpg","Q.jpg","1","0","0","",""
"","feedback","","html-keyboard-response","394","787422","0.0-1.0-519.0-0.0","0","0","97856","","null","","","null","57","","","","","","","","","","","","","","","",""
"","time_out","","html-keyboard-response","395","789425","0.0-1.0-521.0-0.0","0","0","97856","","null","","","null","57","","","","","","","","","","","","","","","",""
"","ITI","","html-keyboard-response","396","790426","0.0-1.0-522.0","0","0","97856","","null","","","null","57","","","","","","","","","","","","","","","NaN",""
"","S1","","html-keyboard-response","397","790677","0.0-1.0-524.0","0","0","97856","","null","","","null","58","","","","","","","","","","","","","","","",""
"","ISI","","html-keyboard-response","398","792702","0.0-1.0-525.0","0","0","97856","","null","","","null","58","NaN","","","","","","","","","","","","","","",""
"","S2","","html-keyboard-response","399","792955","0.0-1.0-526.0","0","0","97856","","null","","","null","58","","NaN","","","","","","","","","","","","","",""
"","response","","html-keyboard-response","400","793596","0.0-1.0-527.0","0","0","97856","","640","","","75","58","","","2","58","training","adjacent","BC","2","3","R.jpg","Q.jpg","0","1","0","",""
"","feedback","","html-keyboard-response","401","794600","0.0-1.0-528.0-0.0","0","0","97856","","null","","","null","58","","","","","","","","","","","","","","","",""
"","time_out","","html-keyboard-response","402","796603","0.0-1.0-530.0-0.0","0","0","97856","","null","","","null","58","","","","","","","","","","","","","","","",""
"","ITI","","html-keyboard-response","403","797605","0.0-1.0-531.0","0","0","97856","","null","","","null","58","","","","","","","","","","","","","","","NaN",""
"","S1","","html-keyboard-response","404","797858","0.0-1.0-533.0","0","0","97856","","null","","","null","59","","","","","","","","","","","","","","","",""
"","ISI","","html-keyboard-response","405","799858","0.0-1.0-534.0","0","0","97856","","null","","","null","59","NaN","","","","","","","","","","","","","","",""
"","S2","","html-keyboard-response","406","800110","0.0-1.0-535.0","0","0","97856","","null","","","null","59","","NaN","","","","","","","","","","","","","",""
"","response","","html-keyboard-response","407","801062","0.0-1.0-536.0","0","0","97856","","951","","","75","59","","","2","59","training","adjacent","DE","4","5","N.jpg","L.jpg","0","1","0","",""
"","feedback","","html-keyboard-response","408","802065","0.0-1.0-537.0-0.0","0","0","97856","","null","","","null","59","","","","","","","","","","","","","","","",""
"","time_out","","html-keyboard-response","409","804067","0.0-1.0-539.0-0.0","0","0","97856","","null","","","null","59","","","","","","","","","","","","","","","",""
"","ITI","","html-keyboard-response","410","805068","0.0-1.0-540.0","0","0","97856","","321","","","68","59","","","","","","","","","","","","","","","d",""
"","S1","","html-keyboard-response","411","805319","0.0-1.0-542.0","0","0","97856","","null","","","null","60","","","","","","","","","","","","","","","",""
"","ISI","","html-keyboard-response","412","807320","0.0-1.0-543.0","0","0","97856","","null","","","null","60","NaN","","","","","","","","","","","","","","",""
"","S2","","html-keyboard-response","413","807573","0.0-1.0-544.0","0","0","97856","","null","","","null","60","","NaN","","","","","","","","","","","","","",""
"","response","","html-keyboard-response","414","808449","0.0-1.0-545.0","0","0","97856","","874","","","75","60","","","2","60","training","adjacent","BC","2","3","R.jpg","Q.jpg","0","1","0","",""
"","feedback","","html-keyboard-response","415","809451","0.0-1.0-546.0-0.0","0","0","97856","","null","","","null","60","","","","","","","","","","","","","","","",""
"","time_out","","html-keyboard-response","416","811452","0.0-1.0-548.0-0.0","0","0","97856","","null","","","null","60","","","","","","","","","","","","","","","",""
"","ITI","","html-keyboard-response","417","812453","0.0-1.0-549.0","0","0","97856","","533","","","75","60","","","","","","","","","","","","","","","k",""
"","S1","","html-keyboard-response","418","812704","0.0-1.0-551.0","0","0","97856","","null","","","null","61","","","","","","","","","","","","","","","",""
"","ISI","","html-keyboard-response","419","814706","0.0-1.0-552.0","0","0","97856","","44","","","68","61","d","","","","","","","","","","","","","","",""
"","S2","","html-keyboard-response","420","814956","0.0-1.0-553.0","0","0","97856","","83","","","75","61","","k","","","","","","","","","","","","","",""
"","response","","html-keyboard-response","421","815380","0.0-1.0-554.0","0","0","97856","","422","","","75","61","","","2","61","training","adjacent","DE","4","5","N.jpg","L.jpg","0","1","0","",""
"","feedback","","html-keyboard-response","422","816380","0.0-1.0-555.0-0.0","0","0","97856","","null","","","null","61","","","","","","","","","","","","","","","",""
"","time_out","","html-keyboard-response","423","818382","0.0-1.0-557.0-0.0","0","0","97856","","null","","","null","61","","","","","","","","","","","","","","","",""
"","ITI","","html-keyboard-response","424","819384","0.0-1.0-558.0","0","0","97856","","755","","","75","61","","","","","","","","","","","","","","","k",""
"","S1","","html-keyboard-response","425","819637","0.0-1.0-560.0","0","0","97856","","null","","","null","62","","","","","","","","","","","","","","","",""
"","ISI","","html-keyboard-response","426","821638","0.0-1.0-561.0","0","0","97856","","501","","","75","62","k","","","","","","","","","","","","","","",""
"","S2","","html-keyboard-response","427","821890","0.0-1.0-562.0","0","0","97856","","34","","","68","62","","d","","","","","","","","","","","","","",""
"","response","","html-keyboard-response","428","822270","0.0-1.0-563.0","0","0","97856","","377","","","75","62","","","2","62","training","adjacent","CB","3","2","Q.jpg","R.jpg","0","0","1","",""
"","feedback","","html-keyboard-response","429","823271","0.0-1.0-564.0-0.0","0","0","97856","","null","","","null","62","","","","","","","","","","","","","","","",""
"","ITI","","html-keyboard-response","430","824273","0.0-1.0-567.0","0","0","97856","","null","","","null","62","","","","","","","","","","","","","","","NaN",""
"","S1","","html-keyboard-response","431","824525","0.0-1.0-569.0","0","0","97856","","null","","","null","63","","","","","","","","","","","","","","","",""
"","ISI","","html-keyboard-response","432","826528","0.0-1.0-570.0","0","0","97856","","538","","","68","63","d","","","","","","","","","","","","","","",""
"","S2","","html-keyboard-response","433","826780","0.0-1.0-571.0","0","0","97856","","null","","","null","63","","NaN","","","","","","","","","","","","","",""
"","response","","html-keyboard-response","434","827071","0.0-1.0-572.0","0","0","97856","","289","","","75","63","","","2","63","training","adjacent","BC","2","3","R.jpg","Q.jpg","0","1","0","",""
"","feedback","","html-keyboard-response","435","828073","0.0-1.0-573.0-0.0","0","0","97856","","null","","","null","63","","","","","","","","","","","","","","","",""
"","time_out","","html-keyboard-response","436","830073","0.0-1.0-575.0-0.0","0","0","97856","","null","","","null","63","","","","","","","","","","","","","","","",""
"","ITI","","html-keyboard-response","437","831076","0.0-1.0-576.0","0","0","97856","","164","","","75","63","","","","","","","","","","","","","","","k",""
"","S1","","html-keyboard-response","438","831329","0.0-1.0-578.0","0","0","97856","","null","","","null","64","","","","","","","","","","","","","","","",""
"","ISI","","html-keyboard-response","439","833330","0.0-1.0-579.0","0","0","97856","","38","","","75","64","k","","","","","","","","","","","","","","",""
"","S2","","html-keyboard-response","440","833585","0.0-1.0-580.0","0","0","97856","","null","","","null","64","","NaN","","","","","","","","","","","","","",""
"","response","","html-keyboard-response","441","833740","0.0-1.0-581.0","0","0","97856","","154","","","75","64","","","2","64","training","adjacent","DE","4","5","N.jpg","L.jpg","0","1","0","",""
"","feedback","","html-keyboard-response","442","834741","0.0-1.0-582.0-0.0","0","0","97856","","null","","","null","64","","","","","","","","","","","","","","","",""
"","time_out","","html-keyboard-response","443","836743","0.0-1.0-584.0-0.0","0","0","97856","","null","","","null","64","","","","","","","","","","","","","","","",""
"","ITI","","html-keyboard-response","444","837745","0.0-1.0-585.0","0","0","97856","","824","","","75","64","","","","","","","","","","","","","","","k",""
"","S1","","html-keyboard-response","445","837997","0.0-1.0-587.0","0","0","97856","","null","","","null","65","","","","","","","","","","","","","","","",""
"","ISI","","html-keyboard-response","446","839999","0.0-1.0-588.0","0","0","97856","","null","","","null","65","NaN","","","","","","","","","","","","","","",""
"","S2","","html-keyboard-response","447","840252","0.0-1.0-589.0","0","0","97856","","null","","","null","65","","NaN","","","","","","","","","","","","","",""
"","response","","html-keyboard-response","448","840992","0.0-1.0-590.0","0","0","97856","","737","","","75","65","","","2","65","training","adjacent","ED","5","4","L.jpg","N.jpg","0","0","1","",""
"","feedback","","html-keyboard-response","449","841995","0.0-1.0-591.0-0.0","0","0","97856","","null","","","null","65","","","","","","","","","","","","","","","",""
"","ITI","","html-keyboard-response","450","842996","0.0-1.0-594.0","0","0","97856","","null","","","null","65","","","","","","","","","","","","","","","NaN",""
"","S1","","html-keyboard-response","451","843249","0.0-1.0-596.0","0","0","97856","","null","","","null","66","","","","","","","","","","","","","","","",""
"","ISI","","html-keyboard-response","452","845251","0.0-1.0-597.0","0","0","97856","","818","","","75","66","k","","","","","","","","","","","","","","",""
"","S2","","html-keyboard-response","453","845502","0.0-1.0-598.0","0","0","97856","","null","","","null","66","","NaN","","","","","","","","","","","","","",""
"","response","","html-keyboard-response","454","845980","0.0-1.0-599.0","0","0","97856","","475","","","75","66","","","2","66","training","adjacent","CB","3","2","Q.jpg","R.jpg","0","0","1","",""
"","feedback","","html-keyboard-response","455","846983","0.0-1.0-600.0-0.0","0","0","97856","","null","","","null","66","","","","","","","","","","","","","","","",""
"","ITI","","html-keyboard-response","456","847985","0.0-1.0-603.0","0","0","97856","","null","","","null","66","","","","","","","","","","","","","","","NaN",""
"","S1","","html-keyboard-response","457","848241","0.0-1.0-605.0","0","0","97856","","null","","","null","67","","","","","","","","","","","","","","","",""
"","ISI","","html-keyboard-response","458","850243","0.0-1.0-606.0","0","0","97856","","null","","","null","67","NaN","","","","","","","","","","","","","","",""
"","S2","","html-keyboard-response","459","850496","0.0-1.0-607.0","0","0","97856","","null","","","null","67","","NaN","","","","","","","","","","","","","",""
"","response","","html-keyboard-response","460","851310","0.0-1.0-608.0","0","0","97856","","813","","","68","67","","","2","67","training","adjacent","BC","2","3","R.jpg","Q.jpg","1","1","1","",""
"","feedback","","html-keyboard-response","461","852313","0.0-1.0-609.0-0.0","0","0","97856","","null","","","null","67","","","","","","","","","","","","","","","",""
"","ITI","","html-keyboard-response","462","853314","0.0-1.0-612.0","0","0","97856","","null","","","null","67","","","","","","","","","","","","","","","NaN",""
"","S1","","html-keyboard-response","463","853566","0.0-1.0-614.0","0","0","97856","","null","","","null","68","","","","","","","","","","","","","","","",""
"","ISI","","html-keyboard-response","464","855567","0.0-1.0-615.0","0","0","97856","","null","","","null","68","NaN","","","","","","","","","","","","","","",""
"","S2","","html-keyboard-response","465","855819","0.0-1.0-616.0","0","0","97856","","null","","","null","68","","NaN","","","","","","","","","","","","","",""
"","response","","html-keyboard-response","466","856420","0.0-1.0-617.0","0","0","97856","","600","","","68","68","","","2","68","training","adjacent","ED","5","4","L.jpg","N.jpg","1","0","0","",""
"","feedback","","html-keyboard-response","467","857422","0.0-1.0-618.0-0.0","0","0","97856","","null","","","null","68","","","","","","","","","","","","","","","",""
"","time_out","","html-keyboard-response","468","859423","0.0-1.0-620.0-0.0","0","0","97856","","null","","","null","68","","","","","","","","","","","","","","","",""
"","ITI","","html-keyboard-response","469","860426","0.0-1.0-621.0","0","0","97856","","555","","","75","68","","","","","","","","","","","","","","","k",""
"","S1","","html-keyboard-response","470","860701","0.0-1.0-623.0","0","0","97856","","null","","","null","69","","","","","","","","","","","","","","","",""
"","ISI","","html-keyboard-response","471","862711","0.0-1.0-624.0","0","0","97856","","null","","","null","69","NaN","","","","","","","","","","","","","","",""
"","S2","","html-keyboard-response","472","862964","0.0-1.0-625.0","0","0","97856","","null","","","null","69","","NaN","","","","","","","","","","","","","",""
"","response","","html-keyboard-response","473","863820","0.0-1.0-626.0","0","0","97856","","855","","","75","69","","","2","69","training","adjacent","EF","5","6","L.jpg","P.jpg","0","1","0","",""
"","feedback","","html-keyboard-response","474","864822","0.0-1.0-627.0-0.0","0","0","97856","","null","","","null","69","","","","","","","","","","","","","","","",""
"","time_out","","html-keyboard-response","475","866823","0.0-1.0-629.0-0.0","0","0","97856","","null","","","null","69","","","","","","","","","","","","","","","",""
"","ITI","","html-keyboard-response","476","867824","0.0-1.0-630.0","0","0","97856","","null","","","null","69","","","","","","","","","","","","","","","NaN",""
"","S1","","html-keyboard-response","477","868076","0.0-1.0-632.0","0","0","97856","","null","","","null","70","","","","","","","","","","","","","","","",""
"","ISI","","html-keyboard-response","478","870077","0.0-1.0-633.0","0","0","97856","","148","","","68","70","d","","","","","","","","","","","","","","",""
"","S2","","html-keyboard-response","479","870330","0.0-1.0-634.0","0","0","97856","","71","","","75","70","","k","","","","","","","","","","","","","",""
"","response","","html-keyboard-response","480","870840","0.0-1.0-635.0","0","0","97856","","509","","","68","70","","","2","70","training","adjacent","BA","2","1","R.jpg","O.jpg","1","0","0","",""
"","feedback","","html-keyboard-response","481","871843","0.0-1.0-636.0-0.0","0","0","97856","","null","","","null","70","","","","","","","","","","","","","","","",""
"","time_out","","html-keyboard-response","482","873845","0.0-1.0-638.0-0.0","0","0","97856","","null","","","null","70","","","","","","","","","","","","","","","",""
"","ITI","","html-keyboard-response","483","874846","0.0-1.0-639.0","0","0","97856","","111","","","75","70","","","","","","","","","","","","","","","k",""
"","S1","","html-keyboard-response","484","875100","0.0-1.0-641.0","0","0","97856","","null","","","null","71","","","","","","","","","","","","","","","",""
"","ISI","","html-keyboard-response","485","877102","0.0-1.0-642.0","0","0","97856","","null","","","null","71","NaN","","","","","","","","","","","","","","",""
"","S2","","html-keyboard-response","486","877352","0.0-1.0-643.0","0","0","97856","","247","","","68","71","","d","","","","","","","","","","","","","",""
"","response","","html-keyboard-response","487","879102","0.0-1.0-644.0","0","0","97856","","1747","","","75","71","","","2","71","training","adjacent","DC","4","3","N.jpg","Q.jpg","0","0","1","",""
"","feedback","","html-keyboard-response","488","880104","0.0-1.0-645.0-0.0","0","0","97856","","null","","","null","71","","","","","","","","","","","","","","","",""
"","ITI","","html-keyboard-response","489","881106","0.0-1.0-648.0","0","0","97856","","null","","","null","71","","","","","","","","","","","","","","","NaN",""
"","S1","","html-keyboard-response","490","881360","0.0-1.0-650.0","0","0","97856","","null","","","null","72","","","","","","","","","","","","","","","",""
"","ISI","","html-keyboard-response","491","883361","0.0-1.0-651.0","0","0","97856","","979","","","75","72","k","","","","","","","","","","","","","","",""
"","S2","","html-keyboard-response","492","883613","0.0-1.0-652.0","0","0","97856","","null","","","null","72","","NaN","","","","","","","","","","","","","",""
"","response","","html-keyboard-response","493","884100","0.0-1.0-653.0","0","0","97856","","486","","","75","72","","","2","72","training","adjacent","DC","4","3","N.jpg","Q.jpg","0","0","1","",""
"","feedback","","html-keyboard-response","494","885103","0.0-1.0-654.0-0.0","0","0","97856","","null","","","null","72","","","","","","","","","","","","","","","",""
"","ITI","","html-keyboard-response","495","886105","0.0-1.0-657.0","0","0","97856","","null","","","null","72","","","","","","","","","","","","","","","NaN",""
"","S1","","html-keyboard-response","496","886357","0.0-1.0-659.0","0","0","97856","","null","","","null","73","","","","","","","","","","","","","","","",""
"","ISI","","html-keyboard-response","497","888358","0.0-1.0-660.0","0","0","97856","","null","","","null","73","NaN","","","","","","","","","","","","","","",""
"","S2","","html-keyboard-response","498","888618","0.0-1.0-661.0","0","0","97856","","null","","","null","73","","NaN","","","","","","","","","","","","","",""
"","response","","html-keyboard-response","499","889244","0.0-1.0-662.0","0","0","97856","","624","","","75","73","","","2","73","training","adjacent","GF","7","6","M.jpg","P.jpg","0","0","1","",""
"","feedback","","html-keyboard-response","500","890250","0.0-1.0-663.0-0.0","0","0","97856","","null","","","null","73","","","","","","","","","","","","","","","",""
"","ITI","","html-keyboard-response","501","891251","0.0-1.0-666.0","0","0","97856","","null","","","null","73","","","","","","","","","","","","","","","NaN",""
"","S1","","html-keyboard-response","502","891504","0.0-1.0-668.0","0","0","97856","","null","","","null","74","","","","","","","","","","","","","","","",""
"","ISI","","html-keyboard-response","503","893506","0.0-1.0-669.0","0","0","97856","","null","","","null","74","NaN","","","","","","","","","","","","","","",""
"","S2","","html-keyboard-response","504","893759","0.0-1.0-670.0","0","0","97856","","null","","","null","74","","NaN","","","","","","","","","","","","","",""
"","response","","html-keyboard-response","505","894870","0.0-1.0-671.0","0","0","97856","","1109","","","75","74","","","2","74","training","adjacent","DC","4","3","N.jpg","Q.jpg","0","0","1","",""
"","feedback","","html-keyboard-response","506","895873","0.0-1.0-672.0-0.0","0","0","97856","","null","","","null","74","","","","","","","","","","","","","","","",""
"","ITI","","html-keyboard-response","507","896875","0.0-1.0-675.0","0","0","97856","","null","","","null","74","","","","","","","","","","","","","","","NaN",""
"","S1","","html-keyboard-response","508","897160","0.0-1.0-677.0","0","0","97856","","null","","","null","75","","","","","","","","","","","","","","","",""
"","ISI","","html-keyboard-response","509","899160","0.0-1.0-678.0","0","0","97856","","null","","","null","75","NaN","","","","","","","","","","","","","","",""
"","S2","","html-keyboard-response","510","899413","0.0-1.0-679.0","0","0","97856","","null","","","null","75","","NaN","","","","","","","","","","","","","",""
"","response","","html-keyboard-response","511","900019","0.0-1.0-680.0","0","0","97856","","605","","","68","75","","","2","75","training","adjacent","CB","3","2","Q.jpg","R.jpg","1","0","0","",""
"","feedback","","html-keyboard-response","512","901022","0.0-1.0-681.0-0.0","0","0","97856","","null","","","null","75","","","","","","","","","","","","","","","",""
"","time_out","","html-keyboard-response","513","903024","0.0-1.0-683.0-0.0","0","0","97856","","null","","","null","75","","","","","","","","","","","","","","","",""
"","ITI","","html-keyboard-response","514","904025","0.0-1.0-684.0","0","0","97856","","834","","","75","75","","","","","","","","","","","","","","","k",""
"","S1","","html-keyboard-response","515","904277","0.0-1.0-686.0","0","0","97856","","null","","","null","76","","","","","","","","","","","","","","","",""
"","ISI","","html-keyboard-response","516","906280","0.0-1.0-687.0","0","0","97856","","340","","","75","76","k","","","","","","","","","","","","","","",""
"","S2","","html-keyboard-response","517","906531","0.0-1.0-688.0","0","0","97856","","null","","","null","76","","NaN","","","","","","","","","","","","","",""
"","response","","html-keyboard-response","518","906879","0.0-1.0-689.0","0","0","97856","","346","","","68","76","","","2","76","training","adjacent","CD","3","4","Q.jpg","N.jpg","1","1","1","",""
"","feedback","","html-keyboard-response","519","907881","0.0-1.0-690.0-0.0","0","0","97856","","null","","","null","76","","","","","","","","","","","","","","","",""
"","ITI","","html-keyboard-response","520","908882","0.0-1.0-693.0","0","0","97856","","338","","","75","76","","","","","","","","","","","","","","","k",""
"","S1","","html-keyboard-response","521","909136","0.0-1.0-695.0","0","0","97856","","null","","","null","77","","","","","","","","","","","","","","","",""
"","ISI","","html-keyboard-response","522","911139","0.0-1.0-696.0","0","0","97856","","62","","","75","77","k","","","","","","","","","","","","","","",""
"","S2","","html-keyboard-response","523","911391","0.0-1.0-697.0","0","0","97856","","null","","","null","77","","NaN","","","","","","","","","","","","","",""
"","response","","html-keyboard-response","524","911579","0.0-1.0-698.0","0","0","97856","","187","","","75","77","","","2","77","training","adjacent","AB","1","2","O.jpg","R.jpg","0","1","0","",""
"","feedback","","html-keyboard-response","525","912582","0.0-1.0-699.0-0.0","0","0","97856","","null","","","null","77","","","","","","","","","","","","","","","",""
"","time_out","","html-keyboard-response","526","914585","0.0-1.0-701.0-0.0","0","0","97856","","null","","","null","77","","","","","","","","","","","","","","","",""
"","ITI","","html-keyboard-response","527","915586","0.0-1.0-702.0","0","0","97856","","663","","","75","77","","","","","","","","","","","","","","","k",""
"","S1","","html-keyboard-response","528","915839","0.0-1.0-704.0","0","0","97856","","null","","","null","78","","","","","","","","","","","","","","","",""
"","ISI","","html-keyboard-response","529","917839","0.0-1.0-705.0","0","0","97856","","430","","","75","78","k","","","","","","","","","","","","","","",""
"","S2","","html-keyboard-response","530","918091","0.0-1.0-706.0","0","0","97856","","null","","","null","78","","NaN","","","","","","","","","","","","","",""
"","response","","html-keyboard-response","531","918291","0.0-1.0-707.0","0","0","97856","","200","","","75","78","","","2","78","training","adjacent","BA","2","1","R.jpg","O.jpg","0","0","1","",""
"","feedback","","html-keyboard-response","532","919294","0.0-1.0-708.0-0.0","0","0","97856","","null","","","null","78","","","","","","","","","","","","","","","",""
"","ITI","","html-keyboard-response","533","920295","0.0-1.0-711.0","0","0","97856","","null","","","null","78","","","","","","","","","","","","","","","NaN",""
"","S1","","html-keyboard-response","534","920547","0.0-1.0-713.0","0","0","97856","","null","","","null","79","","","","","","","","","","","","","","","",""
"","ISI","","html-keyboard-response","535","922550","0.0-1.0-714.0","0","0","97856","","960","","","75","79","k","","","","","","","","","","","","","","",""
"","S2","","html-keyboard-response","536","922805","0.0-1.0-715.0","0","0","97856","","null","","","null","79","","NaN","","","","","","","","","","","","","",""
"","response","","html-keyboard-response","537","923131","0.0-1.0-716.0","0","0","97856","","323","","","75","79","","","2","79","training","adjacent","EF","5","6","L.jpg","P.jpg","0","1","0","",""
"","feedback","","html-keyboard-response","538","924132","0.0-1.0-717.0-0.0","0","0","97856","","null","","","null","79","","","","","","","","","","","","","","","",""
"","time_out","","html-keyboard-response","539","926135","0.0-1.0-719.0-0.0","0","0","97856","","null","","","null","79","","","","","","","","","","","","","","","",""
"","ITI","","html-keyboard-response","540","927137","0.0-1.0-720.0","0","0","97856","","null","","","null","79","","","","","","","","","","","","","","","NaN",""
"","S1","","html-keyboard-response","541","927389","0.0-1.0-722.0","0","0","97856","","null","","","null","80","","","","","","","","","","","","","","","",""
"","ISI","","html-keyboard-response","542","929391","0.0-1.0-723.0","0","0","97856","","209","","","75","80","k","","","","","","","","","","","","","","",""
"","S2","","html-keyboard-response","543","929643","0.0-1.0-724.0","0","0","97856","","null","","","null","80","","NaN","","","","","","","","","","","","","",""
"","response","","html-keyboard-response","544","929956","0.0-1.0-725.0","0","0","97856","","311","","","75","80","","","2","80","training","adjacent","FE","6","5","P.jpg","L.jpg","0","0","1","",""
"","feedback","","html-keyboard-response","545","930958","0.0-1.0-726.0-0.0","0","0","97856","","null","","","null","80","","","","","","","","","","","","","","","",""
"","ITI","","html-keyboard-response","546","931959","0.0-1.0-729.0","0","0","97856","","940","","","75","80","","","","","","","","","","","","","","","k",""
"","S1","","html-keyboard-response","547","932212","0.0-1.0-731.0","0","0","97856","","null","","","null","81","","","","","","","","","","","","","","","",""
"","ISI","","html-keyboard-response","548","934215","0.0-1.0-732.0","0","0","97856","","276","","","75","81","k","","","","","","","","","","","","","","",""
"","S2","","html-keyboard-response","549","934466","0.0-1.0-733.0","0","0","97856","","114","","","75","81","","k","","","","","","","","","","","","","",""
"","response","","html-keyboard-response","550","935321","0.0-1.0-734.0","0","0","97856","","853","","","75","81","","","2","81","training","adjacent","CD","3","4","Q.jpg","N.jpg","0","1","0","",""
"","feedback","","html-keyboard-response","551","936323","0.0-1.0-735.0-0.0","0","0","97856","","null","","","null","81","","","","","","","","","","","","","","","",""
"","time_out","","html-keyboard-response","552","938326","0.0-1.0-737.0-0.0","0","0","97856","","null","","","null","81","","","","","","","","","","","","","","","",""
"","ITI","","html-keyboard-response","553","939329","0.0-1.0-738.0","0","0","97856","","172","","","75","81","","","","","","","","","","","","","","","k",""
"","S1","","html-keyboard-response","554","939581","0.0-1.0-740.0","0","0","97856","","null","","","null","82","","","","","","","","","","","","","","","",""
"","ISI","","html-keyboard-response","555","941581","0.0-1.0-741.0","0","0","97856","","358","","","75","82","k","","","","","","","","","","","","","","",""
"","S2","","html-keyboard-response","556","941833","0.0-1.0-742.0","0","0","97856","","null","","","null","82","","NaN","","","","","","","","","","","","","",""
"","response","","html-keyboard-response","557","941940","0.0-1.0-743.0","0","0","97856","","106","","","75","82","","","2","82","training","adjacent","FG","6","7","P.jpg","M.jpg","0","1","0","",""
"","feedback","","html-keyboard-response","558","942942","0.0-1.0-744.0-0.0","0","0","97856","","null","","","null","82","","","","","","","","","","","","","","","",""
"","time_out","","html-keyboard-response","559","944944","0.0-1.0-746.0-0.0","0","0","97856","","null","","","null","82","","","","","","","","","","","","","","","",""
"","ITI","","html-keyboard-response","560","945945","0.0-1.0-747.0","0","0","97856","","null","","","null","82","","","","","","","","","","","","","","","NaN",""
"","S1","","html-keyboard-response","561","946198","0.0-1.0-749.0","0","0","97856","","null","","","null","83","","","","","","","","","","","","","","","",""
"","ISI","","html-keyboard-response","562","948200","0.0-1.0-750.0","0","0","97856","","null","","","null","83","NaN","","","","","","","","","","","","","","",""
"","S2","","html-keyboard-response","563","948454","0.0-1.0-751.0","0","0","97856","","null","","","null","83","","NaN","","","","","","","","","","","","","",""
"","response","","html-keyboard-response","564","948909","0.0-1.0-752.0","0","0","97856","","455","","","68","83","","","2","83","training","adjacent","FG","6","7","P.jpg","M.jpg","1","1","1","",""
"","feedback","","html-keyboard-response","565","949913","0.0-1.0-753.0-0.0","0","0","97856","","null","","","null","83","","","","","","","","","","","","","","","",""
"","ITI","","html-keyboard-response","566","950914","0.0-1.0-756.0","0","0","97856","","null","","","null","83","","","","","","","","","","","","","","","NaN",""
"","S1","","html-keyboard-response","567","951166","0.0-1.0-758.0","0","0","97856","","null","","","null","84","","","","","","","","","","","","","","","",""
"","ISI","","html-keyboard-response","568","953168","0.0-1.0-759.0","0","0","97856","","null","","","null","84","NaN","","","","","","","","","","","","","","",""
"","S2","","html-keyboard-response","569","953421","0.0-1.0-760.0","0","0","97856","","null","","","null","84","","NaN","","","","","","","","","","","","","",""
"","response","","html-keyboard-response","570","954090","0.0-1.0-761.0","0","0","97856","","665","","","75","84","","","2","84","training","adjacent","BA","2","1","R.jpg","O.jpg","0","0","1","",""
"","feedback","","html-keyboard-response","571","955100","0.0-1.0-762.0-0.0","0","0","97856","","null","","","null","84","","","","","","","","","","","","","","","",""
"","ITI","","html-keyboard-response","572","956102","0.0-1.0-765.0","0","0","97856","","null","","","null","84","","","","","","","","","","","","","","","NaN",""
"","S1","","html-keyboard-response","573","956354","0.0-1.0-767.0","0","0","97856","","null","","","null","85","","","","","","","","","","","","","","","",""
"","ISI","","html-keyboard-response","574","958357","0.0-1.0-768.0","0","0","97856","","null","","","null","85","NaN","","","","","","","","","","","","","","",""
"","S2","","html-keyboard-response","575","958610","0.0-1.0-769.0","0","0","97856","","null","","","null","85","","NaN","","","","","","","","","","","","","",""
"","response","","html-keyboard-response","576","959329","0.0-1.0-770.0","0","0","97856","","717","","","75","85","","","2","85","training","adjacent","AB","1","2","O.jpg","R.jpg","0","1","0","",""
"","feedback","","html-keyboard-response","577","960332","0.0-1.0-771.0-0.0","0","0","97856","","null","","","null","85","","","","","","","","","","","","","","","",""
"","time_out","","html-keyboard-response","578","962335","0.0-1.0-773.0-0.0","0","0","97856","","null","","","null","85","","","","","","","","","","","","","","","",""
"","ITI","","html-keyboard-response","579","963336","0.0-1.0-774.0","0","0","97856","","null","","","null","85","","","","","","","","","","","","","","","NaN",""
"","S1","","html-keyboard-response","580","963588","0.0-1.0-776.0","0","0","97856","","null","","","null","86","","","","","","","","","","","","","","","",""
"","ISI","","html-keyboard-response","581","965589","0.0-1.0-777.0","0","0","97856","","null","","","null","86","NaN","","","","","","","","","","","","","","",""
"","S2","","html-keyboard-response","582","965841","0.0-1.0-778.0","0","0","97856","","null","","","null","86","","NaN","","","","","","","","","","","","","",""
"","response","","html-keyboard-response","583","966669","0.0-1.0-779.0","0","0","97856","","826","","","75","86","","","2","86","training","adjacent","FG","6","7","P.jpg","M.jpg","0","1","0","",""
"","feedback","","html-keyboard-response","584","967671","0.0-1.0-780.0-0.0","0","0","97856","","null","","","null","86","","","","","","","","","","","","","","","",""
