"success","ttype","start_time","trial_type","trial_index","time_elapsed","internal_node_id","warning","missed_checkup","PID","view_history","rt","responses","repeat_instructions","key_press","index","keypress_isi","keypress_S2","block","trial_num","phase","group_type","pair_type","S1_stim","S2_stim","S1_img","S2_img","S1_chosen","S1_higher","accuracy","keypress_iti","total_bonus_tally"
"true","full_screen","d08012022hr1741","fullscreen","0","326919","0.0-0.0","0","0","80191","","","","","","","","","","","","","","","","","","","","","",""
"","instructions","","instructions","1","369477","0.0-1.0-0.0-0.0","0","0","80191","[{""page_index"":0,""viewing_time"":12244},{""page_index"":1,""viewing_time"":12414},{""page_index"":2,""viewing_time"":15183},{""page_index"":3,""viewing_time"":2712}]","42555","","","","","","","","","","","","","","","","","","","",""
"","comprehension_check","","survey-multi-choice","2","437973","0.0-1.0-0.0-1.0","0","0","80191","","68489","{""Q0"":""True"",""Q1"":""D"",""Q2"":""When you see the prompt 'MAKE A CHOICE' after the second image was presented"",""Q3"":""Green mark"",""Q4"":""either D or K""}","1","","","","","","","","","","","","","","","","","",""
"","missed_instruction_checkup","","html-keyboard-response","3","441218","0.0-1.0-0.0-2.0-0.0","0","1","80191","","3241","","","32","","","","","","","","","","","","","","","","",""
"","instructions","","instructions","4","455815","0.0-1.0-0.1-0.1","0","0","80191","[{""page_index"":0,""viewing_time"":8028},{""page_index"":1,""viewing_time"":1798},{""page_index"":2,""viewing_time"":3539},{""page_index"":3,""viewing_time"":1230}]","14595","","","","","","","","","","","","","","","","","","","",""
"","comprehension_check","","survey-multi-choice","5","480092","0.0-1.0-0.1-1.1","0","0","80191","","24268","{""Q0"":""True"",""Q1"":""D"",""Q2"":""When you see the prompt 'MAKE A CHOICE' after the second image was presented"",""Q3"":""Green mark"",""Q4"":""either D or K""}","1","","","","","","","","","","","","","","","","","",""
"","missed_instruction_checkup","","html-keyboard-response","6","481840","0.0-1.0-0.1-2.1-0.1","0","1","80191","","1745","","","32","","","","","","","","","","","","","","","","",""
"","instructions","","instructions","7","520404","0.0-1.0-0.2-0.2","0","0","80191","[{""page_index"":0,""viewing_time"":3899},{""page_index"":1,""viewing_time"":11436},{""page_index"":2,""viewing_time"":21914},{""page_index"":3,""viewing_time"":1313}]","38562","","","","","","","","","","","","","","","","","","","",""
"","comprehension_check","","survey-multi-choice","8","547717","0.0-1.0-0.2-1.2","0","0","80191","","27302","{""Q0"":""False"",""Q1"":""D"",""Q2"":""When you see the prompt 'MAKE A CHOICE' after the second image was presented"",""Q3"":""Green mark"",""Q4"":""either D or K""}","1","","","","","","","","","","","","","","","","","",""
"","missed_instruction_checkup","","html-keyboard-response","9","549807","0.0-1.0-0.2-2.2-0.2","0","1","80191","","2087","","","32","","","","","","","","","","","","","","","","",""
"","instructions","","instructions","10","591577","0.0-1.0-0.3-0.3","0","0","80191","[{""page_index"":0,""viewing_time"":27556},{""page_index"":1,""viewing_time"":10877},{""page_index"":2,""viewing_time"":2073},{""page_index"":3,""viewing_time"":1261}]","41768","","","","","","","","","","","","","","","","","","","",""
"","comprehension_check","","survey-multi-choice","11","604820","0.0-1.0-0.3-1.3","0","0","80191","","13235","{""Q0"":""True"",""Q1"":""K"",""Q2"":""When you see the prompt 'MAKE A CHOICE' after the second image was presented"",""Q3"":""Green mark"",""Q4"":""either D or K""}","0","","","","","","","","","","","","","","","","","",""
"","start_exp","","html-keyboard-response","12","653242","0.0-1.0-1.0","0","0","80191","","48420","","","32","","","","","","","","","","","","","","","","",""
"","S1","","html-keyboard-response","13","653500","0.0-1.0-2.0","0","0","80191","","null","","","null","0","","","","","","","","","","","","","","","",""
"","ISI","","html-keyboard-response","14","655509","0.0-1.0-3.0","0","0","80191","","1508","","","68","0","d","","","","","","","","","","","","","","",""
"","S2","","html-keyboard-response","15","655773","0.0-1.0-4.0","0","0","80191","","null","","","null","0","","NaN","","","","","","","","","","","","","",""
"","response","","html-keyboard-response","16","656542","0.0-1.0-5.0","0","0","80191","","767","","","68","0","","","1","0","training","adjacent","FE","6","5","Q.jpg","N.jpg","0","0","1","",""
"","feedback","","html-keyboard-response","17","657554","0.0-1.0-6.0-0.0","0","0","80191","","null","","","null","0","","","","","","","","","","","","","","","",""
"","ITI","","html-keyboard-response","18","658560","0.0-1.0-9.0","0","0","80191","","null","","","null","0","","","","","","","","","","","","","","","NaN",""
"","S1","","html-keyboard-response","19","658818","0.0-1.0-11.0","0","0","80191","","null","","","null","1","","","","","","","","","","","","","","","",""
"","ISI","","html-keyboard-response","20","660827","0.0-1.0-12.0","0","0","80191","","105","","","75","1","k","","","","","","","","","","","","","","",""
"","S2","","html-keyboard-response","21","661085","0.0-1.0-13.0","0","0","80191","","null","","","null","1","","NaN","","","","","","","","","","","","","",""
"","response","","html-keyboard-response","22","661145","0.0-1.0-14.0","0","0","80191","","58","","","75","1","","","1","1","training","adjacent","BA","2","1","M.jpg","O.jpg","1","0","0","",""
"","feedback","","html-keyboard-response","23","662153","0.0-1.0-15.0-0.0","0","0","80191","","null","","","null","1","","","","","","","","","","","","","","","",""
"","time_out","","html-keyboard-response","24","664162","0.0-1.0-17.0-0.0","0","0","80191","","null","","","null","1","","","","","","","","","","","","","","","",""
"","ITI","","html-keyboard-response","25","665173","0.0-1.0-18.0","0","0","80191","","null","","","null","1","","","","","","","","","","","","","","","NaN",""
"","S1","","html-keyboard-response","26","665431","0.0-1.0-20.0","0","0","80191","","null","","","null","2","","","","","","","","","","","","","","","",""
"","ISI","","html-keyboard-response","27","667442","0.0-1.0-21.0","0","0","80191","","142","","","68","2","d","","","","","","","","","","","","","","",""
"","S2","","html-keyboard-response","28","667699","0.0-1.0-22.0","0","0","80191","","null","","","null","2","","NaN","","","","","","","","","","","","","",""
"","response","","html-keyboard-response","29","667834","0.0-1.0-23.0","0","0","80191","","132","","","75","2","","","1","2","training","adjacent","BA","2","1","M.jpg","O.jpg","1","0","0","",""
"","feedback","","html-keyboard-response","30","668846","0.0-1.0-24.0-0.0","0","0","80191","","null","","","null","2","","","","","","","","","","","","","","","",""
"","time_out","","html-keyboard-response","31","670852","0.0-1.0-26.0-0.0","0","0","80191","","null","","","null","2","","","","","","","","","","","","","","","",""
"","ITI","","html-keyboard-response","32","671861","0.0-1.0-27.0","0","0","80191","","null","","","null","2","","","","","","","","","","","","","","","NaN",""
"","S1","","html-keyboard-response","33","672117","0.0-1.0-29.0","0","0","80191","","null","","","null","3","","","","","","","","","","","","","","","",""
"","ISI","","html-keyboard-response","34","674126","0.0-1.0-30.0","0","0","80191","","null","","","null","3","NaN","","","","","","","","","","","","","","",""
"","S2","","html-keyboard-response","35","674381","0.0-1.0-31.0","0","0","80191","","null","","","null","3","","NaN","","","","","","","","","","","","","",""
"","response","","html-keyboard-response","36","674640","0.0-1.0-32.0","0","0","80191","","257","","","75","3","","","1","3","training","adjacent","EF","5","6","N.jpg","Q.jpg","1","1","1","",""
"","feedback","","html-keyboard-response","37","675643","0.0-1.0-33.0-0.0","0","0","80191","","null","","","null","3","","","","","","","","","","","","","","","",""
"","ITI","","html-keyboard-response","38","676652","0.0-1.0-36.0","0","0","80191","","null","","","null","3","","","","","","","","","","","","","","","NaN",""
"","S1","","html-keyboard-response","39","676905","0.0-1.0-38.0","0","0","80191","","null","","","null","4","","","","","","","","","","","","","","","",""
"","ISI","","html-keyboard-response","40","678910","0.0-1.0-39.0","0","0","80191","","392","","","68","4","d","","","","","","","","","","","","","","",""
"","S2","","html-keyboard-response","41","679163","0.0-1.0-40.0","0","0","80191","","null","","","null","4","","NaN","","","","","","","","","","","","","",""
"","response","","html-keyboard-response","42","679528","0.0-1.0-41.0","0","0","80191","","363","","","75","4","","","1","4","training","adjacent","FG","6","7","Q.jpg","L.jpg","1","1","1","",""
"","feedback","","html-keyboard-response","43","680538","0.0-1.0-42.0-0.0","0","0","80191","","null","","","null","4","","","","","","","","","","","","","","","",""
"","ITI","","html-keyboard-response","44","681551","0.0-1.0-45.0","0","0","80191","","null","","","null","4","","","","","","","","","","","","","","","NaN",""
"","S1","","html-keyboard-response","45","681806","0.0-1.0-47.0","0","0","80191","","null","","","null","5","","","","","","","","","","","","","","","",""
"","ISI","","html-keyboard-response","46","683816","0.0-1.0-48.0","0","0","80191","","null","","","null","5","NaN","","","","","","","","","","","","","","",""
"","S2","","html-keyboard-response","47","684071","0.0-1.0-49.0","0","0","80191","","null","","","null","5","","NaN","","","","","","","","","","","","","",""
"","response","","html-keyboard-response","48","684173","0.0-1.0-50.0","0","0","80191","","101","","","75","5","","","1","5","training","adjacent","DE","4","5","P.jpg","N.jpg","1","1","1","",""
"","feedback","","html-keyboard-response","49","685182","0.0-1.0-51.0-0.0","0","0","80191","","null","","","null","5","","","","","","","","","","","","","","","",""
"","ITI","","html-keyboard-response","50","686197","0.0-1.0-54.0","0","0","80191","","null","","","null","5","","","","","","","","","","","","","","","NaN",""
"","S1","","html-keyboard-response","51","686457","0.0-1.0-56.0","0","0","80191","","null","","","null","6","","","","","","","","","","","","","","","",""
"","ISI","","html-keyboard-response","52","688465","0.0-1.0-57.0","0","0","80191","","null","","","null","6","NaN","","","","","","","","","","","","","","",""
"","S2","","html-keyboard-response","53","688721","0.0-1.0-58.0","0","0","80191","","null","","","null","6","","NaN","","","","","","","","","","","","","",""
"","response","","html-keyboard-response","54","689076","0.0-1.0-59.0","0","0","80191","","354","","","68","6","","","1","6","training","adjacent","DE","4","5","P.jpg","N.jpg","0","1","0","",""
"","feedback","","html-keyboard-response","55","690088","0.0-1.0-60.0-0.0","0","0","80191","","null","","","null","6","","","","","","","","","","","","","","","",""
"","time_out","","html-keyboard-response","56","692092","0.0-1.0-62.0-0.0","0","0","80191","","null","","","null","6","","","","","","","","","","","","","","","",""
"","ITI","","html-keyboard-response","57","693098","0.0-1.0-63.0","0","0","80191","","null","","","null","6","","","","","","","","","","","","","","","NaN",""
"","S1","","html-keyboard-response","58","693354","0.0-1.0-65.0","0","0","80191","","null","","","null","7","","","","","","","","","","","","","","","",""
"","ISI","","html-keyboard-response","59","695362","0.0-1.0-66.0","0","0","80191","","175","","","75","7","k","","","","","","","","","","","","","","",""
"","S2","","html-keyboard-response","60","695625","0.0-1.0-67.0","0","0","80191","","null","","","null","7","","NaN","","","","","","","","","","","","","",""
"","response","","html-keyboard-response","61","695806","0.0-1.0-68.0","0","0","80191","","179","","","75","7","","","1","7","training","adjacent","GF","7","6","L.jpg","Q.jpg","1","0","0","",""
"","feedback","","html-keyboard-response","62","696810","0.0-1.0-69.0-0.0","0","0","80191","","null","","","null","7","","","","","","","","","","","","","","","",""
"","time_out","","html-keyboard-response","63","698815","0.0-1.0-71.0-0.0","0","0","80191","","null","","","null","7","","","","","","","","","","","","","","","",""
"","ITI","","html-keyboard-response","64","699824","0.0-1.0-72.0","0","0","80191","","null","","","null","7","","","","","","","","","","","","","","","NaN",""
"","S1","","html-keyboard-response","65","700078","0.0-1.0-74.0","0","0","80191","","null","","","null","8","","","","","","","","","","","","","","","",""
"","ISI","","html-keyboard-response","66","702091","0.0-1.0-75.0","0","0","80191","","163","","","75","8","k","","","","","","","","","","","","","","",""
"","S2","","html-keyboard-response","67","702348","0.0-1.0-76.0","0","0","80191","","null","","","null","8","","NaN","","","","","","","","","","","","","",""
"","response","","html-keyboard-response","68","702555","0.0-1.0-77.0","0","0","80191","","205","","","68","8","","","1","8","training","adjacent","BC","2","3","M.jpg","R.jpg","0","1","0","",""
"","feedback","","html-keyboard-response","69","703566","0.0-1.0-78.0-0.0","0","0","80191","","null","","","null","8","","","","","","","","","","","","","","","",""
"","time_out","","html-keyboard-response","70","705577","0.0-1.0-80.0-0.0","0","0","80191","","null","","","null","8","","","","","","","","","","","","","","","",""
"","ITI","","html-keyboard-response","71","706583","0.0-1.0-81.0","0","0","80191","","null","","","null","8","","","","","","","","","","","","","","","NaN",""
"","S1","","html-keyboard-response","72","706837","0.0-1.0-83.0","0","0","80191","","null","","","null","9","","","","","","","","","","","","","","","",""
"","ISI","","html-keyboard-response","73","708848","0.0-1.0-84.0","0","0","80191","","191","","","75","9","k","","","","","","","","","","","","","","",""
"","S2","","html-keyboard-response","74","709100","0.0-1.0-85.0","0","0","80191","","null","","","null","9","","NaN","","","","","","","","","","","","","",""
"","response","","html-keyboard-response","75","709305","0.0-1.0-86.0","0","0","80191","","203","","","75","9","","","1","9","training","adjacent","ED","5","4","N.jpg","P.jpg","1","0","0","",""
"","feedback","","html-keyboard-response","76","710314","0.0-1.0-87.0-0.0","0","0","80191","","null","","","null","9","","","","","","","","","","","","","","","",""
"","time_out","","html-keyboard-response","77","712318","0.0-1.0-89.0-0.0","0","0","80191","","null","","","null","9","","","","","","","","","","","","","","","",""
"","ITI","","html-keyboard-response","78","713327","0.0-1.0-90.0","0","0","80191","","null","","","null","9","","","","","","","","","","","","","","","NaN",""
"","S1","","html-keyboard-response","79","713588","0.0-1.0-92.0","0","0","80191","","null","","","null","10","","","","","","","","","","","","","","","",""
"","ISI","","html-keyboard-response","80","715595","0.0-1.0-93.0","0","0","80191","","null","","","null","10","NaN","","","","","","","","","","","","","","",""
"","S2","","html-keyboard-response","81","715853","0.0-1.0-94.0","0","0","80191","","null","","","null","10","","NaN","","","","","","","","","","","","","",""
"","response","","html-keyboard-response","82","716039","0.0-1.0-95.0","0","0","80191","","184","","","68","10","","","1","10","training","adjacent","AB","1","2","O.jpg","M.jpg","0","1","0","",""
"","feedback","","html-keyboard-response","83","717050","0.0-1.0-96.0-0.0","0","0","80191","","null","","","null","10","","","","","","","","","","","","","","","",""
"","time_out","","html-keyboard-response","84","719054","0.0-1.0-98.0-0.0","0","0","80191","","null","","","null","10","","","","","","","","","","","","","","","",""
"","ITI","","html-keyboard-response","85","720064","0.0-1.0-99.0","0","0","80191","","null","","","null","10","","","","","","","","","","","","","","","NaN",""
"","S1","","html-keyboard-response","86","720323","0.0-1.0-101.0","0","0","80191","","null","","","null","11","","","","","","","","","","","","","","","",""
"","ISI","","html-keyboard-response","87","722328","0.0-1.0-102.0","0","0","80191","","582","","","75","11","k","","","","","","","","","","","","","","",""
"","S2","","html-keyboard-response","88","722587","0.0-1.0-103.0","0","0","80191","","null","","","null","11","","NaN","","","","","","","","","","","","","",""
"","response","","html-keyboard-response","89","722719","0.0-1.0-104.0","0","0","80191","","130","","","75","11","","","1","11","training","adjacent","CB","3","2","R.jpg","M.jpg","1","0","0","",""
"","feedback","","html-keyboard-response","90","723726","0.0-1.0-105.0-0.0","0","0","80191","","null","","","null","11","","","","","","","","","","","","","","","",""
"","time_out","","html-keyboard-response","91","725738","0.0-1.0-107.0-0.0","0","0","80191","","null","","","null","11","","","","","","","","","","","","","","","",""
"","ITI","","html-keyboard-response","92","726742","0.0-1.0-108.0","0","0","80191","","null","","","null","11","","","","","","","","","","","","","","","NaN",""
"","S1","","html-keyboard-response","93","726996","0.0-1.0-110.0","0","0","80191","","null","","","null","12","","","","","","","","","","","","","","","",""
"","ISI","","html-keyboard-response","94","729007","0.0-1.0-111.0","0","0","80191","","244","","","68","12","d","","","","","","","","","","","","","","",""
"","S2","","html-keyboard-response","95","729266","0.0-1.0-112.0","0","0","80191","","null","","","null","12","","NaN","","","","","","","","","","","","","",""
"","response","","html-keyboard-response","96","729354","0.0-1.0-113.0","0","0","80191","","86","","","75","12","","","1","12","training","adjacent","DE","4","5","P.jpg","N.jpg","1","1","1","",""
"","feedback","","html-keyboard-response","97","730360","0.0-1.0-114.0-0.0","0","0","80191","","null","","","null","12","","","","","","","","","","","","","","","",""
"","ITI","","html-keyboard-response","98","731370","0.0-1.0-117.0","0","0","80191","","null","","","null","12","","","","","","","","","","","","","","","NaN",""
"","S1","","html-keyboard-response","99","731632","0.0-1.0-119.0","0","0","80191","","null","","","null","13","","","","","","","","","","","","","","","",""
"","ISI","","html-keyboard-response","100","733638","0.0-1.0-120.0","0","0","80191","","null","","","null","13","NaN","","","","","","","","","","","","","","",""
"","S2","","html-keyboard-response","101","733895","0.0-1.0-121.0","0","0","80191","","null","","","null","13","","NaN","","","","","","","","","","","","","",""
"","response","","html-keyboard-response","102","734059","0.0-1.0-122.0","0","0","80191","","162","","","68","13","","","1","13","training","adjacent","CB","3","2","R.jpg","M.jpg","0","0","1","",""
"","feedback","","html-keyboard-response","103","735074","0.0-1.0-123.0-0.0","0","0","80191","","null","","","null","13","","","","","","","","","","","","","","","",""
"","ITI","","html-keyboard-response","104","736082","0.0-1.0-126.0","0","0","80191","","null","","","null","13","","","","","","","","","","","","","","","NaN",""
"","S1","","html-keyboard-response","105","736341","0.0-1.0-128.0","0","0","80191","","null","","","null","14","","","","","","","","","","","","","","","",""
"","ISI","","html-keyboard-response","106","738345","0.0-1.0-129.0","0","0","80191","","null","","","null","14","NaN","","","","","","","","","","","","","","",""
"","S2","","html-keyboard-response","107","738601","0.0-1.0-130.0","0","0","80191","","null","","","null","14","","NaN","","","","","","","","","","","","","",""
"","response","","html-keyboard-response","108","738740","0.0-1.0-131.0","0","0","80191","","137","","","75","14","","","1","14","training","adjacent","EF","5","6","N.jpg","Q.jpg","1","1","1","",""
"","feedback","","html-keyboard-response","109","739749","0.0-1.0-132.0-0.0","0","0","80191","","null","","","null","14","","","","","","","","","","","","","","","",""
"","ITI","","html-keyboard-response","110","740754","0.0-1.0-135.0","0","0","80191","","null","","","null","14","","","","","","","","","","","","","","","NaN",""
"","S1","","html-keyboard-response","111","741016","0.0-1.0-137.0","0","0","80191","","null","","","null","15","","","","","","","","","","","","","","","",""
"","ISI","","html-keyboard-response","112","743021","0.0-1.0-138.0","0","0","80191","","null","","","null","15","NaN","","","","","","","","","","","","","","",""
"","S2","","html-keyboard-response","113","743276","0.0-1.0-139.0","0","0","80191","","null","","","null","15","","NaN","","","","","","","","","","","","","",""
"","response","","html-keyboard-response","114","743375","0.0-1.0-140.0","0","0","80191","","97","","","68","15","","","1","15","training","adjacent","FG","6","7","Q.jpg","L.jpg","0","1","0","",""
"","feedback","","html-keyboard-response","115","744387","0.0-1.0-141.0-0.0","0","0","80191","","null","","","null","15","","","","","","","","","","","","","","","",""
"","time_out","","html-keyboard-response","116","746395","0.0-1.0-143.0-0.0","0","0","80191","","null","","","null","15","","","","","","","","","","","","","","","",""
"","ITI","","html-keyboard-response","117","747398","0.0-1.0-144.0","0","0","80191","","null","","","null","15","","","","","","","","","","","","","","","NaN",""
"","S1","","html-keyboard-response","118","747655","0.0-1.0-146.0","0","0","80191","","null","","","null","16","","","","","","","","","","","","","","","",""
"","ISI","","html-keyboard-response","119","749666","0.0-1.0-147.0","0","0","80191","","null","","","null","16","NaN","","","","","","","","","","","","","","",""
"","S2","","html-keyboard-response","120","749928","0.0-1.0-148.0","0","0","80191","","null","","","null","16","","NaN","","","","","","","","","","","","","",""
"","response","","html-keyboard-response","121","749966","0.0-1.0-149.0","0","0","80191","","37","","","75","16","","","1","16","training","adjacent","DC","4","3","P.jpg","R.jpg","1","0","0","",""
"","feedback","","html-keyboard-response","122","750974","0.0-1.0-150.0-0.0","0","0","80191","","null","","","null","16","","","","","","","","","","","","","","","",""
"","time_out","","html-keyboard-response","123","752980","0.0-1.0-152.0-0.0","0","0","80191","","null","","","null","16","","","","","","","","","","","","","","","",""
"","ITI","","html-keyboard-response","124","753984","0.0-1.0-153.0","0","0","80191","","null","","","null","16","","","","","","","","","","","","","","","NaN",""
"","S1","","html-keyboard-response","125","754240","0.0-1.0-155.0","0","0","80191","","null","","","null","17","","","","","","","","","","","","","","","",""
"","ISI","","html-keyboard-response","126","756247","0.0-1.0-156.0","0","0","80191","","null","","","null","17","NaN","","","","","","","","","","","","","","",""
"","S2","","html-keyboard-response","127","756512","0.0-1.0-157.0","0","0","80191","","null","","","null","17","","NaN","","","","","","","","","","","","","",""
"","response","","html-keyboard-response","128","756910","0.0-1.0-158.0","0","0","80191","","395","","","75","17","","","1","17","training","adjacent","FE","6","5","Q.jpg","N.jpg","1","0","0","",""
"","feedback","","html-keyboard-response","129","757918","0.0-1.0-159.0-0.0","0","0","80191","","null","","","null","17","","","","","","","","","","","","","","","",""
"","time_out","","html-keyboard-response","130","759921","0.0-1.0-161.0-0.0","0","0","80191","","null","","","null","17","","","","","","","","","","","","","","","",""
"","ITI","","html-keyboard-response","131","760930","0.0-1.0-162.0","0","0","80191","","null","","","null","17","","","","","","","","","","","","","","","NaN",""
"","S1","","html-keyboard-response","132","761184","0.0-1.0-164.0","0","0","80191","","null","","","null","18","","","","","","","","","","","","","","","",""
"","ISI","","html-keyboard-response","133","763194","0.0-1.0-165.0","0","0","80191","","null","","","null","18","NaN","","","","","","","","","","","","","","",""
"","S2","","html-keyboard-response","134","763449","0.0-1.0-166.0","0","0","80191","","null","","","null","18","","NaN","","","","","","","","","","","","","",""
"","response","","html-keyboard-response","135","763908","0.0-1.0-167.0","0","0","80191","","458","","","75","18","","","1","18","training","adjacent","AB","1","2","O.jpg","M.jpg","1","1","1","",""
"","feedback","","html-keyboard-response","136","764911","0.0-1.0-168.0-0.0","0","0","80191","","null","","","null","18","","","","","","","","","","","","","","","",""
"","ITI","","html-keyboard-response","137","765914","0.0-1.0-171.0","0","0","80191","","null","","","null","18","","","","","","","","","","","","","","","NaN",""
"","S1","","html-keyboard-response","138","766173","0.0-1.0-173.0","0","0","80191","","null","","","null","19","","","","","","","","","","","","","","","",""
"","ISI","","html-keyboard-response","139","768183","0.0-1.0-174.0","0","0","80191","","null","","","null","19","NaN","","","","","","","","","","","","","","",""
"","S2","","html-keyboard-response","140","768444","0.0-1.0-175.0","0","0","80191","","null","","","null","19","","NaN","","","","","","","","","","","","","",""
"","response","","html-keyboard-response","141","769175","0.0-1.0-176.0","0","0","80191","","729","","","75","19","","","1","19","training","adjacent","GF","7","6","L.jpg","Q.jpg","1","0","0","",""
"","feedback","","html-keyboard-response","142","770192","0.0-1.0-177.0-0.0","0","0","80191","","null","","","null","19","","","","","","","","","","","","","","","",""
"","time_out","","html-keyboard-response","143","772204","0.0-1.0-179.0-0.0","0","0","80191","","null","","","null","19","","","","","","","","","","","","","","","",""
"","ITI","","html-keyboard-response","144","773214","0.0-1.0-180.0","0","0","80191","","null","","","null","19","","","","","","","","","","","","","","","NaN",""
"","S1","","html-keyboard-response","145","773472","0.0-1.0-182.0","0","0","80191","","null","","","null","20","","","","","","","","","","","","","","","",""
"","ISI","","html-keyboard-response","146","775475","0.0-1.0-183.0","0","0","80191","","null","","","null","20","NaN","","","","","","","","","","","","","","",""
"","S2","","html-keyboard-response","147","775735","0.0-1.0-184.0","0","0","80191","","null","","","null","20","","NaN","","","","","","","","","","","","","",""
"","response","","html-keyboard-response","148","776089","0.0-1.0-185.0","0","0","80191","","352","","","75","20","","","1","20","training","adjacent","CD","3","4","R.jpg","P.jpg","1","1","1","",""
"","feedback","","html-keyboard-response","149","777092","0.0-1.0-186.0-0.0","0","0","80191","","null","","","null","20","","","","","","","","","","","","","","","",""
"","ITI","","html-keyboard-response","150","778094","0.0-1.0-189.0","0","0","80191","","null","","","null","20","","","","","","","","","","","","","","","NaN",""
"","S1","","html-keyboard-response","151","778354","0.0-1.0-191.0","0","0","80191","","null","","","null","21","","","","","","","","","","","","","","","",""
"","ISI","","html-keyboard-response","152","780357","0.0-1.0-192.0","0","0","80191","","39","","","68","21","d","","","","","","","","","","","","","","",""
"","S2","","html-keyboard-response","153","780622","0.0-1.0-193.0","0","0","80191","","null","","","null","21","","NaN","","","","","","","","","","","","","",""
"","response","","html-keyboard-response","154","780670","0.0-1.0-194.0","0","0","80191","","45","","","68","21","","","1","21","training","adjacent","FE","6","5","Q.jpg","N.jpg","0","0","1","",""
"","feedback","","html-keyboard-response","155","781683","0.0-1.0-195.0-0.0","0","0","80191","","null","","","null","21","","","","","","","","","","","","","","","",""
"","ITI","","html-keyboard-response","156","782690","0.0-1.0-198.0","0","0","80191","","null","","","null","21","","","","","","","","","","","","","","","NaN",""
"","S1","","html-keyboard-response","157","782952","0.0-1.0-200.0","0","0","80191","","null","","","null","22","","","","","","","","","","","","","","","",""
"","ISI","","html-keyboard-response","158","784963","0.0-1.0-201.0","0","0","80191","","null","","","null","22","NaN","","","","","","","","","","","","","","",""
"","S2","","html-keyboard-response","159","785220","0.0-1.0-202.0","0","0","80191","","null","","","null","22","","NaN","","","","","","","","","","","","","",""
"","response","","html-keyboard-response","160","785713","0.0-1.0-203.0","0","0","80191","","492","","","68","22","","","1","22","training","adjacent","CD","3","4","R.jpg","P.jpg","0","1","0","",""
"","feedback","","html-keyboard-response","161","786721","0.0-1.0-204.0-0.0","0","0","80191","","null","","","null","22","","","","","","","","","","","","","","","",""
"","time_out","","html-keyboard-response","162","788731","0.0-1.0-206.0-0.0","0","0","80191","","null","","","null","22","","","","","","","","","","","","","","","",""
"","ITI","","html-keyboard-response","163","789744","0.0-1.0-207.0","0","0","80191","","null","","","null","22","","","","","","","","","","","","","","","NaN",""
"","S1","","html-keyboard-response","164","790001","0.0-1.0-209.0","0","0","80191","","null","","","null","23","","","","","","","","","","","","","","","",""
"","ISI","","html-keyboard-response","165","792008","0.0-1.0-210.0","0","0","80191","","518","","","75","23","k","","","","","","","","","","","","","","",""
"","S2","","html-keyboard-response","166","792262","0.0-1.0-211.0","0","0","80191","","null","","","null","23","","NaN","","","","","","","","","","","","","",""
"","response","","html-keyboard-response","167","792673","0.0-1.0-212.0","0","0","80191","","409","","","75","23","","","1","23","training","adjacent","AB","1","2","O.jpg","M.jpg","1","1","1","",""
"","feedback","","html-keyboard-response","168","793682","0.0-1.0-213.0-0.0","0","0","80191","","null","","","null","23","","","","","","","","","","","","","","","",""
"","ITI","","html-keyboard-response","169","794687","0.0-1.0-216.0","0","0","80191","","null","","","null","23","","","","","","","","","","","","","","","NaN",""
"","S1","","html-keyboard-response","170","794943","0.0-1.0-218.0","0","0","80191","","null","","","null","24","","","","","","","","","","","","","","","",""
"","ISI","","html-keyboard-response","171","796949","0.0-1.0-219.0","0","0","80191","","398","","","68","24","d","","","","","","","","","","","","","","",""
"","S2","","html-keyboard-response","172","797205","0.0-1.0-220.0","0","0","80191","","null","","","null","24","","NaN","","","","","","","","","","","","","",""
"","response","","html-keyboard-response","173","797304","0.0-1.0-221.0","0","0","80191","","96","","","75","24","","","1","24","training","adjacent","EF","5","6","N.jpg","Q.jpg","1","1","1","",""
"","feedback","","html-keyboard-response","174","798311","0.0-1.0-222.0-0.0","0","0","80191","","null","","","null","24","","","","","","","","","","","","","","","",""
"","ITI","","html-keyboard-response","175","799319","0.0-1.0-225.0","0","0","80191","","null","","","null","24","","","","","","","","","","","","","","","NaN",""
"","S1","","html-keyboard-response","176","799580","0.0-1.0-227.0","0","0","80191","","null","","","null","25","","","","","","","","","","","","","","","",""
"","ISI","","html-keyboard-response","177","801583","0.0-1.0-228.0","0","0","80191","","null","","","null","25","NaN","","","","","","","","","","","","","","",""
"","S2","","html-keyboard-response","178","801841","0.0-1.0-229.0","0","0","80191","","null","","","null","25","","NaN","","","","","","","","","","","","","",""
"","response","","html-keyboard-response","179","802203","0.0-1.0-230.0","0","0","80191","","358","","","75","25","","","1","25","training","adjacent","ED","5","4","N.jpg","P.jpg","1","0","0","",""
"","feedback","","html-keyboard-response","180","803211","0.0-1.0-231.0-0.0","0","0","80191","","null","","","null","25","","","","","","","","","","","","","","","",""
"","time_out","","html-keyboard-response","181","805219","0.0-1.0-233.0-0.0","0","0","80191","","null","","","null","25","","","","","","","","","","","","","","","",""
"","ITI","","html-keyboard-response","182","806224","0.0-1.0-234.0","0","0","80191","","null","","","null","25","","","","","","","","","","","","","","","NaN",""
"","S1","","html-keyboard-response","183","806482","0.0-1.0-236.0","0","0","80191","","null","","","null","26","","","","","","","","","","","","","","","",""
"","ISI","","html-keyboard-response","184","808489","0.0-1.0-237.0","0","0","80191","","158","","","68","26","d","","","","","","","","","","","","","","",""
"","S2","","html-keyboard-response","185","808744","0.0-1.0-238.0","0","0","80191","","null","","","null","26","","NaN","","","","","","","","","","","","","",""
"","response","","html-keyboard-response","186","808880","0.0-1.0-239.0","0","0","80191","","134","","","75","26","","","1","26","training","adjacent","FG","6","7","Q.jpg","L.jpg","1","1","1","",""
"","feedback","","html-keyboard-response","187","809894","0.0-1.0-240.0-0.0","0","0","80191","","null","","","null","26","","","","","","","","","","","","","","","",""
"","ITI","","html-keyboard-response","188","810901","0.0-1.0-243.0","0","0","80191","","null","","","null","26","","","","","","","","","","","","","","","NaN",""
"","S1","","html-keyboard-response","189","811159","0.0-1.0-245.0","0","0","80191","","null","","","null","27","","","","","","","","","","","","","","","",""
"","ISI","","html-keyboard-response","190","813166","0.0-1.0-246.0","0","0","80191","","780","","","75","27","k","","","","","","","","","","","","","","",""
"","S2","","html-keyboard-response","191","813427","0.0-1.0-247.0","0","0","80191","","null","","","null","27","","NaN","","","","","","","","","","","","","",""
"","response","","html-keyboard-response","192","813473","0.0-1.0-248.0","0","0","80191","","43","","","75","27","","","1","27","training","adjacent","FG","6","7","Q.jpg","L.jpg","1","1","1","",""
"","feedback","","html-keyboard-response","193","814482","0.0-1.0-249.0-0.0","0","0","80191","","null","","","null","27","","","","","","","","","","","","","","","",""
"","ITI","","html-keyboard-response","194","815489","0.0-1.0-252.0","0","0","80191","","null","","","null","27","","","","","","","","","","","","","","","NaN",""
"","S1","","html-keyboard-response","195","815745","0.0-1.0-254.0","0","0","80191","","null","","","null","28","","","","","","","","","","","","","","","",""
"","ISI","","html-keyboard-response","196","817752","0.0-1.0-255.0","0","0","80191","","null","","","null","28","NaN","","","","","","","","","","","","","","",""
"","S2","","html-keyboard-response","197","818005","0.0-1.0-256.0","0","0","80191","","null","","","null","28","","NaN","","","","","","","","","","","","","",""
"","response","","html-keyboard-response","198","818332","0.0-1.0-257.0","0","0","80191","","325","","","75","28","","","1","28","training","adjacent","CD","3","4","R.jpg","P.jpg","1","1","1","",""
"","feedback","","html-keyboard-response","199","819339","0.0-1.0-258.0-0.0","0","0","80191","","null","","","null","28","","","","","","","","","","","","","","","",""
"","ITI","","html-keyboard-response","200","820346","0.0-1.0-261.0","0","0","80191","","null","","","null","28","","","","","","","","","","","","","","","NaN",""
"","S1","","html-keyboard-response","201","820609","0.0-1.0-263.0","0","0","80191","","null","","","null","29","","","","","","","","","","","","","","","",""
"","ISI","","html-keyboard-response","202","822618","0.0-1.0-264.0","0","0","80191","","null","","","null","29","NaN","","","","","","","","","","","","","","",""
"","S2","","html-keyboard-response","203","822880","0.0-1.0-265.0","0","0","80191","","null","","","null","29","","NaN","","","","","","","","","","","","","",""
"","response","","html-keyboard-response","204","822978","0.0-1.0-266.0","0","0","80191","","97","","","75","29","","","1","29","training","adjacent","BC","2","3","M.jpg","R.jpg","1","1","1","",""
"","feedback","","html-keyboard-response","205","823986","0.0-1.0-267.0-0.0","0","0","80191","","null","","","null","29","","","","","","","","","","","","","","","",""
"","ITI","","html-keyboard-response","206","824991","0.0-1.0-270.0","0","0","80191","","null","","","null","29","","","","","","","","","","","","","","","NaN",""
"","S1","","html-keyboard-response","207","825252","0.0-1.0-272.0","0","0","80191","","null","","","null","30","","","","","","","","","","","","","","","",""
"","ISI","","html-keyboard-response","208","827256","0.0-1.0-273.0","0","0","80191","","null","","","null","30","NaN","","","","","","","","","","","","","","",""
"","S2","","html-keyboard-response","209","827509","0.0-1.0-274.0","0","0","80191","","null","","","null","30","","NaN","","","","","","","","","","","","","",""
"","response","","html-keyboard-response","210","827852","0.0-1.0-275.0","0","0","80191","","341","","","75","30","","","1","30","training","adjacent","ED","5","4","N.jpg","P.jpg","1","0","0","",""
"","feedback","","html-keyboard-response","211","828861","0.0-1.0-276.0-0.0","0","0","80191","","null","","","null","30","","","","","","","","","","","","","","","",""
"","time_out","","html-keyboard-response","212","830867","0.0-1.0-278.0-0.0","0","0","80191","","null","","","null","30","","","","","","","","","","","","","","","",""
"","ITI","","html-keyboard-response","213","831875","0.0-1.0-279.0","0","0","80191","","null","","","null","30","","","","","","","","","","","","","","","NaN",""
"","S1","","html-keyboard-response","214","832135","0.0-1.0-281.0","0","0","80191","","null","","","null","31","","","","","","","","","","","","","","","",""
"","ISI","","html-keyboard-response","215","834141","0.0-1.0-282.0","0","0","80191","","600","","","75","31","k","","","","","","","","","","","","","","",""
"","S2","","html-keyboard-response","216","834399","0.0-1.0-283.0","0","0","80191","","null","","","null","31","","NaN","","","","","","","","","","","","","",""
"","response","","html-keyboard-response","217","835466","0.0-1.0-284.0","0","0","80191","","1065","","","75","31","","","1","31","training","adjacent","DC","4","3","P.jpg","R.jpg","1","0","0","",""
"","feedback","","html-keyboard-response","218","836476","0.0-1.0-285.0-0.0","0","0","80191","","null","","","null","31","","","","","","","","","","","","","","","",""
"","time_out","","html-keyboard-response","219","838486","0.0-1.0-287.0-0.0","0","0","80191","","null","","","null","31","","","","","","","","","","","","","","","",""
"","ITI","","html-keyboard-response","220","839492","0.0-1.0-288.0","0","0","80191","","null","","","null","31","","","","","","","","","","","","","","","NaN",""
"","S1","","html-keyboard-response","221","839754","0.0-1.0-290.0","0","0","80191","","null","","","null","32","","","","","","","","","","","","","","","",""
"","ISI","","html-keyboard-response","222","841758","0.0-1.0-291.0","0","0","80191","","null","","","null","32","NaN","","","","","","","","","","","","","","",""
"","S2","","html-keyboard-response","223","842014","0.0-1.0-292.0","0","0","80191","","null","","","null","32","","NaN","","","","","","","","","","","","","",""
"","response","","html-keyboard-response","224","842335","0.0-1.0-293.0","0","0","80191","","320","","","75","32","","","1","32","training","adjacent","BA","2","1","M.jpg","O.jpg","1","0","0","",""
"","feedback","","html-keyboard-response","225","843344","0.0-1.0-294.0-0.0","0","0","80191","","null","","","null","32","","","","","","","","","","","","","","","",""
"","time_out","","html-keyboard-response","226","845354","0.0-1.0-296.0-0.0","0","0","80191","","null","","","null","32","","","","","","","","","","","","","","","",""
"","ITI","","html-keyboard-response","227","846360","0.0-1.0-297.0","0","0","80191","","null","","","null","32","","","","","","","","","","","","","","","NaN",""
"","S1","","html-keyboard-response","228","846618","0.0-1.0-299.0","0","0","80191","","null","","","null","33","","","","","","","","","","","","","","","",""
"","ISI","","html-keyboard-response","229","848623","0.0-1.0-300.0","0","0","80191","","412","","","75","33","k","","","","","","","","","","","","","","",""
"","S2","","html-keyboard-response","230","848879","0.0-1.0-301.0","0","0","80191","","null","","","null","33","","NaN","","","","","","","","","","","","","",""
"","response","","html-keyboard-response","231","849201","0.0-1.0-302.0","0","0","80191","","320","","","75","33","","","1","33","training","adjacent","CB","3","2","R.jpg","M.jpg","1","0","0","",""
"","feedback","","html-keyboard-response","232","850215","0.0-1.0-303.0-0.0","0","0","80191","","null","","","null","33","","","","","","","","","","","","","","","",""
"","time_out","","html-keyboard-response","233","852217","0.0-1.0-305.0-0.0","0","0","80191","","null","","","null","33","","","","","","","","","","","","","","","",""
"","ITI","","html-keyboard-response","234","853220","0.0-1.0-306.0","0","0","80191","","null","","","null","33","","","","","","","","","","","","","","","NaN",""
"","S1","","html-keyboard-response","235","853475","0.0-1.0-308.0","0","0","80191","","null","","","null","34","","","","","","","","","","","","","","","",""
"","ISI","","html-keyboard-response","236","855478","0.0-1.0-309.0","0","0","80191","","342","","","75","34","k","","","","","","","","","","","","","","",""
"","S2","","html-keyboard-response","237","855737","0.0-1.0-310.0","0","0","80191","","null","","","null","34","","NaN","","","","","","","","","","","","","",""
"","response","","html-keyboard-response","238","855875","0.0-1.0-311.0","0","0","80191","","136","","","75","34","","","1","34","training","adjacent","CB","3","2","R.jpg","M.jpg","1","0","0","",""
"","feedback","","html-keyboard-response","239","856884","0.0-1.0-312.0-0.0","0","0","80191","","null","","","null","34","","","","","","","","","","","","","","","",""
"","time_out","","html-keyboard-response","240","858895","0.0-1.0-314.0-0.0","0","0","80191","","null","","","null","34","","","","","","","","","","","","","","","",""
"","ITI","","html-keyboard-response","241","859909","0.0-1.0-315.0","0","0","80191","","null","","","null","34","","","","","","","","","","","","","","","NaN",""
"","S1","","html-keyboard-response","242","860162","0.0-1.0-317.0","0","0","80191","","null","","","null","35","","","","","","","","","","","","","","","",""
"","ISI","","html-keyboard-response","243","862173","0.0-1.0-318.0","0","0","80191","","156","","","75","35","k","","","","","","","","","","","","","","",""
"","S2","","html-keyboard-response","244","862427","0.0-1.0-319.0","0","0","80191","","null","","","null","35","","NaN","","","","","","","","","","","","","",""
"","response","","html-keyboard-response","245","864438","0.0-1.0-320.0","0","0","80191","","null","","","null","35","","","1","35","training","adjacent","AB","1","2","O.jpg","M.jpg","NaN","1","0","",""
"","too_slow_prompt","","html-keyboard-response","246","865441","0.0-1.0-322.0-0.0","1","0","80191","","null","","","null","","","","","","","","","","","","","","","","",""
"","time_out","","html-keyboard-response","247","867451","0.0-1.0-323.0-0.0","0","0","80191","","null","","","null","35","","","","","","","","","","","","","","","",""
"","ITI","","html-keyboard-response","248","868458","0.0-1.0-324.0","0","0","80191","","null","","","null","35","","","","","","","","","","","","","","","NaN",""
"","S1","","html-keyboard-response","249","868725","0.0-1.0-326.0","0","0","80191","","null","","","null","36","","","","","","","","","","","","","","","",""
"","ISI","","html-keyboard-response","250","870728","0.0-1.0-327.0","0","0","80191","","null","","","null","36","NaN","","","","","","","","","","","","","","",""
"","S2","","html-keyboard-response","251","870984","0.0-1.0-328.0","0","0","80191","","null","","","null","36","","NaN","","","","","","","","","","","","","",""
"","response","","html-keyboard-response","252","871225","0.0-1.0-329.0","0","0","80191","","239","","","75","36","","","1","36","training","adjacent","DC","4","3","P.jpg","R.jpg","1","0","0","",""
"","feedback","","html-keyboard-response","253","872233","0.0-1.0-330.0-0.0","0","0","80191","","null","","","null","36","","","","","","","","","","","","","","","",""
"","time_out","","html-keyboard-response","254","874242","0.0-1.0-332.0-0.0","0","0","80191","","null","","","null","36","","","","","","","","","","","","","","","",""
"","ITI","","html-keyboard-response","255","875249","0.0-1.0-333.0","0","0","80191","","null","","","null","36","","","","","","","","","","","","","","","NaN",""
"","S1","","html-keyboard-response","256","875510","0.0-1.0-335.0","0","0","80191","","null","","","null","37","","","","","","","","","","","","","","","",""
"","ISI","","html-keyboard-response","257","877520","0.0-1.0-336.0","0","0","80191","","542","","","75","37","k","","","","","","","","","","","","","","",""
"","S2","","html-keyboard-response","258","877776","0.0-1.0-337.0","0","0","80191","","null","","","null","37","","NaN","","","","","","","","","","","","","",""
"","response","","html-keyboard-response","259","878195","0.0-1.0-338.0","0","0","80191","","416","","","75","37","","","1","37","training","adjacent","ED","5","4","N.jpg","P.jpg","1","0","0","",""
"","feedback","","html-keyboard-response","260","879207","0.0-1.0-339.0-0.0","0","0","80191","","null","","","null","37","","","","","","","","","","","","","","","",""
"","time_out","","html-keyboard-response","261","881214","0.0-1.0-341.0-0.0","0","0","80191","","null","","","null","37","","","","","","","","","","","","","","","",""
"","ITI","","html-keyboard-response","262","882220","0.0-1.0-342.0","0","0","80191","","23","","","75","37","","","","","","","","","","","","","","","k",""
"","S1","","html-keyboard-response","263","882478","0.0-1.0-344.0","0","0","80191","","null","","","null","38","","","","","","","","","","","","","","","",""
"","ISI","","html-keyboard-response","264","884483","0.0-1.0-345.0","0","0","80191","","259","","","75","38","k","","","","","","","","","","","","","","",""
"","S2","","html-keyboard-response","265","884745","0.0-1.0-346.0","0","0","80191","","null","","","null","38","","NaN","","","","","","","","","","","","","",""
"","response","","html-keyboard-response","266","884978","0.0-1.0-347.0","0","0","80191","","231","","","75","38","","","1","38","training","adjacent","DC","4","3","P.jpg","R.jpg","1","0","0","",""
"","feedback","","html-keyboard-response","267","885983","0.0-1.0-348.0-0.0","0","0","80191","","null","","","null","38","","","","","","","","","","","","","","","",""
"","time_out","","html-keyboard-response","268","887986","0.0-1.0-350.0-0.0","0","0","80191","","null","","","null","38","","","","","","","","","","","","","","","",""
"","ITI","","html-keyboard-response","269","888991","0.0-1.0-351.0","0","0","80191","","993","","","75","38","","","","","","","","","","","","","","","k",""
"","S1","","html-keyboard-response","270","889249","0.0-1.0-353.0","0","0","80191","","null","","","null","39","","","","","","","","","","","","","","","",""
"","ISI","","html-keyboard-response","271","891254","0.0-1.0-354.0","0","0","80191","","229","","","75","39","k","","","","","","","","","","","","","","",""
"","S2","","html-keyboard-response","272","891510","0.0-1.0-355.0","0","0","80191","","null","","","null","39","","NaN","","","","","","","","","","","","","",""
"","response","","html-keyboard-response","273","892602","0.0-1.0-356.0","0","0","80191","","1091","","","75","39","","","1","39","training","adjacent","GF","7","6","L.jpg","Q.jpg","1","0","0","",""
"","feedback","","html-keyboard-response","274","893606","0.0-1.0-357.0-0.0","0","0","80191","","null","","","null","39","","","","","","","","","","","","","","","",""
"","time_out","","html-keyboard-response","275","895610","0.0-1.0-359.0-0.0","0","0","80191","","null","","","null","39","","","","","","","","","","","","","","","",""
"","ITI","","html-keyboard-response","276","896620","0.0-1.0-360.0","0","0","80191","","212","","","75","39","","","","","","","","","","","","","","","k",""
"","S1","","html-keyboard-response","277","896874","0.0-1.0-362.0","0","0","80191","","null","","","null","40","","","","","","","","","","","","","","","",""
"","ISI","","html-keyboard-response","278","898882","0.0-1.0-363.0","0","0","80191","","74","","","75","40","k","","","","","","","","","","","","","","",""
"","S2","","html-keyboard-response","279","899135","0.0-1.0-364.0","0","0","80191","","209","","","75","40","","k","","","","","","","","","","","","","",""
"","response","","html-keyboard-response","280","899589","0.0-1.0-365.0","0","0","80191","","452","","","75","40","","","1","40","training","adjacent","GF","7","6","L.jpg","Q.jpg","1","0","0","",""
"","feedback","","html-keyboard-response","281","900601","0.0-1.0-366.0-0.0","0","0","80191","","null","","","null","40","","","","","","","","","","","","","","","",""
"","time_out","","html-keyboard-response","282","902610","0.0-1.0-368.0-0.0","0","0","80191","","null","","","null","40","","","","","","","","","","","","","","","",""
"","ITI","","html-keyboard-response","283","903620","0.0-1.0-369.0","0","0","80191","","null","","","null","40","","","","","","","","","","","","","","","NaN",""
"","S1","","html-keyboard-response","284","903874","0.0-1.0-371.0","0","0","80191","","null","","","null","41","","","","","","","","","","","","","","","",""
"","ISI","","html-keyboard-response","285","905878","0.0-1.0-372.0","0","0","80191","","null","","","null","41","NaN","","","","","","","","","","","","","","",""
"","S2","","html-keyboard-response","286","906138","0.0-1.0-373.0","0","0","80191","","null","","","null","41","","NaN","","","","","","","","","","","","","",""
"","response","","html-keyboard-response","287","906352","0.0-1.0-374.0","0","0","80191","","211","","","75","41","","","1","41","training","adjacent","CD","3","4","R.jpg","P.jpg","1","1","1","",""
"","feedback","","html-keyboard-response","288","907357","0.0-1.0-375.0-0.0","0","0","80191","","null","","","null","41","","","","","","","","","","","","","","","",""
"","ITI","","html-keyboard-response","289","908366","0.0-1.0-378.0","0","0","80191","","null","","","null","41","","","","","","","","","","","","","","","NaN",""
"","S1","","html-keyboard-response","290","908625","0.0-1.0-380.0","0","0","80191","","null","","","null","42","","","","","","","","","","","","","","","",""
"","ISI","","html-keyboard-response","291","910634","0.0-1.0-381.0","0","0","80191","","null","","","null","42","NaN","","","","","","","","","","","","","","",""
"","S2","","html-keyboard-response","292","910889","0.0-1.0-382.0","0","0","80191","","null","","","null","42","","NaN","","","","","","","","","","","","","",""
"","response","","html-keyboard-response","293","911836","0.0-1.0-383.0","0","0","80191","","946","","","75","42","","","1","42","training","adjacent","BA","2","1","M.jpg","O.jpg","1","0","0","",""
"","feedback","","html-keyboard-response","294","912843","0.0-1.0-384.0-0.0","0","0","80191","","null","","","null","42","","","","","","","","","","","","","","","",""
"","time_out","","html-keyboard-response","295","914848","0.0-1.0-386.0-0.0","0","0","80191","","null","","","null","42","","","","","","","","","","","","","","","",""
"","ITI","","html-keyboard-response","296","915857","0.0-1.0-387.0","0","0","80191","","null","","","null","42","","","","","","","","","","","","","","","NaN",""
"","S1","","html-keyboard-response","297","916114","0.0-1.0-389.0","0","0","80191","","null","","","null","43","","","","","","","","","","","","","","","",""
"","ISI","","html-keyboard-response","298","918125","0.0-1.0-390.0","0","0","80191","","567","","","75","43","k","","","","","","","","","","","","","","",""
"","S2","","html-keyboard-response","299","918381","0.0-1.0-391.0","0","0","80191","","null","","","null","43","","NaN","","","","","","","","","","","","","",""
"","response","","html-keyboard-response","300","918566","0.0-1.0-392.0","0","0","80191","","183","","","75","43","","","1","43","training","adjacent","DE","4","5","P.jpg","N.jpg","1","1","1","",""
"","feedback","","html-keyboard-response","301","919576","0.0-1.0-393.0-0.0","0","0","80191","","null","","","null","43","","","","","","","","","","","","","","","",""
"","ITI","","html-keyboard-response","302","920584","0.0-1.0-396.0","0","0","80191","","null","","","null","43","","","","","","","","","","","","","","","NaN",""
"","S1","","html-keyboard-response","303","920843","0.0-1.0-398.0","0","0","80191","","null","","","null","44","","","","","","","","","","","","","","","",""
"","ISI","","html-keyboard-response","304","922852","0.0-1.0-399.0","0","0","80191","","null","","","null","44","NaN","","","","","","","","","","","","","","",""
"","S2","","html-keyboard-response","305","923109","0.0-1.0-400.0","0","0","80191","","null","","","null","44","","NaN","","","","","","","","","","","","","",""
"","response","","html-keyboard-response","306","923439","0.0-1.0-401.0","0","0","80191","","328","","","75","44","","","1","44","training","adjacent","BC","2","3","M.jpg","R.jpg","1","1","1","",""
"","feedback","","html-keyboard-response","307","924443","0.0-1.0-402.0-0.0","0","0","80191","","null","","","null","44","","","","","","","","","","","","","","","",""
"","ITI","","html-keyboard-response","308","925454","0.0-1.0-405.0","0","0","80191","","null","","","null","44","","","","","","","","","","","","","","","NaN",""
"","S1","","html-keyboard-response","309","925713","0.0-1.0-407.0","0","0","80191","","null","","","null","45","","","","","","","","","","","","","","","",""
"","ISI","","html-keyboard-response","310","927719","0.0-1.0-408.0","0","0","80191","","null","","","null","45","NaN","","","","","","","","","","","","","","",""
"","S2","","html-keyboard-response","311","927977","0.0-1.0-409.0","0","0","80191","","null","","","null","45","","NaN","","","","","","","","","","","","","",""
"","response","","html-keyboard-response","312","928516","0.0-1.0-410.0","0","0","80191","","537","","","75","45","","","1","45","training","adjacent","FE","6","5","Q.jpg","N.jpg","1","0","0","",""
"","feedback","","html-keyboard-response","313","929521","0.0-1.0-411.0-0.0","0","0","80191","","null","","","null","45","","","","","","","","","","","","","","","",""
"","time_out","","html-keyboard-response","314","931523","0.0-1.0-413.0-0.0","0","0","80191","","null","","","null","45","","","","","","","","","","","","","","","",""
"","ITI","","html-keyboard-response","315","932532","0.0-1.0-414.0","0","0","80191","","null","","","null","45","","","","","","","","","","","","","","","NaN",""
"","S1","","html-keyboard-response","316","932793","0.0-1.0-416.0","0","0","80191","","null","","","null","46","","","","","","","","","","","","","","","",""
"","ISI","","html-keyboard-response","317","934797","0.0-1.0-417.0","0","0","80191","","87","","","75","46","k","","","","","","","","","","","","","","",""
"","S2","","html-keyboard-response","318","935053","0.0-1.0-418.0","0","0","80191","","null","","","null","46","","NaN","","","","","","","","","","","","","",""
"","response","","html-keyboard-response","319","937057","0.0-1.0-419.0","0","0","80191","","null","","","null","46","","","1","46","training","adjacent","EF","5","6","N.jpg","Q.jpg","NaN","1","0","",""
"","too_slow_prompt","","html-keyboard-response","320","938066","0.0-1.0-421.0-0.0","1","0","80191","","null","","","null","","","","","","","","","","","","","","","","",""
"","time_out","","html-keyboard-response","321","940072","0.0-1.0-422.0-0.0","0","0","80191","","null","","","null","46","","","","","","","","","","","","","","","",""
"","ITI","","html-keyboard-response","322","941076","0.0-1.0-423.0","0","0","80191","","null","","","null","46","","","","","","","","","","","","","","","NaN",""
"","S1","","html-keyboard-response","323","941333","0.0-1.0-425.0","0","0","80191","","null","","","null","47","","","","","","","","","","","","","","","",""
"","ISI","","html-keyboard-response","324","943339","0.0-1.0-426.0","0","0","80191","","90","","","68","47","d","","","","","","","","","","","","","","",""
"","S2","","html-keyboard-response","325","943597","0.0-1.0-427.0","0","0","80191","","null","","","null","47","","NaN","","","","","","","","","","","","","",""
"","response","","html-keyboard-response","326","943821","0.0-1.0-428.0","0","0","80191","","223","","","68","47","","","1","47","training","adjacent","BC","2","3","M.jpg","R.jpg","0","1","0","",""
"","feedback","","html-keyboard-response","327","944829","0.0-1.0-429.0-0.0","0","0","80191","","null","","","null","47","","","","","","","","","","","","","","","",""
"","time_out","","html-keyboard-response","328","946832","0.0-1.0-431.0-0.0","0","0","80191","","null","","","null","47","","","","","","","","","","","","","","","",""
"","ITI","","html-keyboard-response","329","947835","0.0-1.0-432.0","0","0","80191","","null","","","null","47","","","","","","","","","","","","","","","NaN",""
"","block_over","","html-keyboard-response","330","2346456","0.0-1.0-433.0-0.0","0","0","80191","","1398614","","","32","47","","","","","","","","","","","","","","","",""
"","S1","","html-keyboard-response","331","2346716","0.0-1.0-434.0","0","0","80191","","null","","","null","48","","","","","","","","","","","","","","","",""
"","ISI","","html-keyboard-response","332","2348725","0.0-1.0-435.0","0","0","80191","","null","","","null","48","NaN","","","","","","","","","","","","","","",""
"","S2","","html-keyboard-response","333","2348984","0.0-1.0-436.0","0","0","80191","","null","","","null","48","","NaN","","","","","","","","","","","","","",""
"","response","","html-keyboard-response","334","2349312","0.0-1.0-437.0","0","0","80191","","326","","","75","48","","","2","48","training","adjacent","DE","4","5","P.jpg","N.jpg","1","1","1","",""
"","feedback","","html-keyboard-response","335","2350316","0.0-1.0-438.0-0.0","0","0","80191","","null","","","null","48","","","","","","","","","","","","","","","",""
"","ITI","","html-keyboard-response","336","2351325","0.0-1.0-441.0","0","0","80191","","null","","","null","48","","","","","","","","","","","","","","","NaN",""
"","S1","","html-keyboard-response","337","2351581","0.0-1.0-443.0","0","0","80191","","null","","","null","49","","","","","","","","","","","","","","","",""
"","ISI","","html-keyboard-response","338","2353584","0.0-1.0-444.0","0","0","80191","","null","","","null","49","NaN","","","","","","","","","","","","","","",""
"","S2","","html-keyboard-response","339","2353843","0.0-1.0-445.0","0","0","80191","","null","","","null","49","","NaN","","","","","","","","","","","","","",""
"","response","","html-keyboard-response","340","2353983","0.0-1.0-446.0","0","0","80191","","139","","","68","49","","","2","49","training","adjacent","ED","5","4","N.jpg","P.jpg","0","0","1","",""
"","feedback","","html-keyboard-response","341","2354995","0.0-1.0-447.0-0.0","0","0","80191","","null","","","null","49","","","","","","","","","","","","","","","",""
"","ITI","","html-keyboard-response","342","2356004","0.0-1.0-450.0","0","0","80191","","null","","","null","49","","","","","","","","","","","","","","","NaN",""
"","S1","","html-keyboard-response","343","2356262","0.0-1.0-452.0","0","0","80191","","null","","","null","50","","","","","","","","","","","","","","","",""
"","ISI","","html-keyboard-response","344","2358265","0.0-1.0-453.0","0","0","80191","","null","","","null","50","NaN","","","","","","","","","","","","","","",""
"","S2","","html-keyboard-response","345","2358527","0.0-1.0-454.0","0","0","80191","","null","","","null","50","","NaN","","","","","","","","","","","","","",""
"","response","","html-keyboard-response","346","2358763","0.0-1.0-455.0","0","0","80191","","234","","","68","50","","","2","50","training","adjacent","CD","3","4","R.jpg","P.jpg","0","1","0","",""
"","feedback","","html-keyboard-response","347","2359767","0.0-1.0-456.0-0.0","0","0","80191","","null","","","null","50","","","","","","","","","","","","","","","",""
"","time_out","","html-keyboard-response","348","2361772","0.0-1.0-458.0-0.0","0","0","80191","","null","","","null","50","","","","","","","","","","","","","","","",""
"","ITI","","html-keyboard-response","349","2362777","0.0-1.0-459.0","0","0","80191","","null","","","null","50","","","","","","","","","","","","","","","NaN",""
"","S1","","html-keyboard-response","350","2363031","0.0-1.0-461.0","0","0","80191","","null","","","null","51","","","","","","","","","","","","","","","",""
"","ISI","","html-keyboard-response","351","2365037","0.0-1.0-462.0","0","0","80191","","301","","","75","51","k","","","","","","","","","","","","","","",""
"","S2","","html-keyboard-response","352","2365295","0.0-1.0-463.0","0","0","80191","","null","","","null","51","","NaN","","","","","","","","","","","","","",""
"","response","","html-keyboard-response","353","2365359","0.0-1.0-464.0","0","0","80191","","63","","","75","51","","","2","51","training","adjacent","FG","6","7","Q.jpg","L.jpg","1","1","1","",""
"","feedback","","html-keyboard-response","354","2366367","0.0-1.0-465.0-0.0","0","0","80191","","null","","","null","51","","","","","","","","","","","","","","","",""
"","ITI","","html-keyboard-response","355","2367377","0.0-1.0-468.0","0","0","80191","","null","","","null","51","","","","","","","","","","","","","","","NaN",""
"","S1","","html-keyboard-response","356","2367636","0.0-1.0-470.0","0","0","80191","","null","","","null","52","","","","","","","","","","","","","","","",""
"","ISI","","html-keyboard-response","357","2369644","0.0-1.0-471.0","0","0","80191","","null","","","null","52","NaN","","","","","","","","","","","","","","",""
"","S2","","html-keyboard-response","358","2369902","0.0-1.0-472.0","0","0","80191","","null","","","null","52","","NaN","","","","","","","","","","","","","",""
"","response","","html-keyboard-response","359","2370039","0.0-1.0-473.0","0","0","80191","","135","","","75","52","","","2","52","training","adjacent","BA","2","1","M.jpg","O.jpg","1","0","0","",""
"","feedback","","html-keyboard-response","360","2371050","0.0-1.0-474.0-0.0","0","0","80191","","null","","","null","52","","","","","","","","","","","","","","","",""
"","time_out","","html-keyboard-response","361","2373055","0.0-1.0-476.0-0.0","0","0","80191","","null","","","null","52","","","","","","","","","","","","","","","",""
"","ITI","","html-keyboard-response","362","2374063","0.0-1.0-477.0","0","0","80191","","null","","","null","52","","","","","","","","","","","","","","","NaN",""
"","S1","","html-keyboard-response","363","2374320","0.0-1.0-479.0","0","0","80191","","null","","","null","53","","","","","","","","","","","","","","","",""
"","ISI","","html-keyboard-response","364","2376325","0.0-1.0-480.0","0","0","80191","","null","","","null","53","NaN","","","","","","","","","","","","","","",""
"","S2","","html-keyboard-response","365","2376580","0.0-1.0-481.0","0","0","80191","","null","","","null","53","","NaN","","","","","","","","","","","","","",""
"","response","","html-keyboard-response","366","2376772","0.0-1.0-482.0","0","0","80191","","190","","","68","53","","","2","53","training","adjacent","EF","5","6","N.jpg","Q.jpg","0","1","0","",""
"","feedback","","html-keyboard-response","367","2377781","0.0-1.0-483.0-0.0","0","0","80191","","null","","","null","53","","","","","","","","","","","","","","","",""
"","time_out","","html-keyboard-response","368","2379789","0.0-1.0-485.0-0.0","0","0","80191","","null","","","null","53","","","","","","","","","","","","","","","",""
"","ITI","","html-keyboard-response","369","2380799","0.0-1.0-486.0","0","0","80191","","null","","","null","53","","","","","","","","","","","","","","","NaN",""
"","S1","","html-keyboard-response","370","2381056","0.0-1.0-488.0","0","0","80191","","null","","","null","54","","","","","","","","","","","","","","","",""
"","ISI","","html-keyboard-response","371","2383066","0.0-1.0-489.0","0","0","80191","","120","","","75","54","k","","","","","","","","","","","","","","",""
"","S2","","html-keyboard-response","372","2383325","0.0-1.0-490.0","0","0","80191","","null","","","null","54","","NaN","","","","","","","","","","","","","",""
"","response","","html-keyboard-response","373","2383382","0.0-1.0-491.0","0","0","80191","","54","","","75","54","","","2","54","training","adjacent","DE","4","5","P.jpg","N.jpg","1","1","1","",""
"","feedback","","html-keyboard-response","374","2384389","0.0-1.0-492.0-0.0","0","0","80191","","null","","","null","54","","","","","","","","","","","","","","","",""
"","ITI","","html-keyboard-response","375","2385394","0.0-1.0-495.0","0","0","80191","","null","","","null","54","","","","","","","","","","","","","","","NaN",""
"","S1","","html-keyboard-response","376","2385652","0.0-1.0-497.0","0","0","80191","","null","","","null","55","","","","","","","","","","","","","","","",""
"","ISI","","html-keyboard-response","377","2387654","0.0-1.0-498.0","0","0","80191","","381","","","75","55","k","","","","","","","","","","","","","","",""
"","S2","","html-keyboard-response","378","2387907","0.0-1.0-499.0","0","0","80191","","null","","","null","55","","NaN","","","","","","","","","","","","","",""
"","response","","html-keyboard-response","379","2387954","0.0-1.0-500.0","0","0","80191","","45","","","75","55","","","2","55","training","adjacent","BC","2","3","M.jpg","R.jpg","1","1","1","",""
"","feedback","","html-keyboard-response","380","2388959","0.0-1.0-501.0-0.0","0","0","80191","","null","","","null","55","","","","","","","","","","","","","","","",""
"","ITI","","html-keyboard-response","381","2389969","0.0-1.0-504.0","0","0","80191","","null","","","null","55","","","","","","","","","","","","","","","NaN",""
"","S1","","html-keyboard-response","382","2390225","0.0-1.0-506.0","0","0","80191","","null","","","null","56","","","","","","","","","","","","","","","",""
"","ISI","","html-keyboard-response","383","2392238","0.0-1.0-507.0","0","0","80191","","1178","","","75","56","k","","","","","","","","","","","","","","",""
"","S2","","html-keyboard-response","384","2392493","0.0-1.0-508.0","0","0","80191","","null","","","null","56","","NaN","","","","","","","","","","","","","",""
"","response","","html-keyboard-response","385","2392534","0.0-1.0-509.0","0","0","80191","","39","","","75","56","","","2","56","training","adjacent","BA","2","1","M.jpg","O.jpg","1","0","0","",""
"","feedback","","html-keyboard-response","386","2393542","0.0-1.0-510.0-0.0","0","0","80191","","null","","","null","56","","","","","","","","","","","","","","","",""
"","time_out","","html-keyboard-response","387","2395554","0.0-1.0-512.0-0.0","0","0","80191","","null","","","null","56","","","","","","","","","","","","","","","",""
"","ITI","","html-keyboard-response","388","2396563","0.0-1.0-513.0","0","0","80191","","null","","","null","56","","","","","","","","","","","","","","","NaN",""
"","S1","","html-keyboard-response","389","2396825","0.0-1.0-515.0","0","0","80191","","null","","","null","57","","","","","","","","","","","","","","","",""
"","ISI","","html-keyboard-response","390","2398835","0.0-1.0-516.0","0","0","80191","","null","","","null","57","NaN","","","","","","","","","","","","","","",""
"","S2","","html-keyboard-response","391","2399091","0.0-1.0-517.0","0","0","80191","","null","","","null","57","","NaN","","","","","","","","","","","","","",""
"","response","","html-keyboard-response","392","2399218","0.0-1.0-518.0","0","0","80191","","125","","","75","57","","","2","57","training","adjacent","FE","6","5","Q.jpg","N.jpg","1","0","0","",""
"","feedback","","html-keyboard-response","393","2400230","0.0-1.0-519.0-0.0","0","0","80191","","null","","","null","57","","","","","","","","","","","","","","","",""
"","time_out","","html-keyboard-response","394","2402234","0.0-1.0-521.0-0.0","0","0","80191","","null","","","null","57","","","","","","","","","","","","","","","",""
"","ITI","","html-keyboard-response","395","2403244","0.0-1.0-522.0","0","0","80191","","null","","","null","57","","","","","","","","","","","","","","","NaN",""
"","S1","","html-keyboard-response","396","2403497","0.0-1.0-524.0","0","0","80191","","null","","","null","58","","","","","","","","","","","","","","","",""
"","ISI","","html-keyboard-response","397","2405500","0.0-1.0-525.0","0","0","80191","","253","","","75","58","k","","","","","","","","","","","","","","",""
"","S2","","html-keyboard-response","398","2405756","0.0-1.0-526.0","0","0","80191","","null","","","null","58","","NaN","","","","","","","","","","","","","",""
"","response","","html-keyboard-response","399","2405983","0.0-1.0-527.0","0","0","80191","","226","","","75","58","","","2","58","training","adjacent","DC","4","3","P.jpg","R.jpg","1","0","0","",""
"","feedback","","html-keyboard-response","400","2406987","0.0-1.0-528.0-0.0","0","0","80191","","null","","","null","58","","","","","","","","","","","","","","","",""
"","time_out","","html-keyboard-response","401","2408991","0.0-1.0-530.0-0.0","0","0","80191","","null","","","null","58","","","","","","","","","","","","","","","",""
"","ITI","","html-keyboard-response","402","2409994","0.0-1.0-531.0","0","0","80191","","481","","","75","58","","","","","","","","","","","","","","","k",""
"","S1","","html-keyboard-response","403","2410251","0.0-1.0-533.0","0","0","80191","","null","","","null","59","","","","","","","","","","","","","","","",""
"","ISI","","html-keyboard-response","404","2412261","0.0-1.0-534.0","0","0","80191","","279","","","75","59","k","","","","","","","","","","","","","","",""
"","S2","","html-keyboard-response","405","2412516","0.0-1.0-535.0","0","0","80191","","null","","","null","59","","NaN","","","","","","","","","","","","","",""
"","response","","html-keyboard-response","406","2412554","0.0-1.0-536.0","0","0","80191","","37","","","75","59","","","2","59","training","adjacent","DE","4","5","P.jpg","N.jpg","1","1","1","",""
"","feedback","","html-keyboard-response","407","2413560","0.0-1.0-537.0-0.0","0","0","80191","","null","","","null","59","","","","","","","","","","","","","","","",""
"","ITI","","html-keyboard-response","408","2414568","0.0-1.0-540.0","0","0","80191","","null","","","null","59","","","","","","","","","","","","","","","NaN",""
"","S1","","html-keyboard-response","409","2414821","0.0-1.0-542.0","0","0","80191","","null","","","null","60","","","","","","","","","","","","","","","",""
"","ISI","","html-keyboard-response","410","2416826","0.0-1.0-543.0","0","0","80191","","null","","","null","60","NaN","","","","","","","","","","","","","","",""
"","S2","","html-keyboard-response","411","2417084","0.0-1.0-544.0","0","0","80191","","null","","","null","60","","NaN","","","","","","","","","","","","","",""
"","response","","html-keyboard-response","412","2417646","0.0-1.0-545.0","0","0","80191","","560","","","75","60","","","2","60","training","adjacent","EF","5","6","N.jpg","Q.jpg","1","1","1","",""
"","feedback","","html-keyboard-response","413","2418655","0.0-1.0-546.0-0.0","0","0","80191","","null","","","null","60","","","","","","","","","","","","","","","",""
"","ITI","","html-keyboard-response","414","2419658","0.0-1.0-549.0","0","0","80191","","null","","","null","60","","","","","","","","","","","","","","","NaN",""
"","S1","","html-keyboard-response","415","2419915","0.0-1.0-551.0","0","0","80191","","null","","","null","61","","","","","","","","","","","","","","","",""
"","ISI","","html-keyboard-response","416","2421921","0.0-1.0-552.0","0","0","80191","","774","","","75","61","k","","","","","","","","","","","","","","",""
"","S2","","html-keyboard-response","417","2422179","0.0-1.0-553.0","0","0","80191","","null","","","null","61","","NaN","","","","","","","","","","","","","",""
"","response","","html-keyboard-response","418","2422181","0.0-1.0-554.0","0","0","80191","","0","","","75","61","","","2","61","training","adjacent","DC","4","3","P.jpg","R.jpg","1","0","0","",""
"","feedback","","html-keyboard-response","419","2423185","0.0-1.0-555.0-0.0","0","0","80191","","null","","","null","61","","","","","","","","","","","","","","","",""
"","time_out","","html-keyboard-response","420","2425193","0.0-1.0-557.0-0.0","0","0","80191","","null","","","null","61","","","","","","","","","","","","","","","",""
"","ITI","","html-keyboard-response","421","2426200","0.0-1.0-558.0","0","0","80191","","64","","","75","61","","","","","","","","","","","","","","","k",""
"","S1","","html-keyboard-response","422","2426457","0.0-1.0-560.0","0","0","80191","","null","","","null","62","","","","","","","","","","","","","","","",""
"","ISI","","html-keyboard-response","423","2428462","0.0-1.0-561.0","0","0","80191","","7","","","75","62","k","","","","","","","","","","","","","","",""
"","S2","","html-keyboard-response","424","2428720","0.0-1.0-562.0","0","0","80191","","4","","","75","62","","k","","","","","","","","","","","","","",""
"","response","","html-keyboard-response","425","2429209","0.0-1.0-563.0","0","0","80191","","486","","","75","62","","","2","62","training","adjacent","BA","2","1","M.jpg","O.jpg","1","0","0","",""
"","feedback","","html-keyboard-response","426","2430213","0.0-1.0-564.0-0.0","0","0","80191","","null","","","null","62","","","","","","","","","","","","","","","",""
"","time_out","","html-keyboard-response","427","2432217","0.0-1.0-566.0-0.0","0","0","80191","","null","","","null","62","","","","","","","","","","","","","","","",""
"","ITI","","html-keyboard-response","428","2433223","0.0-1.0-567.0","0","0","80191","","132","","","75","62","","","","","","","","","","","","","","","k",""
"","S1","","html-keyboard-response","429","2433480","0.0-1.0-569.0","0","0","80191","","null","","","null","63","","","","","","","","","","","","","","","",""
"","ISI","","html-keyboard-response","430","2435484","0.0-1.0-570.0","0","0","80191","","56","","","75","63","k","","","","","","","","","","","","","","",""
"","S2","","html-keyboard-response","431","2435738","0.0-1.0-571.0","0","0","80191","","69","","","75","63","","k","","","","","","","","","","","","","",""
"","response","","html-keyboard-response","432","2435814","0.0-1.0-572.0","0","0","80191","","74","","","75","63","","","2","63","training","adjacent","GF","7","6","L.jpg","Q.jpg","1","0","0","",""
"","feedback","","html-keyboard-response","433","2436821","0.0-1.0-573.0-0.0","0","0","80191","","null","","","null","63","","","","","","","","","","","","","","","",""
"","time_out","","html-keyboard-response","434","2438825","0.0-1.0-575.0-0.0","0","0","80191","","null","","","null","63","","","","","","","","","","","","","","","",""
"","ITI","","html-keyboard-response","435","2439828","0.0-1.0-576.0","0","0","80191","","465","","","75","63","","","","","","","","","","","","","","","k",""
"","S1","","html-keyboard-response","436","2440082","0.0-1.0-578.0","0","0","80191","","null","","","null","64","","","","","","","","","","","","","","","",""
"","ISI","","html-keyboard-response","437","2442091","0.0-1.0-579.0","0","0","80191","","764","","","75","64","k","","","","","","","","","","","","","","",""
"","S2","","html-keyboard-response","438","2442345","0.0-1.0-580.0","0","0","80191","","178","","","75","64","","k","","","","","","","","","","","","","",""
"","response","","html-keyboard-response","439","2443393","0.0-1.0-581.0","0","0","80191","","1047","","","75","64","","","2","64","training","adjacent","FG","6","7","Q.jpg","L.jpg","1","1","1","",""
"","feedback","","html-keyboard-response","440","2444400","0.0-1.0-582.0-0.0","0","0","80191","","null","","","null","64","","","","","","","","","","","","","","","",""
"","ITI","","html-keyboard-response","441","2445412","0.0-1.0-585.0","0","0","80191","","null","","","null","64","","","","","","","","","","","","","","","NaN",""
"","S1","","html-keyboard-response","442","2445667","0.0-1.0-587.0","0","0","80191","","null","","","null","65","","","","","","","","","","","","","","","",""
"","ISI","","html-keyboard-response","443","2447677","0.0-1.0-588.0","0","0","80191","","194","","","75","65","k","","","","","","","","","","","","","","",""
"","S2","","html-keyboard-response","444","2447936","0.0-1.0-589.0","0","0","80191","","null","","","null","65","","NaN","","","","","","","","","","","","","",""
"","response","","html-keyboard-response","445","2449941","0.0-1.0-590.0","0","0","80191","","null","","","null","65","","","2","65","training","adjacent","CD","3","4","R.jpg","P.jpg","NaN","1","0","",""
"","too_slow_prompt","","html-keyboard-response","446","2450948","0.0-1.0-592.0-0.0","1","0","80191","","null","","","null","","","","","","","","","","","","","","","","",""
"","time_out","","html-keyboard-response","447","2452953","0.0-1.0-593.0-0.0","0","0","80191","","null","","","null","65","","","","","","","","","","","","","","","",""
"","ITI","","html-keyboard-response","448","2453963","0.0-1.0-594.0","0","0","80191","","null","","","null","65","","","","","","","","","","","","","","","NaN",""
"","S1","","html-keyboard-response","449","2454220","0.0-1.0-596.0","0","0","80191","","null","","","null","66","","","","","","","","","","","","","","","",""
"","ISI","","html-keyboard-response","450","2456230","0.0-1.0-597.0","0","0","80191","","377","","","75","66","k","","","","","","","","","","","","","","",""
"","S2","","html-keyboard-response","451","2456488","0.0-1.0-598.0","0","0","80191","","224","","","75","66","","k","","","","","","","","","","","","","",""
"","response","","html-keyboard-response","452","2456901","0.0-1.0-599.0","0","0","80191","","412","","","75","66","","","2","66","training","adjacent","CB","3","2","R.jpg","M.jpg","1","0","0","",""
"","feedback","","html-keyboard-response","453","2457911","0.0-1.0-600.0-0.0","0","0","80191","","null","","","null","66","","","","","","","","","","","","","","","",""
"","time_out","","html-keyboard-response","454","2459916","0.0-1.0-602.0-0.0","0","0","80191","","null","","","null","66","","","","","","","","","","","","","","","",""
"","ITI","","html-keyboard-response","455","2460924","0.0-1.0-603.0","0","0","80191","","887","","","75","66","","","","","","","","","","","","","","","k",""
"","S1","","html-keyboard-response","456","2461185","0.0-1.0-605.0","0","0","80191","","null","","","null","67","","","","","","","","","","","","","","","",""
"","ISI","","html-keyboard-response","457","2463193","0.0-1.0-606.0","0","0","80191","","319","","","75","67","k","","","","","","","","","","","","","","",""
"","S2","","html-keyboard-response","458","2463449","0.0-1.0-607.0","0","0","80191","","null","","","null","67","","NaN","","","","","","","","","","","","","",""
"","response","","html-keyboard-response","459","2464717","0.0-1.0-608.0","0","0","80191","","1265","","","75","67","","","2","67","training","adjacent","FG","6","7","Q.jpg","L.jpg","1","1","1","",""
"","feedback","","html-keyboard-response","460","2465727","0.0-1.0-609.0-0.0","0","0","80191","","null","","","null","67","","","","","","","","","","","","","","","",""
"","ITI","","html-keyboard-response","461","2466732","0.0-1.0-612.0","0","0","80191","","null","","","null","67","","","","","","","","","","","","","","","NaN",""
"","S1","","html-keyboard-response","462","2466985","0.0-1.0-614.0","0","0","80191","","null","","","null","68","","","","","","","","","","","","","","","",""
"","ISI","","html-keyboard-response","463","2469001","0.0-1.0-615.0","0","0","80191","","null","","","null","68","NaN","","","","","","","","","","","","","","",""
"","S2","","html-keyboard-response","464","2469255","0.0-1.0-616.0","0","0","80191","","null","","","null","68","","NaN","","","","","","","","","","","","","",""
"","response","","html-keyboard-response","465","2470827","0.0-1.0-617.0","0","0","80191","","1571","","","75","68","","","2","68","training","adjacent","AB","1","2","O.jpg","M.jpg","1","1","1","",""
"","feedback","","html-keyboard-response","466","2471838","0.0-1.0-618.0-0.0","0","0","80191","","null","","","null","68","","","","","","","","","","","","","","","",""
"","ITI","","html-keyboard-response","467","2472845","0.0-1.0-621.0","0","0","80191","","null","","","null","68","","","","","","","","","","","","","","","NaN",""
"","S1","","html-keyboard-response","468","2473100","0.0-1.0-623.0","0","0","80191","","null","","","null","69","","","","","","","","","","","","","","","",""
"","ISI","","html-keyboard-response","469","2475116","0.0-1.0-624.0","0","0","80191","","null","","","null","69","NaN","","","","","","","","","","","","","","",""
"","S2","","html-keyboard-response","470","2475373","0.0-1.0-625.0","0","0","80191","","null","","","null","69","","NaN","","","","","","","","","","","","","",""
"","response","","html-keyboard-response","471","2475687","0.0-1.0-626.0","0","0","80191","","312","","","75","69","","","2","69","training","adjacent","FE","6","5","Q.jpg","N.jpg","1","0","0","",""
"","feedback","","html-keyboard-response","472","2476699","0.0-1.0-627.0-0.0","0","0","80191","","null","","","null","69","","","","","","","","","","","","","","","",""
"","time_out","","html-keyboard-response","473","2478702","0.0-1.0-629.0-0.0","0","0","80191","","null","","","null","69","","","","","","","","","","","","","","","",""
"","ITI","","html-keyboard-response","474","2479708","0.0-1.0-630.0","0","0","80191","","null","","","null","69","","","","","","","","","","","","","","","NaN",""
"","S1","","html-keyboard-response","475","2479970","0.0-1.0-632.0","0","0","80191","","null","","","null","70","","","","","","","","","","","","","","","",""
"","ISI","","html-keyboard-response","476","2481976","0.0-1.0-633.0","0","0","80191","","135","","","75","70","k","","","","","","","","","","","","","","",""
"","S2","","html-keyboard-response","477","2482229","0.0-1.0-634.0","0","0","80191","","66","","","75","70","","k","","","","","","","","","","","","","",""
"","response","","html-keyboard-response","478","2482482","0.0-1.0-635.0","0","0","80191","","250","","","75","70","","","2","70","training","adjacent","CD","3","4","R.jpg","P.jpg","1","1","1","",""
"","feedback","","html-keyboard-response","479","2483488","0.0-1.0-636.0-0.0","0","0","80191","","null","","","null","70","","","","","","","","","","","","","","","",""
"","ITI","","html-keyboard-response","480","2484495","0.0-1.0-639.0","0","0","80191","","219","","","75","70","","","","","","","","","","","","","","","k",""
"","S1","","html-keyboard-response","481","2484749","0.0-1.0-641.0","0","0","80191","","null","","","null","71","","","","","","","","","","","","","","","",""
"","ISI","","html-keyboard-response","482","2486758","0.0-1.0-642.0","0","0","80191","","148","","","75","71","k","","","","","","","","","","","","","","",""
"","S2","","html-keyboard-response","483","2487013","0.0-1.0-643.0","0","0","80191","","null","","","null","71","","NaN","","","","","","","","","","","","","",""
"","response","","html-keyboard-response","484","2487124","0.0-1.0-644.0","0","0","80191","","108","","","75","71","","","2","71","training","adjacent","DC","4","3","P.jpg","R.jpg","1","0","0","",""
"","feedback","","html-keyboard-response","485","2488128","0.0-1.0-645.0-0.0","0","0","80191","","null","","","null","71","","","","","","","","","","","","","","","",""
"","time_out","","html-keyboard-response","486","2490143","0.0-1.0-647.0-0.0","0","0","80191","","null","","","null","71","","","","","","","","","","","","","","","",""
"","ITI","","html-keyboard-response","487","2491150","0.0-1.0-648.0","0","0","80191","","null","","","null","71","","","","","","","","","","","","","","","NaN",""
"","S1","","html-keyboard-response","488","2491404","0.0-1.0-650.0","0","0","80191","","null","","","null","72","","","","","","","","","","","","","","","",""
"","ISI","","html-keyboard-response","489","2493407","0.0-1.0-651.0","0","0","80191","","130","","","75","72","k","","","","","","","","","","","","","","",""
"","S2","","html-keyboard-response","490","2493667","0.0-1.0-652.0","0","0","80191","","null","","","null","72","","NaN","","","","","","","","","","","","","",""
"","response","","html-keyboard-response","491","2494100","0.0-1.0-653.0","0","0","80191","","432","","","75","72","","","2","72","training","adjacent","ED","5","4","N.jpg","P.jpg","1","0","0","",""
"","feedback","","html-keyboard-response","492","2495111","0.0-1.0-654.0-0.0","0","0","80191","","null","","","null","72","","","","","","","","","","","","","","","",""
"","time_out","","html-keyboard-response","493","2497119","0.0-1.0-656.0-0.0","0","0","80191","","null","","","null","72","","","","","","","","","","","","","","","",""
"","ITI","","html-keyboard-response","494","2498128","0.0-1.0-657.0","0","0","80191","","333","","","75","72","","","","","","","","","","","","","","","k",""
"","S1","","html-keyboard-response","495","2498386","0.0-1.0-659.0","0","0","80191","","null","","","null","73","","","","","","","","","","","","","","","",""
"","ISI","","html-keyboard-response","496","2500392","0.0-1.0-660.0","0","0","80191","","480","","","75","73","k","","","","","","","","","","","","","","",""
"","S2","","html-keyboard-response","497","2500646","0.0-1.0-661.0","0","0","80191","","234","","","75","73","","k","","","","","","","","","","","","","",""
"","response","","html-keyboard-response","498","2501394","0.0-1.0-662.0","0","0","80191","","746","","","75","73","","","2","73","training","adjacent","CB","3","2","R.jpg","M.jpg","1","0","0","",""
"","feedback","","html-keyboard-response","499","2502404","0.0-1.0-663.0-0.0","0","0","80191","","null","","","null","73","","","","","","","","","","","","","","","",""
"","time_out","","html-keyboard-response","500","2504414","0.0-1.0-665.0-0.0","0","0","80191","","null","","","null","73","","","","","","","","","","","","","","","",""
"","ITI","","html-keyboard-response","501","2505418","0.0-1.0-666.0","0","0","80191","","null","","","null","73","","","","","","","","","","","","","","","NaN",""
"","S1","","html-keyboard-response","502","2505678","0.0-1.0-668.0","0","0","80191","","null","","","null","74","","","","","","","","","","","","","","","",""
"","ISI","","html-keyboard-response","503","2507688","0.0-1.0-669.0","0","0","80191","","948","","","75","74","k","","","","","","","","","","","","","","",""
"","S2","","html-keyboard-response","504","2507943","0.0-1.0-670.0","0","0","80191","","169","","","75","74","","k","","","","","","","","","","","","","",""
"","response","","html-keyboard-response","505","2509950","0.0-1.0-671.0","0","0","80191","","null","","","null","74","","","2","74","training","adjacent","AB","1","2","O.jpg","M.jpg","NaN","1","0","",""
"","too_slow_prompt","","html-keyboard-response","506","2510960","0.0-1.0-673.0-0.0","1","0","80191","","null","","","null","","","","","","","","","","","","","","","","",""
"","time_out","","html-keyboard-response","507","2512968","0.0-1.0-674.0-0.0","0","0","80191","","null","","","null","74","","","","","","","","","","","","","","","",""
"","ITI","","html-keyboard-response","508","2513980","0.0-1.0-675.0","0","0","80191","","66","","","75","74","","","","","","","","","","","","","","","k",""
"","S1","","html-keyboard-response","509","2514234","0.0-1.0-677.0","0","0","80191","","null","","","null","75","","","","","","","","","","","","","","","",""
"","ISI","","html-keyboard-response","510","2516242","0.0-1.0-678.0","0","0","80191","","267","","","75","75","k","","","","","","","","","","","","","","",""
"","S2","","html-keyboard-response","511","2516501","0.0-1.0-679.0","0","0","80191","","61","","","75","75","","k","","","","","","","","","","","","","",""
"","response","","html-keyboard-response","512","2516974","0.0-1.0-680.0","0","0","80191","","471","","","75","75","","","2","75","training","adjacent","GF","7","6","L.jpg","Q.jpg","1","0","0","",""
"","feedback","","html-keyboard-response","513","2517981","0.0-1.0-681.0-0.0","0","0","80191","","null","","","null","75","","","","","","","","","","","","","","","",""
"","time_out","","html-keyboard-response","514","2519984","0.0-1.0-683.0-0.0","0","0","80191","","null","","","null","75","","","","","","","","","","","","","","","",""
"","ITI","","html-keyboard-response","515","2520993","0.0-1.0-684.0","0","0","80191","","null","","","null","75","","","","","","","","","","","","","","","NaN",""
"","S1","","html-keyboard-response","516","2521248","0.0-1.0-686.0","0","0","80191","","null","","","null","76","","","","","","","","","","","","","","","",""
"","ISI","","html-keyboard-response","517","2523253","0.0-1.0-687.0","0","0","80191","","335","","","75","76","k","","","","","","","","","","","","","","",""
"","S2","","html-keyboard-response","518","2523508","0.0-1.0-688.0","0","0","80191","","null","","","null","76","","NaN","","","","","","","","","","","","","",""
"","response","","html-keyboard-response","519","2523740","0.0-1.0-689.0","0","0","80191","","230","","","75","76","","","2","76","training","adjacent","BA","2","1","M.jpg","O.jpg","1","0","0","",""
"","feedback","","html-keyboard-response","520","2524743","0.0-1.0-690.0-0.0","0","0","80191","","null","","","null","76","","","","","","","","","","","","","","","",""
"","time_out","","html-keyboard-response","521","2526759","0.0-1.0-692.0-0.0","0","0","80191","","null","","","null","76","","","","","","","","","","","","","","","",""
"","ITI","","html-keyboard-response","522","2527767","0.0-1.0-693.0","0","0","80191","","null","","","null","76","","","","","","","","","","","","","","","NaN",""
"","S1","","html-keyboard-response","523","2528024","0.0-1.0-695.0","0","0","80191","","null","","","null","77","","","","","","","","","","","","","","","",""
"","ISI","","html-keyboard-response","524","2530031","0.0-1.0-696.0","0","0","80191","","254","","","68","77","d","","","","","","","","","","","","","","",""
"","S2","","html-keyboard-response","525","2530285","0.0-1.0-697.0","0","0","80191","","null","","","null","77","","NaN","","","","","","","","","","","","","",""
"","response","","html-keyboard-response","526","2530679","0.0-1.0-698.0","0","0","80191","","392","","","68","77","","","2","77","training","adjacent","ED","5","4","N.jpg","P.jpg","0","0","1","",""
"","feedback","","html-keyboard-response","527","2531691","0.0-1.0-699.0-0.0","0","0","80191","","null","","","null","77","","","","","","","","","","","","","","","",""
"","ITI","","html-keyboard-response","528","2532695","0.0-1.0-702.0","0","0","80191","","491","","","68","77","","","","","","","","","","","","","","","d",""
"","S1","","html-keyboard-response","529","2532948","0.0-1.0-704.0","0","0","80191","","null","","","null","78","","","","","","","","","","","","","","","",""
"","ISI","","html-keyboard-response","530","2534953","0.0-1.0-705.0","0","0","80191","","409","","","68","78","d","","","","","","","","","","","","","","",""
"","S2","","html-keyboard-response","531","2535215","0.0-1.0-706.0","0","0","80191","","null","","","null","78","","NaN","","","","","","","","","","","","","",""
"","response","","html-keyboard-response","532","2536245","0.0-1.0-707.0","0","0","80191","","1027","","","68","78","","","2","78","training","adjacent","BC","2","3","M.jpg","R.jpg","0","1","0","",""
"","feedback","","html-keyboard-response","533","2537250","0.0-1.0-708.0-0.0","0","0","80191","","null","","","null","78","","","","","","","","","","","","","","","",""
"","time_out","","html-keyboard-response","534","2539253","0.0-1.0-710.0-0.0","0","0","80191","","null","","","null","78","","","","","","","","","","","","","","","",""
"","ITI","","html-keyboard-response","535","2540257","0.0-1.0-711.0","0","0","80191","","null","","","null","78","","","","","","","","","","","","","","","NaN",""
"","S1","","html-keyboard-response","536","2540515","0.0-1.0-713.0","0","0","80191","","null","","","null","79","","","","","","","","","","","","","","","",""
"","ISI","","html-keyboard-response","537","2542518","0.0-1.0-714.0","0","0","80191","","422","","","68","79","d","","","","","","","","","","","","","","",""
"","S2","","html-keyboard-response","538","2542777","0.0-1.0-715.0","0","0","80191","","123","","","68","79","","d","","","","","","","","","","","","","",""
"","response","","html-keyboard-response","539","2543496","0.0-1.0-716.0","0","0","80191","","717","","","68","79","","","2","79","training","adjacent","BC","2","3","M.jpg","R.jpg","0","1","0","",""
"","feedback","","html-keyboard-response","540","2544508","0.0-1.0-717.0-0.0","0","0","80191","","null","","","null","79","","","","","","","","","","","","","","","",""
"","time_out","","html-keyboard-response","541","2546516","0.0-1.0-719.0-0.0","0","0","80191","","null","","","null","79","","","","","","","","","","","","","","","",""
"","ITI","","html-keyboard-response","542","2547521","0.0-1.0-720.0","0","0","80191","","null","","","null","79","","","","","","","","","","","","","","","NaN",""
"","S1","","html-keyboard-response","543","2547779","0.0-1.0-722.0","0","0","80191","","null","","","null","80","","","","","","","","","","","","","","","",""
"","ISI","","html-keyboard-response","544","2549784","0.0-1.0-723.0","0","0","80191","","null","","","null","80","NaN","","","","","","","","","","","","","","",""
"","S2","","html-keyboard-response","545","2550044","0.0-1.0-724.0","0","0","80191","","null","","","null","80","","NaN","","","","","","","","","","","","","",""
"","response","","html-keyboard-response","546","2550139","0.0-1.0-725.0","0","0","80191","","93","","","68","80","","","2","80","training","adjacent","ED","5","4","N.jpg","P.jpg","0","0","1","",""
"","feedback","","html-keyboard-response","547","2551147","0.0-1.0-726.0-0.0","0","0","80191","","null","","","null","80","","","","","","","","","","","","","","","",""
"","ITI","","html-keyboard-response","548","2552156","0.0-1.0-729.0","0","0","80191","","498","","","68","80","","","","","","","","","","","","","","","d",""
"","S1","","html-keyboard-response","549","2552415","0.0-1.0-731.0","0","0","80191","","null","","","null","81","","","","","","","","","","","","","","","",""
"","ISI","","html-keyboard-response","550","2554425","0.0-1.0-732.0","0","0","80191","","20","","","68","81","d","","","","","","","","","","","","","","",""
"","S2","","html-keyboard-response","551","2554682","0.0-1.0-733.0","0","0","80191","","null","","","null","81","","NaN","","","","","","","","","","","","","",""
"","response","","html-keyboard-response","552","2555441","0.0-1.0-734.0","0","0","80191","","758","","","68","81","","","2","81","training","adjacent","CD","3","4","R.jpg","P.jpg","0","1","0","",""
"","feedback","","html-keyboard-response","553","2556446","0.0-1.0-735.0-0.0","0","0","80191","","null","","","null","81","","","","","","","","","","","","","","","",""
"","time_out","","html-keyboard-response","554","2558453","0.0-1.0-737.0-0.0","0","0","80191","","null","","","null","81","","","","","","","","","","","","","","","",""
"","ITI","","html-keyboard-response","555","2559457","0.0-1.0-738.0","0","0","80191","","548","","","68","81","","","","","","","","","","","","","","","d",""
"","S1","","html-keyboard-response","556","2559718","0.0-1.0-740.0","0","0","80191","","null","","","null","82","","","","","","","","","","","","","","","",""
"","ISI","","html-keyboard-response","557","2561724","0.0-1.0-741.0","0","0","80191","","652","","","68","82","d","","","","","","","","","","","","","","",""
"","S2","","html-keyboard-response","558","2561982","0.0-1.0-742.0","0","0","80191","","189","","","68","82","","d","","","","","","","","","","","","","",""
"","response","","html-keyboard-response","559","2563559","0.0-1.0-743.0","0","0","80191","","1576","","","68","82","","","2","82","training","adjacent","AB","1","2","O.jpg","M.jpg","0","1","0","",""
"","feedback","","html-keyboard-response","560","2564565","0.0-1.0-744.0-0.0","0","0","80191","","null","","","null","82","","","","","","","","","","","","","","","",""
"","time_out","","html-keyboard-response","561","2566574","0.0-1.0-746.0-0.0","0","0","80191","","null","","","null","82","","","","","","","","","","","","","","","",""
"","ITI","","html-keyboard-response","562","2567581","0.0-1.0-747.0","0","0","80191","","729","","","68","82","","","","","","","","","","","","","","","d",""
"","S1","","html-keyboard-response","563","2567844","0.0-1.0-749.0","0","0","80191","","null","","","null","83","","","","","","","","","","","","","","","",""
"","ISI","","html-keyboard-response","564","2569847","0.0-1.0-750.0","0","0","80191","","1110","","","68","83","d","","","","","","","","","","","","","","",""
"","S2","","html-keyboard-response","565","2570102","0.0-1.0-751.0","0","0","80191","","null","","","null","83","","NaN","","","","","","","","","","","","","",""
"","response","","html-keyboard-response","566","2572113","0.0-1.0-752.0","0","0","80191","","null","","","null","83","","","2","83","training","adjacent","DC","4","3","P.jpg","R.jpg","NaN","0","0","",""
"","too_slow_prompt","","html-keyboard-response","567","2573122","0.0-1.0-754.0-0.0","1","0","80191","","null","","","null","","","","","","","","","","","","","","","","",""
"","time_out","","html-keyboard-response","568","2575131","0.0-1.0-755.0-0.0","0","0","80191","","null","","","null","83","","","","","","","","","","","","","","","",""
"","ITI","","html-keyboard-response","569","2576141","0.0-1.0-756.0","0","0","80191","","413","","","68","83","","","","","","","","","","","","","","","d",""
"","S1","","html-keyboard-response","570","2576400","0.0-1.0-758.0","0","0","80191","","null","","","null","84","","","","","","","","","","","","","","","",""
"","ISI","","html-keyboard-response","571","2578404","0.0-1.0-759.0","0","0","80191","","552","","","68","84","d","","","","","","","","","","","","","","",""
"","S2","","html-keyboard-response","572","2578664","0.0-1.0-760.0","0","0","80191","","null","","","null","84","","NaN","","","","","","","","","","","","","",""
"","response","","html-keyboard-response","573","2578717","0.0-1.0-761.0","0","0","80191","","50","","","75","84","","","2","84","training","adjacent","EF","5","6","N.jpg","Q.jpg","1","1","1","",""
"","feedback","","html-keyboard-response","574","2579726","0.0-1.0-762.0-0.0","0","0","80191","","null","","","null","84","","","","","","","","","","","","","","","",""
"","ITI","","html-keyboard-response","575","2580731","0.0-1.0-765.0","0","0","80191","","396","","","75","84","","","","","","","","","","","","","","","k",""
"","S1","","html-keyboard-response","576","2580985","0.0-1.0-767.0","0","0","80191","","null","","","null","85","","","","","","","","","","","","","","","",""
"","ISI","","html-keyboard-response","577","2582995","0.0-1.0-768.0","0","0","80191","","215","","","75","85","k","","","","","","","","","","","","","","",""
"","S2","","html-keyboard-response","578","2583255","0.0-1.0-769.0","0","0","80191","","null","","","null","85","","NaN","","","","","","","","","","","","","",""
"","response","","html-keyboard-response","579","2583855","0.0-1.0-770.0","0","0","80191","","598","","","75","85","","","2","85","training","adjacent","DE","4","5","P.jpg","N.jpg","1","1","1","",""
