"success","ttype","start_time","trial_type","trial_index","time_elapsed","internal_node_id","warning","missed_checkup","PID","view_history","rt","responses","repeat_instructions","key_press","index","keypress_isi","keypress_S2","block","trial_num","phase","group_type","pair_type","S1_stim","S2_stim","S1_img","S2_img","S1_chosen","S1_higher","accuracy","keypress_iti","total_bonus_tally"
"true","full_screen","d03072023hr2010","fullscreen","0","7045","0.0-0.0","0","0","26806","","","","","","","","","","","","","","","","","","","","","",""
"","instructions","","instructions","1","111737","0.0-1.0-0.0-0.0","0","0","26806","[{""page_index"":0,""viewing_time"":26829},{""page_index"":1,""viewing_time"":32720},{""page_index"":2,""viewing_time"":10309},{""page_index"":3,""viewing_time"":2987},{""page_index"":2,""viewing_time"":626},{""page_index"":1,""viewing_time"":1276},{""page_index"":0,""viewing_time"":3124},{""page_index"":1,""viewing_time"":18506},{""page_index"":2,""viewing_time"":6825},{""page_index"":3,""viewing_time"":1476}]","104681","","","","","","","","","","","","","","","","","","","",""
"","comprehension_check","","survey-multi-choice","2","208047","0.0-1.0-0.0-1.0","0","0","26806","","96294","{""Q0"":""True"",""Q1"":""D"",""Q2"":""Once the second image appears and while the screen 'MAKE A CHOICE' is shown"",""Q3"":""Green mark"",""Q4"":""either D or K""}","0","","","","","","","","","","","","","","","","","",""
"","start_exp","","html-keyboard-response","3","211421","0.0-1.0-1.0","0","0","26806","","3368","","","32","","","","","","","","","","","","","","","","",""
"","S1","","html-keyboard-response","4","211676","0.0-1.0-2.0","0","0","26806","","null","","","null","0","","","","","","","","","","","","","","","",""
"","ISI","","html-keyboard-response","5","212679","0.0-1.0-3.0","0","0","26806","","null","","","null","0","NaN","","","","","","","","","","","","","","",""
"","S2","","html-keyboard-response","6","212932","0.0-1.0-4.0","0","0","26806","","null","","","null","0","","NaN","","","","","","","","","","","","","",""
"","response","","html-keyboard-response","7","214686","0.0-1.0-5.0-0.0","0","0","26806","","null","","","null","0","","","1","0","training","adjacent","DC","4","3","R.jpg","N.jpg","NaN","0","0","",""
"","too_slow_prompt","","html-keyboard-response","8","215690","0.0-1.0-7.0-0.0","1","0","26806","","null","","","null","","","","","","","","","","","","","","","","",""
"","time_out","","html-keyboard-response","9","217694","0.0-1.0-8.0-0.0","0","0","26806","","null","","","null","0","","","","","","","","","","","","","","","",""
"","ITI","","html-keyboard-response","10","218697","0.0-1.0-9.0","0","0","26806","","null","","","null","0","","","","","","","","","","","","","","","NaN",""
"","S1","","html-keyboard-response","11","218984","0.0-1.0-11.0","0","0","26806","","null","","","null","1","","","","","","","","","","","","","","","",""
"","ISI","","html-keyboard-response","12","219988","0.0-1.0-12.0","0","0","26806","","236","","","68","1","d","","","","","","","","","","","","","","",""
"","S2","","html-keyboard-response","13","220242","0.0-1.0-13.0","0","0","26806","","null","","","null","1","","NaN","","","","","","","","","","","","","",""
"","response","","html-keyboard-response","14","220435","0.0-1.0-14.0-0.0","0","0","26806","","190","","","75","1","","","1","1","training","adjacent","BA","2","1","O.jpg","Q.jpg","0","0","1","",""
"","feedback","","html-keyboard-response","15","221439","0.0-1.0-15.0-0.0","0","0","26806","","null","","","null","1","","","","","","","","","","","","","","","",""
"","ITI","","html-keyboard-response","16","222443","0.0-1.0-18.0","0","0","26806","","495","","","75","1","","","","","","","","","","","","","","","k",""
"","S1","","html-keyboard-response","17","222696","0.0-1.0-20.0","0","0","26806","","null","","","null","2","","","","","","","","","","","","","","","",""
"","ISI","","html-keyboard-response","18","223699","0.0-1.0-21.0","0","0","26806","","626","","","68","2","d","","","","","","","","","","","","","","",""
"","S2","","html-keyboard-response","19","223953","0.0-1.0-22.0","0","0","26806","","null","","","null","2","","NaN","","","","","","","","","","","","","",""
"","response","","html-keyboard-response","20","224073","0.0-1.0-23.0-0.0","0","0","26806","","118","","","68","2","","","1","2","training","adjacent","ED","5","4","P.jpg","R.jpg","1","0","0","",""
"","feedback","","html-keyboard-response","21","225077","0.0-1.0-24.0-0.0","0","0","26806","","null","","","null","2","","","","","","","","","","","","","","","",""
"","time_out","","html-keyboard-response","22","227080","0.0-1.0-26.0-0.0","0","0","26806","","null","","","null","2","","","","","","","","","","","","","","","",""
"","ITI","","html-keyboard-response","23","228083","0.0-1.0-27.0","0","0","26806","","434","","","68","2","","","","","","","","","","","","","","","d",""
"","S1","","html-keyboard-response","24","228335","0.0-1.0-29.0","0","0","26806","","null","","","null","3","","","","","","","","","","","","","","","",""
"","ISI","","html-keyboard-response","25","229339","0.0-1.0-30.0","0","0","26806","","155","","","68","3","d","","","","","","","","","","","","","","",""
"","S2","","html-keyboard-response","26","229593","0.0-1.0-31.0","0","0","26806","","null","","","null","3","","NaN","","","","","","","","","","","","","",""
"","response","","html-keyboard-response","27","229737","0.0-1.0-32.0-0.0","0","0","26806","","142","","","75","3","","","1","3","training","adjacent","DC","4","3","R.jpg","N.jpg","0","0","1","",""
"","feedback","","html-keyboard-response","28","230742","0.0-1.0-33.0-0.0","0","0","26806","","null","","","null","3","","","","","","","","","","","","","","","",""
"","ITI","","html-keyboard-response","29","231745","0.0-1.0-36.0","0","0","26806","","428","","","75","3","","","","","","","","","","","","","","","k",""
"","S1","","html-keyboard-response","30","231999","0.0-1.0-38.0","0","0","26806","","null","","","null","4","","","","","","","","","","","","","","","",""
"","ISI","","html-keyboard-response","31","233002","0.0-1.0-39.0","0","0","26806","","222","","","75","4","k","","","","","","","","","","","","","","",""
"","S2","","html-keyboard-response","32","233255","0.0-1.0-40.0","0","0","26806","","null","","","null","4","","NaN","","","","","","","","","","","","","",""
"","response","","html-keyboard-response","33","233719","0.0-1.0-41.0-0.0","0","0","26806","","460","","","75","4","","","1","4","training","adjacent","BA","2","1","O.jpg","Q.jpg","0","0","1","",""
"","feedback","","html-keyboard-response","34","234723","0.0-1.0-42.0-0.0","0","0","26806","","null","","","null","4","","","","","","","","","","","","","","","",""
"","ITI","","html-keyboard-response","35","235727","0.0-1.0-45.0","0","0","26806","","null","","","null","4","","","","","","","","","","","","","","","NaN",""
"","S1","","html-keyboard-response","36","235982","0.0-1.0-47.0","0","0","26806","","null","","","null","5","","","","","","","","","","","","","","","",""
"","ISI","","html-keyboard-response","37","236986","0.0-1.0-48.0","0","0","26806","","null","","","null","5","NaN","","","","","","","","","","","","","","",""
"","S2","","html-keyboard-response","38","237239","0.0-1.0-49.0","0","0","26806","","null","","","null","5","","NaN","","","","","","","","","","","","","",""
"","response","","html-keyboard-response","39","237701","0.0-1.0-50.0-0.0","0","0","26806","","459","","","75","5","","","1","5","training","adjacent","BC","2","3","O.jpg","N.jpg","0","1","0","",""
"","feedback","","html-keyboard-response","40","238706","0.0-1.0-51.0-0.0","0","0","26806","","null","","","null","5","","","","","","","","","","","","","","","",""
"","time_out","","html-keyboard-response","41","240711","0.0-1.0-53.0-0.0","0","0","26806","","null","","","null","5","","","","","","","","","","","","","","","",""
"","ITI","","html-keyboard-response","42","241714","0.0-1.0-54.0","0","0","26806","","null","","","null","5","","","","","","","","","","","","","","","NaN",""
"","S1","","html-keyboard-response","43","241967","0.0-1.0-56.0","0","0","26806","","null","","","null","6","","","","","","","","","","","","","","","",""
"","ISI","","html-keyboard-response","44","242971","0.0-1.0-57.0","0","0","26806","","null","","","null","6","NaN","","","","","","","","","","","","","","",""
"","S2","","html-keyboard-response","45","243226","0.0-1.0-58.0","0","0","26806","","null","","","null","6","","NaN","","","","","","","","","","","","","",""
"","response","","html-keyboard-response","46","243583","0.0-1.0-59.0-0.0","0","0","26806","","355","","","68","6","","","1","6","training","adjacent","GF","7","6","M.jpg","L.jpg","1","0","0","",""
"","feedback","","html-keyboard-response","47","244588","0.0-1.0-60.0-0.0","0","0","26806","","null","","","null","6","","","","","","","","","","","","","","","",""
"","time_out","","html-keyboard-response","48","246594","0.0-1.0-62.0-0.0","0","0","26806","","null","","","null","6","","","","","","","","","","","","","","","",""
"","ITI","","html-keyboard-response","49","247597","0.0-1.0-63.0","0","0","26806","","null","","","null","6","","","","","","","","","","","","","","","NaN",""
"","S1","","html-keyboard-response","50","247850","0.0-1.0-65.0","0","0","26806","","null","","","null","7","","","","","","","","","","","","","","","",""
"","ISI","","html-keyboard-response","51","248855","0.0-1.0-66.0","0","0","26806","","148","","","75","7","k","","","","","","","","","","","","","","",""
"","S2","","html-keyboard-response","52","249109","0.0-1.0-67.0","0","0","26806","","null","","","null","7","","NaN","","","","","","","","","","","","","",""
"","response","","html-keyboard-response","53","249281","0.0-1.0-68.0-0.0","0","0","26806","","169","","","75","7","","","1","7","training","adjacent","EF","5","6","P.jpg","L.jpg","0","1","0","",""
"","feedback","","html-keyboard-response","54","250285","0.0-1.0-69.0-0.0","0","0","26806","","null","","","null","7","","","","","","","","","","","","","","","",""
"","time_out","","html-keyboard-response","55","252288","0.0-1.0-71.0-0.0","0","0","26806","","null","","","null","7","","","","","","","","","","","","","","","",""
"","ITI","","html-keyboard-response","56","253291","0.0-1.0-72.0","0","0","26806","","null","","","null","7","","","","","","","","","","","","","","","NaN",""
"","S1","","html-keyboard-response","57","253544","0.0-1.0-74.0","0","0","26806","","null","","","null","8","","","","","","","","","","","","","","","",""
"","ISI","","html-keyboard-response","58","254547","0.0-1.0-75.0","0","0","26806","","151","","","68","8","d","","","","","","","","","","","","","","",""
"","S2","","html-keyboard-response","59","254800","0.0-1.0-76.0","0","0","26806","","null","","","null","8","","NaN","","","","","","","","","","","","","",""
"","response","","html-keyboard-response","60","255137","0.0-1.0-77.0-0.0","0","0","26806","","335","","","68","8","","","1","8","training","adjacent","ED","5","4","P.jpg","R.jpg","1","0","0","",""
"","feedback","","html-keyboard-response","61","256140","0.0-1.0-78.0-0.0","0","0","26806","","null","","","null","8","","","","","","","","","","","","","","","",""
"","time_out","","html-keyboard-response","62","258143","0.0-1.0-80.0-0.0","0","0","26806","","null","","","null","8","","","","","","","","","","","","","","","",""
"","ITI","","html-keyboard-response","63","259147","0.0-1.0-81.0","0","0","26806","","null","","","null","8","","","","","","","","","","","","","","","NaN",""
"","S1","","html-keyboard-response","64","259400","0.0-1.0-83.0","0","0","26806","","null","","","null","9","","","","","","","","","","","","","","","",""
"","ISI","","html-keyboard-response","65","260403","0.0-1.0-84.0","0","0","26806","","97","","","75","9","k","","","","","","","","","","","","","","",""
"","S2","","html-keyboard-response","66","260656","0.0-1.0-85.0","0","0","26806","","null","","","null","9","","NaN","","","","","","","","","","","","","",""
"","response","","html-keyboard-response","67","260757","0.0-1.0-86.0-0.0","0","0","26806","","98","","","75","9","","","1","9","training","adjacent","BC","2","3","O.jpg","N.jpg","0","1","0","",""
"","feedback","","html-keyboard-response","68","261761","0.0-1.0-87.0-0.0","0","0","26806","","null","","","null","9","","","","","","","","","","","","","","","",""
"","time_out","","html-keyboard-response","69","263765","0.0-1.0-89.0-0.0","0","0","26806","","null","","","null","9","","","","","","","","","","","","","","","",""
"","ITI","","html-keyboard-response","70","264769","0.0-1.0-90.0","0","0","26806","","null","","","null","9","","","","","","","","","","","","","","","NaN",""
"","S1","","html-keyboard-response","71","265023","0.0-1.0-92.0","0","0","26806","","null","","","null","10","","","","","","","","","","","","","","","",""
"","ISI","","html-keyboard-response","72","266028","0.0-1.0-93.0","0","0","26806","","null","","","null","10","NaN","","","","","","","","","","","","","","",""
"","S2","","html-keyboard-response","73","266284","0.0-1.0-94.0","0","0","26806","","null","","","null","10","","NaN","","","","","","","","","","","","","",""
"","response","","html-keyboard-response","74","266643","0.0-1.0-95.0-0.0","0","0","26806","","357","","","68","10","","","1","10","training","adjacent","EF","5","6","P.jpg","L.jpg","1","1","1","",""
"","feedback","","html-keyboard-response","75","267649","0.0-1.0-96.0-0.0","0","0","26806","","null","","","null","10","","","","","","","","","","","","","","","",""
"","ITI","","html-keyboard-response","76","268653","0.0-1.0-99.0","0","0","26806","","null","","","null","10","","","","","","","","","","","","","","","NaN",""
"","S1","","html-keyboard-response","77","268907","0.0-1.0-101.0","0","0","26806","","null","","","null","11","","","","","","","","","","","","","","","",""
"","ISI","","html-keyboard-response","78","269911","0.0-1.0-102.0","0","0","26806","","null","","","null","11","NaN","","","","","","","","","","","","","","",""
"","S2","","html-keyboard-response","79","270164","0.0-1.0-103.0","0","0","26806","","null","","","null","11","","NaN","","","","","","","","","","","","","",""
"","response","","html-keyboard-response","80","270554","0.0-1.0-104.0-0.0","0","0","26806","","387","","","75","11","","","1","11","training","adjacent","FG","6","7","L.jpg","M.jpg","0","1","0","",""
"","feedback","","html-keyboard-response","81","271559","0.0-1.0-105.0-0.0","0","0","26806","","null","","","null","11","","","","","","","","","","","","","","","",""
"","time_out","","html-keyboard-response","82","273564","0.0-1.0-107.0-0.0","0","0","26806","","null","","","null","11","","","","","","","","","","","","","","","",""
"","ITI","","html-keyboard-response","83","274568","0.0-1.0-108.0","0","0","26806","","null","","","null","11","","","","","","","","","","","","","","","NaN",""
"","S1","","html-keyboard-response","84","274821","0.0-1.0-110.0","0","0","26806","","null","","","null","12","","","","","","","","","","","","","","","",""
"","ISI","","html-keyboard-response","85","275825","0.0-1.0-111.0","0","0","26806","","null","","","null","12","NaN","","","","","","","","","","","","","","",""
"","S2","","html-keyboard-response","86","276078","0.0-1.0-112.0","0","0","26806","","null","","","null","12","","NaN","","","","","","","","","","","","","",""
"","response","","html-keyboard-response","87","276414","0.0-1.0-113.0-0.0","0","0","26806","","334","","","75","12","","","1","12","training","adjacent","DE","4","5","R.jpg","P.jpg","0","1","0","",""
"","feedback","","html-keyboard-response","88","277417","0.0-1.0-114.0-0.0","0","0","26806","","null","","","null","12","","","","","","","","","","","","","","","",""
"","time_out","","html-keyboard-response","89","279420","0.0-1.0-116.0-0.0","0","0","26806","","null","","","null","12","","","","","","","","","","","","","","","",""
"","ITI","","html-keyboard-response","90","280423","0.0-1.0-117.0","0","0","26806","","null","","","null","12","","","","","","","","","","","","","","","NaN",""
"","S1","","html-keyboard-response","91","280676","0.0-1.0-119.0","0","0","26806","","null","","","null","13","","","","","","","","","","","","","","","",""
"","ISI","","html-keyboard-response","92","281679","0.0-1.0-120.0","0","0","26806","","null","","","null","13","NaN","","","","","","","","","","","","","","",""
"","S2","","html-keyboard-response","93","281932","0.0-1.0-121.0","0","0","26806","","null","","","null","13","","NaN","","","","","","","","","","","","","",""
"","response","","html-keyboard-response","94","282201","0.0-1.0-122.0-0.0","0","0","26806","","268","","","68","13","","","1","13","training","adjacent","ED","5","4","P.jpg","R.jpg","1","0","0","",""
"","feedback","","html-keyboard-response","95","283205","0.0-1.0-123.0-0.0","0","0","26806","","null","","","null","13","","","","","","","","","","","","","","","",""
"","time_out","","html-keyboard-response","96","285209","0.0-1.0-125.0-0.0","0","0","26806","","null","","","null","13","","","","","","","","","","","","","","","",""
"","ITI","","html-keyboard-response","97","286212","0.0-1.0-126.0","0","0","26806","","null","","","null","13","","","","","","","","","","","","","","","NaN",""
"","S1","","html-keyboard-response","98","286466","0.0-1.0-128.0","0","0","26806","","null","","","null","14","","","","","","","","","","","","","","","",""
"","ISI","","html-keyboard-response","99","287470","0.0-1.0-129.0","0","0","26806","","null","","","null","14","NaN","","","","","","","","","","","","","","",""
"","S2","","html-keyboard-response","100","287724","0.0-1.0-130.0","0","0","26806","","null","","","null","14","","NaN","","","","","","","","","","","","","",""
"","response","","html-keyboard-response","101","287947","0.0-1.0-131.0-0.0","0","0","26806","","220","","","75","14","","","1","14","training","adjacent","FE","6","5","L.jpg","P.jpg","0","0","1","",""
"","feedback","","html-keyboard-response","102","288951","0.0-1.0-132.0-0.0","0","0","26806","","null","","","null","14","","","","","","","","","","","","","","","",""
"","ITI","","html-keyboard-response","103","289955","0.0-1.0-135.0","0","0","26806","","null","","","null","14","","","","","","","","","","","","","","","NaN",""
"","S1","","html-keyboard-response","104","290209","0.0-1.0-137.0","0","0","26806","","null","","","null","15","","","","","","","","","","","","","","","",""
"","ISI","","html-keyboard-response","105","291212","0.0-1.0-138.0","0","0","26806","","null","","","null","15","NaN","","","","","","","","","","","","","","",""
"","S2","","html-keyboard-response","106","291465","0.0-1.0-139.0","0","0","26806","","null","","","null","15","","NaN","","","","","","","","","","","","","",""
"","response","","html-keyboard-response","107","291929","0.0-1.0-140.0-0.0","0","0","26806","","461","","","75","15","","","1","15","training","adjacent","DE","4","5","R.jpg","P.jpg","0","1","0","",""
"","feedback","","html-keyboard-response","108","292934","0.0-1.0-141.0-0.0","0","0","26806","","null","","","null","15","","","","","","","","","","","","","","","",""
"","time_out","","html-keyboard-response","109","294941","0.0-1.0-143.0-0.0","0","0","26806","","null","","","null","15","","","","","","","","","","","","","","","",""
"","ITI","","html-keyboard-response","110","295944","0.0-1.0-144.0","0","0","26806","","null","","","null","15","","","","","","","","","","","","","","","NaN",""
"","S1","","html-keyboard-response","111","296198","0.0-1.0-146.0","0","0","26806","","null","","","null","16","","","","","","","","","","","","","","","",""
"","ISI","","html-keyboard-response","112","297203","0.0-1.0-147.0","0","0","26806","","361","","","75","16","k","","","","","","","","","","","","","","",""
"","S2","","html-keyboard-response","113","297457","0.0-1.0-148.0","0","0","26806","","null","","","null","16","","NaN","","","","","","","","","","","","","",""
"","response","","html-keyboard-response","114","297563","0.0-1.0-149.0-0.0","0","0","26806","","105","","","75","16","","","1","16","training","adjacent","EF","5","6","P.jpg","L.jpg","0","1","0","",""
"","feedback","","html-keyboard-response","115","298567","0.0-1.0-150.0-0.0","0","0","26806","","null","","","null","16","","","","","","","","","","","","","","","",""
"","time_out","","html-keyboard-response","116","300572","0.0-1.0-152.0-0.0","0","0","26806","","null","","","null","16","","","","","","","","","","","","","","","",""
"","ITI","","html-keyboard-response","117","301575","0.0-1.0-153.0","0","0","26806","","null","","","null","16","","","","","","","","","","","","","","","NaN",""
"","S1","","html-keyboard-response","118","301830","0.0-1.0-155.0","0","0","26806","","null","","","null","17","","","","","","","","","","","","","","","",""
"","ISI","","html-keyboard-response","119","302833","0.0-1.0-156.0","0","0","26806","","null","","","null","17","NaN","","","","","","","","","","","","","","",""
"","S2","","html-keyboard-response","120","302849","0.0-1.0-157.0","0","0","26806","","13","","","75","17","","k","1","17","training","adjacent","FG","6","7","L.jpg","M.jpg","0","1","0","",""
"","feedback","","html-keyboard-response","121","303854","0.0-1.0-159.0-0.0","0","0","26806","","null","","","null","17","","","","","","","","","","","","","","","",""
"","time_out","","html-keyboard-response","122","305859","0.0-1.0-161.0-0.0","0","0","26806","","null","","","null","17","","","","","","","","","","","","","","","",""
"","ITI","","html-keyboard-response","123","306864","0.0-1.0-162.0","0","0","26806","","null","","","null","17","","","","","","","","","","","","","","","NaN",""
"","S1","","html-keyboard-response","124","307118","0.0-1.0-164.0","0","0","26806","","null","","","null","18","","","","","","","","","","","","","","","",""
"","ISI","","html-keyboard-response","125","308121","0.0-1.0-165.0","0","0","26806","","262","","","68","18","d","","","","","","","","","","","","","","",""
"","S2","","html-keyboard-response","126","308375","0.0-1.0-166.0","0","0","26806","","null","","","null","18","","NaN","","","","","","","","","","","","","",""
"","response","","html-keyboard-response","127","308582","0.0-1.0-167.0-0.0","0","0","26806","","205","","","68","18","","","1","18","training","adjacent","AB","1","2","Q.jpg","O.jpg","1","1","1","",""
"","feedback","","html-keyboard-response","128","309587","0.0-1.0-168.0-0.0","0","0","26806","","null","","","null","18","","","","","","","","","","","","","","","",""
"","ITI","","html-keyboard-response","129","310589","0.0-1.0-171.0","0","0","26806","","null","","","null","18","","","","","","","","","","","","","","","NaN",""
"","S1","","html-keyboard-response","130","310842","0.0-1.0-173.0","0","0","26806","","null","","","null","19","","","","","","","","","","","","","","","",""
"","ISI","","html-keyboard-response","131","311845","0.0-1.0-174.0","0","0","26806","","null","","","null","19","NaN","","","","","","","","","","","","","","",""
"","S2","","html-keyboard-response","132","312098","0.0-1.0-175.0","0","0","26806","","null","","","null","19","","NaN","","","","","","","","","","","","","",""
"","response","","html-keyboard-response","133","313525","0.0-1.0-176.0-0.0","0","0","26806","","1424","","","75","19","","","1","19","training","adjacent","CB","3","2","N.jpg","O.jpg","0","0","1","",""
"","feedback","","html-keyboard-response","134","314528","0.0-1.0-177.0-0.0","0","0","26806","","null","","","null","19","","","","","","","","","","","","","","","",""
"","ITI","","html-keyboard-response","135","315532","0.0-1.0-180.0","0","0","26806","","null","","","null","19","","","","","","","","","","","","","","","NaN",""
"","S1","","html-keyboard-response","136","315785","0.0-1.0-182.0","0","0","26806","","null","","","null","20","","","","","","","","","","","","","","","",""
"","ISI","","html-keyboard-response","137","316788","0.0-1.0-183.0","0","0","26806","","null","","","null","20","NaN","","","","","","","","","","","","","","",""
"","S2","","html-keyboard-response","138","317042","0.0-1.0-184.0","0","0","26806","","null","","","null","20","","NaN","","","","","","","","","","","","","",""
"","response","","html-keyboard-response","139","317396","0.0-1.0-185.0-0.0","0","0","26806","","352","","","68","20","","","1","20","training","adjacent","FE","6","5","L.jpg","P.jpg","1","0","0","",""
"","feedback","","html-keyboard-response","140","318400","0.0-1.0-186.0-0.0","0","0","26806","","null","","","null","20","","","","","","","","","","","","","","","",""
"","time_out","","html-keyboard-response","141","320405","0.0-1.0-188.0-0.0","0","0","26806","","null","","","null","20","","","","","","","","","","","","","","","",""
"","ITI","","html-keyboard-response","142","321408","0.0-1.0-189.0","0","0","26806","","null","","","null","20","","","","","","","","","","","","","","","NaN",""
"","S1","","html-keyboard-response","143","321661","0.0-1.0-191.0","0","0","26806","","null","","","null","21","","","","","","","","","","","","","","","",""
"","ISI","","html-keyboard-response","144","322666","0.0-1.0-192.0","0","0","26806","","113","","","75","21","k","","","","","","","","","","","","","","",""
"","S2","","html-keyboard-response","145","322920","0.0-1.0-193.0","0","0","26806","","null","","","null","21","","NaN","","","","","","","","","","","","","",""
"","response","","html-keyboard-response","146","323240","0.0-1.0-194.0-0.0","0","0","26806","","318","","","75","21","","","1","21","training","adjacent","CD","3","4","N.jpg","R.jpg","0","1","0","",""
"","feedback","","html-keyboard-response","147","324244","0.0-1.0-195.0-0.0","0","0","26806","","null","","","null","21","","","","","","","","","","","","","","","",""
"","time_out","","html-keyboard-response","148","326248","0.0-1.0-197.0-0.0","0","0","26806","","null","","","null","21","","","","","","","","","","","","","","","",""
"","ITI","","html-keyboard-response","149","327251","0.0-1.0-198.0","0","0","26806","","null","","","null","21","","","","","","","","","","","","","","","NaN",""
"","S1","","html-keyboard-response","150","327504","0.0-1.0-200.0","0","0","26806","","null","","","null","22","","","","","","","","","","","","","","","",""
"","ISI","","html-keyboard-response","151","328508","0.0-1.0-201.0","0","0","26806","","245","","","68","22","d","","","","","","","","","","","","","","",""
"","S2","","html-keyboard-response","152","328761","0.0-1.0-202.0","0","0","26806","","null","","","null","22","","NaN","","","","","","","","","","","","","",""
"","response","","html-keyboard-response","153","328909","0.0-1.0-203.0-0.0","0","0","26806","","146","","","68","22","","","1","22","training","adjacent","GF","7","6","M.jpg","L.jpg","1","0","0","",""
"","feedback","","html-keyboard-response","154","329913","0.0-1.0-204.0-0.0","0","0","26806","","null","","","null","22","","","","","","","","","","","","","","","",""
"","time_out","","html-keyboard-response","155","331917","0.0-1.0-206.0-0.0","0","0","26806","","null","","","null","22","","","","","","","","","","","","","","","",""
"","ITI","","html-keyboard-response","156","332921","0.0-1.0-207.0","0","0","26806","","null","","","null","22","","","","","","","","","","","","","","","NaN",""
"","S1","","html-keyboard-response","157","333175","0.0-1.0-209.0","0","0","26806","","null","","","null","23","","","","","","","","","","","","","","","",""
"","ISI","","html-keyboard-response","158","334178","0.0-1.0-210.0","0","0","26806","","303","","","75","23","k","","","","","","","","","","","","","","",""
"","S2","","html-keyboard-response","159","334431","0.0-1.0-211.0","0","0","26806","","null","","","null","23","","NaN","","","","","","","","","","","","","",""
"","response","","html-keyboard-response","160","334716","0.0-1.0-212.0-0.0","0","0","26806","","282","","","75","23","","","1","23","training","adjacent","BC","2","3","O.jpg","N.jpg","0","1","0","",""
"","feedback","","html-keyboard-response","161","335721","0.0-1.0-213.0-0.0","0","0","26806","","null","","","null","23","","","","","","","","","","","","","","","",""
"","time_out","","html-keyboard-response","162","337724","0.0-1.0-215.0-0.0","0","0","26806","","null","","","null","23","","","","","","","","","","","","","","","",""
"","ITI","","html-keyboard-response","163","338728","0.0-1.0-216.0","0","0","26806","","null","","","null","23","","","","","","","","","","","","","","","NaN",""
"","S1","","html-keyboard-response","164","338981","0.0-1.0-218.0","0","0","26806","","null","","","null","24","","","","","","","","","","","","","","","",""
"","ISI","","html-keyboard-response","165","339984","0.0-1.0-219.0","0","0","26806","","491","","","68","24","d","","","","","","","","","","","","","","",""
"","S2","","html-keyboard-response","166","340237","0.0-1.0-220.0","0","0","26806","","null","","","null","24","","NaN","","","","","","","","","","","","","",""
"","response","","html-keyboard-response","167","340365","0.0-1.0-221.0-0.0","0","0","26806","","115","","","68","24","","","1","24","training","adjacent","CD","3","4","N.jpg","R.jpg","1","1","1","",""
"","feedback","","html-keyboard-response","168","341370","0.0-1.0-222.0-0.0","0","0","26806","","null","","","null","24","","","","","","","","","","","","","","","",""
"","ITI","","html-keyboard-response","169","342374","0.0-1.0-225.0","0","0","26806","","null","","","null","24","","","","","","","","","","","","","","","NaN",""
"","S1","","html-keyboard-response","170","342627","0.0-1.0-227.0","0","0","26806","","null","","","null","25","","","","","","","","","","","","","","","",""
"","ISI","","html-keyboard-response","171","343629","0.0-1.0-228.0","0","0","26806","","null","","","null","25","NaN","","","","","","","","","","","","","","",""
"","S2","","html-keyboard-response","172","343883","0.0-1.0-229.0","0","0","26806","","null","","","null","25","","NaN","","","","","","","","","","","","","",""
"","response","","html-keyboard-response","173","344017","0.0-1.0-230.0-0.0","0","0","26806","","130","","","75","25","","","1","25","training","adjacent","FE","6","5","L.jpg","P.jpg","0","0","1","",""
"","feedback","","html-keyboard-response","174","345023","0.0-1.0-231.0-0.0","0","0","26806","","null","","","null","25","","","","","","","","","","","","","","","",""
"","ITI","","html-keyboard-response","175","346026","0.0-1.0-234.0","0","0","26806","","null","","","null","25","","","","","","","","","","","","","","","NaN",""
"","S1","","html-keyboard-response","176","346279","0.0-1.0-236.0","0","0","26806","","null","","","null","26","","","","","","","","","","","","","","","",""
"","ISI","","html-keyboard-response","177","347287","0.0-1.0-237.0","0","0","26806","","null","","","null","26","NaN","","","","","","","","","","","","","","",""
"","S2","","html-keyboard-response","178","347540","0.0-1.0-238.0","0","0","26806","","null","","","null","26","","NaN","","","","","","","","","","","","","",""
"","response","","html-keyboard-response","179","347806","0.0-1.0-239.0-0.0","0","0","26806","","264","","","75","26","","","1","26","training","adjacent","AB","1","2","Q.jpg","O.jpg","0","1","0","",""
"","feedback","","html-keyboard-response","180","348809","0.0-1.0-240.0-0.0","0","0","26806","","null","","","null","26","","","","","","","","","","","","","","","",""
"","time_out","","html-keyboard-response","181","350813","0.0-1.0-242.0-0.0","0","0","26806","","null","","","null","26","","","","","","","","","","","","","","","",""
"","ITI","","html-keyboard-response","182","351816","0.0-1.0-243.0","0","0","26806","","null","","","null","26","","","","","","","","","","","","","","","NaN",""
"","S1","","html-keyboard-response","183","352070","0.0-1.0-245.0","0","0","26806","","null","","","null","27","","","","","","","","","","","","","","","",""
"","ISI","","html-keyboard-response","184","353081","0.0-1.0-246.0","0","0","26806","","null","","","null","27","NaN","","","","","","","","","","","","","","",""
"","S2","","html-keyboard-response","185","353336","0.0-1.0-247.0","0","0","26806","","null","","","null","27","","NaN","","","","","","","","","","","","","",""
"","response","","html-keyboard-response","186","353587","0.0-1.0-248.0-0.0","0","0","26806","","250","","","68","27","","","1","27","training","adjacent","CD","3","4","N.jpg","R.jpg","1","1","1","",""
"","feedback","","html-keyboard-response","187","354590","0.0-1.0-249.0-0.0","0","0","26806","","null","","","null","27","","","","","","","","","","","","","","","",""
"","ITI","","html-keyboard-response","188","355593","0.0-1.0-252.0","0","0","26806","","null","","","null","27","","","","","","","","","","","","","","","NaN",""
"","S1","","html-keyboard-response","189","355846","0.0-1.0-254.0","0","0","26806","","null","","","null","28","","","","","","","","","","","","","","","",""
"","ISI","","html-keyboard-response","190","356849","0.0-1.0-255.0","0","0","26806","","null","","","null","28","NaN","","","","","","","","","","","","","","",""
"","S2","","html-keyboard-response","191","357102","0.0-1.0-256.0","0","0","26806","","null","","","null","28","","NaN","","","","","","","","","","","","","",""
"","response","","html-keyboard-response","192","357207","0.0-1.0-257.0-0.0","0","0","26806","","102","","","68","28","","","1","28","training","adjacent","CB","3","2","N.jpg","O.jpg","1","0","0","",""
"","feedback","","html-keyboard-response","193","358211","0.0-1.0-258.0-0.0","0","0","26806","","null","","","null","28","","","","","","","","","","","","","","","",""
"","time_out","","html-keyboard-response","194","360215","0.0-1.0-260.0-0.0","0","0","26806","","null","","","null","28","","","","","","","","","","","","","","","",""
"","ITI","","html-keyboard-response","195","361218","0.0-1.0-261.0","0","0","26806","","null","","","null","28","","","","","","","","","","","","","","","NaN",""
"","S1","","html-keyboard-response","196","361472","0.0-1.0-263.0","0","0","26806","","null","","","null","29","","","","","","","","","","","","","","","",""
"","ISI","","html-keyboard-response","197","362475","0.0-1.0-264.0","0","0","26806","","null","","","null","29","NaN","","","","","","","","","","","","","","",""
"","S2","","html-keyboard-response","198","362728","0.0-1.0-265.0","0","0","26806","","null","","","null","29","","NaN","","","","","","","","","","","","","",""
"","response","","html-keyboard-response","199","362901","0.0-1.0-266.0-0.0","0","0","26806","","171","","","75","29","","","1","29","training","adjacent","BC","2","3","O.jpg","N.jpg","0","1","0","",""
"","feedback","","html-keyboard-response","200","363907","0.0-1.0-267.0-0.0","0","0","26806","","null","","","null","29","","","","","","","","","","","","","","","",""
"","time_out","","html-keyboard-response","201","365911","0.0-1.0-269.0-0.0","0","0","26806","","null","","","null","29","","","","","","","","","","","","","","","",""
"","ITI","","html-keyboard-response","202","366914","0.0-1.0-270.0","0","0","26806","","null","","","null","29","","","","","","","","","","","","","","","NaN",""
"","S1","","html-keyboard-response","203","367167","0.0-1.0-272.0","0","0","26806","","null","","","null","30","","","","","","","","","","","","","","","",""
"","ISI","","html-keyboard-response","204","368171","0.0-1.0-273.0","0","0","26806","","null","","","null","30","NaN","","","","","","","","","","","","","","",""
"","S2","","html-keyboard-response","205","368425","0.0-1.0-274.0","0","0","26806","","null","","","null","30","","NaN","","","","","","","","","","","","","",""
"","response","","html-keyboard-response","206","368539","0.0-1.0-275.0-0.0","0","0","26806","","112","","","75","30","","","1","30","training","adjacent","DC","4","3","R.jpg","N.jpg","0","0","1","",""
"","feedback","","html-keyboard-response","207","369543","0.0-1.0-276.0-0.0","0","0","26806","","null","","","null","30","","","","","","","","","","","","","","","",""
"","ITI","","html-keyboard-response","208","370546","0.0-1.0-279.0","0","0","26806","","null","","","null","30","","","","","","","","","","","","","","","NaN",""
"","S1","","html-keyboard-response","209","370800","0.0-1.0-281.0","0","0","26806","","null","","","null","31","","","","","","","","","","","","","","","",""
"","ISI","","html-keyboard-response","210","371803","0.0-1.0-282.0","0","0","26806","","null","","","null","31","NaN","","","","","","","","","","","","","","",""
"","S2","","html-keyboard-response","211","372057","0.0-1.0-283.0","0","0","26806","","null","","","null","31","","NaN","","","","","","","","","","","","","",""
"","response","","html-keyboard-response","212","372460","0.0-1.0-284.0-0.0","0","0","26806","","400","","","68","31","","","1","31","training","adjacent","ED","5","4","P.jpg","R.jpg","1","0","0","",""
"","feedback","","html-keyboard-response","213","373464","0.0-1.0-285.0-0.0","0","0","26806","","null","","","null","31","","","","","","","","","","","","","","","",""
"","time_out","","html-keyboard-response","214","375467","0.0-1.0-287.0-0.0","0","0","26806","","null","","","null","31","","","","","","","","","","","","","","","",""
"","ITI","","html-keyboard-response","215","376470","0.0-1.0-288.0","0","0","26806","","null","","","null","31","","","","","","","","","","","","","","","NaN",""
"","S1","","html-keyboard-response","216","376723","0.0-1.0-290.0","0","0","26806","","null","","","null","32","","","","","","","","","","","","","","","",""
"","ISI","","html-keyboard-response","217","377727","0.0-1.0-291.0","0","0","26806","","null","","","null","32","NaN","","","","","","","","","","","","","","",""
"","S2","","html-keyboard-response","218","377981","0.0-1.0-292.0","0","0","26806","","null","","","null","32","","NaN","","","","","","","","","","","","","",""
"","response","","html-keyboard-response","219","379272","0.0-1.0-293.0-0.0","0","0","26806","","1289","","","75","32","","","1","32","training","adjacent","CD","3","4","N.jpg","R.jpg","0","1","0","",""
"","feedback","","html-keyboard-response","220","380277","0.0-1.0-294.0-0.0","0","0","26806","","null","","","null","32","","","","","","","","","","","","","","","",""
"","time_out","","html-keyboard-response","221","382283","0.0-1.0-296.0-0.0","0","0","26806","","null","","","null","32","","","","","","","","","","","","","","","",""
"","ITI","","html-keyboard-response","222","383288","0.0-1.0-297.0","0","0","26806","","null","","","null","32","","","","","","","","","","","","","","","NaN",""
"","S1","","html-keyboard-response","223","383542","0.0-1.0-299.0","0","0","26806","","null","","","null","33","","","","","","","","","","","","","","","",""
"","ISI","","html-keyboard-response","224","384545","0.0-1.0-300.0","0","0","26806","","null","","","null","33","NaN","","","","","","","","","","","","","","",""
"","S2","","html-keyboard-response","225","384798","0.0-1.0-301.0","0","0","26806","","null","","","null","33","","NaN","","","","","","","","","","","","","",""
"","response","","html-keyboard-response","226","385150","0.0-1.0-302.0-0.0","0","0","26806","","348","","","68","33","","","1","33","training","adjacent","AB","1","2","Q.jpg","O.jpg","1","1","1","",""
"","feedback","","html-keyboard-response","227","386155","0.0-1.0-303.0-0.0","0","0","26806","","null","","","null","33","","","","","","","","","","","","","","","",""
"","ITI","","html-keyboard-response","228","387158","0.0-1.0-306.0","0","0","26806","","null","","","null","33","","","","","","","","","","","","","","","NaN",""
"","S1","","html-keyboard-response","229","387411","0.0-1.0-308.0","0","0","26806","","null","","","null","34","","","","","","","","","","","","","","","",""
"","ISI","","html-keyboard-response","230","388415","0.0-1.0-309.0","0","0","26806","","null","","","null","34","NaN","","","","","","","","","","","","","","",""
"","S2","","html-keyboard-response","231","388669","0.0-1.0-310.0","0","0","26806","","null","","","null","34","","NaN","","","","","","","","","","","","","",""
"","response","","html-keyboard-response","232","389348","0.0-1.0-311.0-0.0","0","0","26806","","677","","","75","34","","","1","34","training","adjacent","BA","2","1","O.jpg","Q.jpg","0","0","1","",""
"","feedback","","html-keyboard-response","233","390353","0.0-1.0-312.0-0.0","0","0","26806","","null","","","null","34","","","","","","","","","","","","","","","",""
"","ITI","","html-keyboard-response","234","391357","0.0-1.0-315.0","0","0","26806","","null","","","null","34","","","","","","","","","","","","","","","NaN",""
"","S1","","html-keyboard-response","235","391609","0.0-1.0-317.0","0","0","26806","","null","","","null","35","","","","","","","","","","","","","","","",""
"","ISI","","html-keyboard-response","236","392613","0.0-1.0-318.0","0","0","26806","","null","","","null","35","NaN","","","","","","","","","","","","","","",""
"","S2","","html-keyboard-response","237","392865","0.0-1.0-319.0","0","0","26806","","null","","","null","35","","NaN","","","","","","","","","","","","","",""
"","response","","html-keyboard-response","238","393428","0.0-1.0-320.0-0.0","0","0","26806","","561","","","68","35","","","1","35","training","adjacent","CB","3","2","N.jpg","O.jpg","1","0","0","",""
"","feedback","","html-keyboard-response","239","394432","0.0-1.0-321.0-0.0","0","0","26806","","null","","","null","35","","","","","","","","","","","","","","","",""
"","time_out","","html-keyboard-response","240","396435","0.0-1.0-323.0-0.0","0","0","26806","","null","","","null","35","","","","","","","","","","","","","","","",""
"","ITI","","html-keyboard-response","241","397438","0.0-1.0-324.0","0","0","26806","","null","","","null","35","","","","","","","","","","","","","","","NaN",""
"","S1","","html-keyboard-response","242","397691","0.0-1.0-326.0","0","0","26806","","null","","","null","36","","","","","","","","","","","","","","","",""
"","ISI","","html-keyboard-response","243","398694","0.0-1.0-327.0","0","0","26806","","null","","","null","36","NaN","","","","","","","","","","","","","","",""
"","S2","","html-keyboard-response","244","398947","0.0-1.0-328.0","0","0","26806","","null","","","null","36","","NaN","","","","","","","","","","","","","",""
"","response","","html-keyboard-response","245","399333","0.0-1.0-329.0-0.0","0","0","26806","","384","","","75","36","","","1","36","training","adjacent","GF","7","6","M.jpg","L.jpg","0","0","1","",""
"","feedback","","html-keyboard-response","246","400338","0.0-1.0-330.0-0.0","0","0","26806","","null","","","null","36","","","","","","","","","","","","","","","",""
"","ITI","","html-keyboard-response","247","401341","0.0-1.0-333.0","0","0","26806","","null","","","null","36","","","","","","","","","","","","","","","NaN",""
"","S1","","html-keyboard-response","248","401595","0.0-1.0-335.0","0","0","26806","","null","","","null","37","","","","","","","","","","","","","","","",""
"","ISI","","html-keyboard-response","249","402600","0.0-1.0-336.0","0","0","26806","","null","","","null","37","NaN","","","","","","","","","","","","","","",""
"","S2","","html-keyboard-response","250","402921","0.0-1.0-337.0","0","0","26806","","null","","","null","37","","NaN","","","","","","","","","","","","","",""
"","response","","html-keyboard-response","251","403224","0.0-1.0-338.0-0.0","0","0","26806","","300","","","75","37","","","1","37","training","adjacent","DE","4","5","R.jpg","P.jpg","0","1","0","",""
"","feedback","","html-keyboard-response","252","404229","0.0-1.0-339.0-0.0","0","0","26806","","null","","","null","37","","","","","","","","","","","","","","","",""
"","time_out","","html-keyboard-response","253","406233","0.0-1.0-341.0-0.0","0","0","26806","","null","","","null","37","","","","","","","","","","","","","","","",""
"","ITI","","html-keyboard-response","254","407235","0.0-1.0-342.0","0","0","26806","","null","","","null","37","","","","","","","","","","","","","","","NaN",""
"","S1","","html-keyboard-response","255","407489","0.0-1.0-344.0","0","0","26806","","null","","","null","38","","","","","","","","","","","","","","","",""
"","ISI","","html-keyboard-response","256","408492","0.0-1.0-345.0","0","0","26806","","null","","","null","38","NaN","","","","","","","","","","","","","","",""
"","S2","","html-keyboard-response","257","408745","0.0-1.0-346.0","0","0","26806","","null","","","null","38","","NaN","","","","","","","","","","","","","",""
"","response","","html-keyboard-response","258","408879","0.0-1.0-347.0-0.0","0","0","26806","","131","","","68","38","","","1","38","training","adjacent","FG","6","7","L.jpg","M.jpg","1","1","1","",""
"","feedback","","html-keyboard-response","259","409883","0.0-1.0-348.0-0.0","0","0","26806","","null","","","null","38","","","","","","","","","","","","","","","",""
"","ITI","","html-keyboard-response","260","410887","0.0-1.0-351.0","0","0","26806","","null","","","null","38","","","","","","","","","","","","","","","NaN",""
"","S1","","html-keyboard-response","261","411141","0.0-1.0-353.0","0","0","26806","","null","","","null","39","","","","","","","","","","","","","","","",""
"","ISI","","html-keyboard-response","262","412145","0.0-1.0-354.0","0","0","26806","","null","","","null","39","NaN","","","","","","","","","","","","","","",""
"","S2","","html-keyboard-response","263","412398","0.0-1.0-355.0","0","0","26806","","null","","","null","39","","NaN","","","","","","","","","","","","","",""
"","response","","html-keyboard-response","264","412697","0.0-1.0-356.0-0.0","0","0","26806","","297","","","75","39","","","1","39","training","adjacent","CB","3","2","N.jpg","O.jpg","0","0","1","",""
"","feedback","","html-keyboard-response","265","413701","0.0-1.0-357.0-0.0","0","0","26806","","null","","","null","39","","","","","","","","","","","","","","","",""
"","ITI","","html-keyboard-response","266","414705","0.0-1.0-360.0","0","0","26806","","null","","","null","39","","","","","","","","","","","","","","","NaN",""
"","S1","","html-keyboard-response","267","414959","0.0-1.0-362.0","0","0","26806","","null","","","null","40","","","","","","","","","","","","","","","",""
"","ISI","","html-keyboard-response","268","415964","0.0-1.0-363.0","0","0","26806","","null","","","null","40","NaN","","","","","","","","","","","","","","",""
"","S2","","html-keyboard-response","269","416219","0.0-1.0-364.0","0","0","26806","","null","","","null","40","","NaN","","","","","","","","","","","","","",""
"","response","","html-keyboard-response","270","416669","0.0-1.0-365.0-0.0","0","0","26806","","448","","","75","40","","","1","40","training","adjacent","EF","5","6","P.jpg","L.jpg","0","1","0","",""
"","feedback","","html-keyboard-response","271","417674","0.0-1.0-366.0-0.0","0","0","26806","","null","","","null","40","","","","","","","","","","","","","","","",""
"","time_out","","html-keyboard-response","272","419677","0.0-1.0-368.0-0.0","0","0","26806","","null","","","null","40","","","","","","","","","","","","","","","",""
"","ITI","","html-keyboard-response","273","420680","0.0-1.0-369.0","0","0","26806","","null","","","null","40","","","","","","","","","","","","","","","NaN",""
"","S1","","html-keyboard-response","274","420934","0.0-1.0-371.0","0","0","26806","","null","","","null","41","","","","","","","","","","","","","","","",""
"","ISI","","html-keyboard-response","275","421937","0.0-1.0-372.0","0","0","26806","","null","","","null","41","NaN","","","","","","","","","","","","","","",""
"","S2","","html-keyboard-response","276","422191","0.0-1.0-373.0","0","0","26806","","null","","","null","41","","NaN","","","","","","","","","","","","","",""
"","response","","html-keyboard-response","277","422452","0.0-1.0-374.0-0.0","0","0","26806","","259","","","68","41","","","1","41","training","adjacent","FE","6","5","L.jpg","P.jpg","1","0","0","",""
"","feedback","","html-keyboard-response","278","423456","0.0-1.0-375.0-0.0","0","0","26806","","null","","","null","41","","","","","","","","","","","","","","","",""
"","time_out","","html-keyboard-response","279","425459","0.0-1.0-377.0-0.0","0","0","26806","","null","","","null","41","","","","","","","","","","","","","","","",""
"","ITI","","html-keyboard-response","280","426462","0.0-1.0-378.0","0","0","26806","","null","","","null","41","","","","","","","","","","","","","","","NaN",""
"","S1","","html-keyboard-response","281","426716","0.0-1.0-380.0","0","0","26806","","null","","","null","42","","","","","","","","","","","","","","","",""
"","ISI","","html-keyboard-response","282","427721","0.0-1.0-381.0","0","0","26806","","null","","","null","42","NaN","","","","","","","","","","","","","","",""
"","S2","","html-keyboard-response","283","427975","0.0-1.0-382.0","0","0","26806","","null","","","null","42","","NaN","","","","","","","","","","","","","",""
"","response","","html-keyboard-response","284","428176","0.0-1.0-383.0-0.0","0","0","26806","","199","","","75","42","","","1","42","training","adjacent","DE","4","5","R.jpg","P.jpg","0","1","0","",""
"","feedback","","html-keyboard-response","285","429179","0.0-1.0-384.0-0.0","0","0","26806","","null","","","null","42","","","","","","","","","","","","","","","",""
"","time_out","","html-keyboard-response","286","431183","0.0-1.0-386.0-0.0","0","0","26806","","null","","","null","42","","","","","","","","","","","","","","","",""
"","ITI","","html-keyboard-response","287","432187","0.0-1.0-387.0","0","0","26806","","null","","","null","42","","","","","","","","","","","","","","","NaN",""
"","S1","","html-keyboard-response","288","432441","0.0-1.0-389.0","0","0","26806","","null","","","null","43","","","","","","","","","","","","","","","",""
"","ISI","","html-keyboard-response","289","433444","0.0-1.0-390.0","0","0","26806","","null","","","null","43","NaN","","","","","","","","","","","","","","",""
"","S2","","html-keyboard-response","290","433698","0.0-1.0-391.0","0","0","26806","","null","","","null","43","","NaN","","","","","","","","","","","","","",""
"","response","","html-keyboard-response","291","433906","0.0-1.0-392.0-0.0","0","0","26806","","207","","","68","43","","","1","43","training","adjacent","FG","6","7","L.jpg","M.jpg","1","1","1","",""
"","feedback","","html-keyboard-response","292","434911","0.0-1.0-393.0-0.0","0","0","26806","","null","","","null","43","","","","","","","","","","","","","","","",""
"","ITI","","html-keyboard-response","293","435913","0.0-1.0-396.0","0","0","26806","","null","","","null","43","","","","","","","","","","","","","","","NaN",""
"","S1","","html-keyboard-response","294","436167","0.0-1.0-398.0","0","0","26806","","null","","","null","44","","","","","","","","","","","","","","","",""
"","ISI","","html-keyboard-response","295","437171","0.0-1.0-399.0","0","0","26806","","null","","","null","44","NaN","","","","","","","","","","","","","","",""
"","S2","","html-keyboard-response","296","437424","0.0-1.0-400.0","0","0","26806","","null","","","null","44","","NaN","","","","","","","","","","","","","",""
"","response","","html-keyboard-response","297","437851","0.0-1.0-401.0-0.0","0","0","26806","","423","","","68","44","","","1","44","training","adjacent","BA","2","1","O.jpg","Q.jpg","1","0","0","",""
"","feedback","","html-keyboard-response","298","438857","0.0-1.0-402.0-0.0","0","0","26806","","null","","","null","44","","","","","","","","","","","","","","","",""
"","time_out","","html-keyboard-response","299","440862","0.0-1.0-404.0-0.0","0","0","26806","","null","","","null","44","","","","","","","","","","","","","","","",""
"","ITI","","html-keyboard-response","300","441866","0.0-1.0-405.0","0","0","26806","","null","","","null","44","","","","","","","","","","","","","","","NaN",""
"","S1","","html-keyboard-response","301","442119","0.0-1.0-407.0","0","0","26806","","null","","","null","45","","","","","","","","","","","","","","","",""
"","ISI","","html-keyboard-response","302","443124","0.0-1.0-408.0","0","0","26806","","null","","","null","45","NaN","","","","","","","","","","","","","","",""
"","S2","","html-keyboard-response","303","443378","0.0-1.0-409.0","0","0","26806","","null","","","null","45","","NaN","","","","","","","","","","","","","",""
"","response","","html-keyboard-response","304","443531","0.0-1.0-410.0-0.0","0","0","26806","","151","","","68","45","","","1","45","training","adjacent","AB","1","2","Q.jpg","O.jpg","1","1","1","",""
"","feedback","","html-keyboard-response","305","444534","0.0-1.0-411.0-0.0","0","0","26806","","null","","","null","45","","","","","","","","","","","","","","","",""
"","ITI","","html-keyboard-response","306","445538","0.0-1.0-414.0","0","0","26806","","null","","","null","45","","","","","","","","","","","","","","","NaN",""
"","S1","","html-keyboard-response","307","445792","0.0-1.0-416.0","0","0","26806","","null","","","null","46","","","","","","","","","","","","","","","",""
"","ISI","","html-keyboard-response","308","446795","0.0-1.0-417.0","0","0","26806","","null","","","null","46","NaN","","","","","","","","","","","","","","",""
"","S2","","html-keyboard-response","309","447049","0.0-1.0-418.0","0","0","26806","","null","","","null","46","","NaN","","","","","","","","","","","","","",""
"","response","","html-keyboard-response","310","447321","0.0-1.0-419.0-0.0","0","0","26806","","268","","","75","46","","","1","46","training","adjacent","GF","7","6","M.jpg","L.jpg","0","0","1","",""
"","feedback","","html-keyboard-response","311","448325","0.0-1.0-420.0-0.0","0","0","26806","","null","","","null","46","","","","","","","","","","","","","","","",""
"","ITI","","html-keyboard-response","312","449328","0.0-1.0-423.0","0","0","26806","","null","","","null","46","","","","","","","","","","","","","","","NaN",""
"","S1","","html-keyboard-response","313","449580","0.0-1.0-425.0","0","0","26806","","null","","","null","47","","","","","","","","","","","","","","","",""
"","ISI","","html-keyboard-response","314","450584","0.0-1.0-426.0","0","0","26806","","null","","","null","47","NaN","","","","","","","","","","","","","","",""
"","S2","","html-keyboard-response","315","450837","0.0-1.0-427.0","0","0","26806","","null","","","null","47","","NaN","","","","","","","","","","","","","",""
"","response","","html-keyboard-response","316","451302","0.0-1.0-428.0-0.0","0","0","26806","","462","","","75","47","","","1","47","training","adjacent","DC","4","3","R.jpg","N.jpg","0","0","1","",""
"","feedback","","html-keyboard-response","317","452306","0.0-1.0-429.0-0.0","0","0","26806","","null","","","null","47","","","","","","","","","","","","","","","",""
"","ITI","","html-keyboard-response","318","453310","0.0-1.0-432.0","0","0","26806","","null","","","null","47","","","","","","","","","","","","","","","NaN",""
"","block_over","","html-keyboard-response","319","463894","0.0-1.0-433.0-0.0","0","0","26806","","10579","","","32","47","","","","","","","","","","","","","","","",""
"","S1","","html-keyboard-response","320","464148","0.0-1.0-434.0","0","0","26806","","null","","","null","48","","","","","","","","","","","","","","","",""
"","ISI","","html-keyboard-response","321","465152","0.0-1.0-435.0","0","0","26806","","null","","","null","48","NaN","","","","","","","","","","","","","","",""
"","S2","","html-keyboard-response","322","465405","0.0-1.0-436.0","0","0","26806","","null","","","null","48","","NaN","","","","","","","","","","","","","",""
"","response","","html-keyboard-response","323","465887","0.0-1.0-437.0-0.0","0","0","26806","","480","","","75","48","","","2","48","training","adjacent","CB","3","2","N.jpg","O.jpg","0","0","1","",""
"","feedback","","html-keyboard-response","324","466892","0.0-1.0-438.0-0.0","0","0","26806","","null","","","null","48","","","","","","","","","","","","","","","",""
"","ITI","","html-keyboard-response","325","467895","0.0-1.0-441.0","0","0","26806","","null","","","null","48","","","","","","","","","","","","","","","NaN",""
"","S1","","html-keyboard-response","326","468148","0.0-1.0-443.0","0","0","26806","","null","","","null","49","","","","","","","","","","","","","","","",""
"","ISI","","html-keyboard-response","327","469151","0.0-1.0-444.0","0","0","26806","","null","","","null","49","NaN","","","","","","","","","","","","","","",""
"","S2","","html-keyboard-response","328","469404","0.0-1.0-445.0","0","0","26806","","null","","","null","49","","NaN","","","","","","","","","","","","","",""
"","response","","html-keyboard-response","329","469832","0.0-1.0-446.0-0.0","0","0","26806","","426","","","68","49","","","2","49","training","adjacent","ED","5","4","P.jpg","R.jpg","1","0","0","",""
"","feedback","","html-keyboard-response","330","470836","0.0-1.0-447.0-0.0","0","0","26806","","null","","","null","49","","","","","","","","","","","","","","","",""
"","time_out","","html-keyboard-response","331","472840","0.0-1.0-449.0-0.0","0","0","26806","","null","","","null","49","","","","","","","","","","","","","","","",""
"","ITI","","html-keyboard-response","332","473843","0.0-1.0-450.0","0","0","26806","","null","","","null","49","","","","","","","","","","","","","","","NaN",""
"","S1","","html-keyboard-response","333","474097","0.0-1.0-452.0","0","0","26806","","null","","","null","50","","","","","","","","","","","","","","","",""
"","ISI","","html-keyboard-response","334","475100","0.0-1.0-453.0","0","0","26806","","null","","","null","50","NaN","","","","","","","","","","","","","","",""
"","S2","","html-keyboard-response","335","475354","0.0-1.0-454.0","0","0","26806","","null","","","null","50","","NaN","","","","","","","","","","","","","",""
"","response","","html-keyboard-response","336","475688","0.0-1.0-455.0-0.0","0","0","26806","","331","","","75","50","","","2","50","training","adjacent","BC","2","3","O.jpg","N.jpg","0","1","0","",""
"","feedback","","html-keyboard-response","337","476693","0.0-1.0-456.0-0.0","0","0","26806","","null","","","null","50","","","","","","","","","","","","","","","",""
"","time_out","","html-keyboard-response","338","478696","0.0-1.0-458.0-0.0","0","0","26806","","null","","","null","50","","","","","","","","","","","","","","","",""
"","ITI","","html-keyboard-response","339","479699","0.0-1.0-459.0","0","0","26806","","null","","","null","50","","","","","","","","","","","","","","","NaN",""
"","S1","","html-keyboard-response","340","479952","0.0-1.0-461.0","0","0","26806","","null","","","null","51","","","","","","","","","","","","","","","",""
"","ISI","","html-keyboard-response","341","480955","0.0-1.0-462.0","0","0","26806","","null","","","null","51","NaN","","","","","","","","","","","","","","",""
"","S2","","html-keyboard-response","342","481208","0.0-1.0-463.0","0","0","26806","","null","","","null","51","","NaN","","","","","","","","","","","","","",""
"","response","","html-keyboard-response","343","481574","0.0-1.0-464.0-0.0","0","0","26806","","363","","","75","51","","","2","51","training","adjacent","EF","5","6","P.jpg","L.jpg","0","1","0","",""
"","feedback","","html-keyboard-response","344","482579","0.0-1.0-465.0-0.0","0","0","26806","","null","","","null","51","","","","","","","","","","","","","","","",""
"","time_out","","html-keyboard-response","345","484582","0.0-1.0-467.0-0.0","0","0","26806","","null","","","null","51","","","","","","","","","","","","","","","",""
"","ITI","","html-keyboard-response","346","485585","0.0-1.0-468.0","0","0","26806","","null","","","null","51","","","","","","","","","","","","","","","NaN",""
"","S1","","html-keyboard-response","347","485839","0.0-1.0-470.0","0","0","26806","","null","","","null","52","","","","","","","","","","","","","","","",""
"","ISI","","html-keyboard-response","348","486842","0.0-1.0-471.0","0","0","26806","","null","","","null","52","NaN","","","","","","","","","","","","","","",""
"","S2","","html-keyboard-response","349","487095","0.0-1.0-472.0","0","0","26806","","null","","","null","52","","NaN","","","","","","","","","","","","","",""
"","response","","html-keyboard-response","350","487481","0.0-1.0-473.0-0.0","0","0","26806","","383","","","68","52","","","2","52","training","adjacent","FG","6","7","L.jpg","M.jpg","1","1","1","",""
"","feedback","","html-keyboard-response","351","488485","0.0-1.0-474.0-0.0","0","0","26806","","null","","","null","52","","","","","","","","","","","","","","","",""
"","ITI","","html-keyboard-response","352","489488","0.0-1.0-477.0","0","0","26806","","null","","","null","52","","","","","","","","","","","","","","","NaN",""
"","S1","","html-keyboard-response","353","489742","0.0-1.0-479.0","0","0","26806","","null","","","null","53","","","","","","","","","","","","","","","",""
"","ISI","","html-keyboard-response","354","490746","0.0-1.0-480.0","0","0","26806","","null","","","null","53","NaN","","","","","","","","","","","","","","",""
"","S2","","html-keyboard-response","355","491000","0.0-1.0-481.0","0","0","26806","","null","","","null","53","","NaN","","","","","","","","","","","","","",""
"","response","","html-keyboard-response","356","491223","0.0-1.0-482.0-0.0","0","0","26806","","220","","","75","53","","","2","53","training","adjacent","CB","3","2","N.jpg","O.jpg","0","0","1","",""
"","feedback","","html-keyboard-response","357","492228","0.0-1.0-483.0-0.0","0","0","26806","","null","","","null","53","","","","","","","","","","","","","","","",""
"","ITI","","html-keyboard-response","358","493233","0.0-1.0-486.0","0","0","26806","","null","","","null","53","","","","","","","","","","","","","","","NaN",""
"","S1","","html-keyboard-response","359","493489","0.0-1.0-488.0","0","0","26806","","null","","","null","54","","","","","","","","","","","","","","","",""
"","ISI","","html-keyboard-response","360","494498","0.0-1.0-489.0","0","0","26806","","null","","","null","54","NaN","","","","","","","","","","","","","","",""
"","S2","","html-keyboard-response","361","494754","0.0-1.0-490.0","0","0","26806","","null","","","null","54","","NaN","","","","","","","","","","","","","",""
"","response","","html-keyboard-response","362","495149","0.0-1.0-491.0-0.0","0","0","26806","","392","","","68","54","","","2","54","training","adjacent","GF","7","6","M.jpg","L.jpg","1","0","0","",""
"","feedback","","html-keyboard-response","363","496157","0.0-1.0-492.0-0.0","0","0","26806","","null","","","null","54","","","","","","","","","","","","","","","",""
"","time_out","","html-keyboard-response","364","498164","0.0-1.0-494.0-0.0","0","0","26806","","null","","","null","54","","","","","","","","","","","","","","","",""
"","ITI","","html-keyboard-response","365","499170","0.0-1.0-495.0","0","0","26806","","null","","","null","54","","","","","","","","","","","","","","","NaN",""
"","S1","","html-keyboard-response","366","499423","0.0-1.0-497.0","0","0","26806","","null","","","null","55","","","","","","","","","","","","","","","",""
"","ISI","","html-keyboard-response","367","500427","0.0-1.0-498.0","0","0","26806","","null","","","null","55","NaN","","","","","","","","","","","","","","",""
"","S2","","html-keyboard-response","368","500682","0.0-1.0-499.0","0","0","26806","","null","","","null","55","","NaN","","","","","","","","","","","","","",""
"","response","","html-keyboard-response","369","501017","0.0-1.0-500.0-0.0","0","0","26806","","332","","","68","55","","","2","55","training","adjacent","BA","2","1","O.jpg","Q.jpg","1","0","0","",""
"","feedback","","html-keyboard-response","370","502021","0.0-1.0-501.0-0.0","0","0","26806","","null","","","null","55","","","","","","","","","","","","","","","",""
"","time_out","","html-keyboard-response","371","504028","0.0-1.0-503.0-0.0","0","0","26806","","null","","","null","55","","","","","","","","","","","","","","","",""
"","ITI","","html-keyboard-response","372","505031","0.0-1.0-504.0","0","0","26806","","null","","","null","55","","","","","","","","","","","","","","","NaN",""
"","S1","","html-keyboard-response","373","505287","0.0-1.0-506.0","0","0","26806","","null","","","null","56","","","","","","","","","","","","","","","",""
"","ISI","","html-keyboard-response","374","506291","0.0-1.0-507.0","0","0","26806","","null","","","null","56","NaN","","","","","","","","","","","","","","",""
"","S2","","html-keyboard-response","375","506545","0.0-1.0-508.0","0","0","26806","","null","","","null","56","","NaN","","","","","","","","","","","","","",""
"","response","","html-keyboard-response","376","506749","0.0-1.0-509.0-0.0","0","0","26806","","202","","","75","56","","","2","56","training","adjacent","FE","6","5","L.jpg","P.jpg","0","0","1","",""
"","feedback","","html-keyboard-response","377","507755","0.0-1.0-510.0-0.0","0","0","26806","","null","","","null","56","","","","","","","","","","","","","","","",""
"","ITI","","html-keyboard-response","378","508759","0.0-1.0-513.0","0","0","26806","","null","","","null","56","","","","","","","","","","","","","","","NaN",""
"","S1","","html-keyboard-response","379","509015","0.0-1.0-515.0","0","0","26806","","null","","","null","57","","","","","","","","","","","","","","","",""
"","ISI","","html-keyboard-response","380","510019","0.0-1.0-516.0","0","0","26806","","null","","","null","57","NaN","","","","","","","","","","","","","","",""
"","S2","","html-keyboard-response","381","510272","0.0-1.0-517.0","0","0","26806","","null","","","null","57","","NaN","","","","","","","","","","","","","",""
"","response","","html-keyboard-response","382","510566","0.0-1.0-518.0-0.0","0","0","26806","","291","","","68","57","","","2","57","training","adjacent","CD","3","4","N.jpg","R.jpg","1","1","1","",""
"","feedback","","html-keyboard-response","383","511572","0.0-1.0-519.0-0.0","0","0","26806","","null","","","null","57","","","","","","","","","","","","","","","",""
"","ITI","","html-keyboard-response","384","512575","0.0-1.0-522.0","0","0","26806","","null","","","null","57","","","","","","","","","","","","","","","NaN",""
"","S1","","html-keyboard-response","385","512830","0.0-1.0-524.0","0","0","26806","","null","","","null","58","","","","","","","","","","","","","","","",""
"","ISI","","html-keyboard-response","386","513834","0.0-1.0-525.0","0","0","26806","","null","","","null","58","NaN","","","","","","","","","","","","","","",""
"","S2","","html-keyboard-response","387","514088","0.0-1.0-526.0","0","0","26806","","null","","","null","58","","NaN","","","","","","","","","","","","","",""
"","response","","html-keyboard-response","388","514359","0.0-1.0-527.0-0.0","0","0","26806","","268","","","75","58","","","2","58","training","adjacent","DE","4","5","R.jpg","P.jpg","0","1","0","",""
"","feedback","","html-keyboard-response","389","515366","0.0-1.0-528.0-0.0","0","0","26806","","null","","","null","58","","","","","","","","","","","","","","","",""
"","time_out","","html-keyboard-response","390","517372","0.0-1.0-530.0-0.0","0","0","26806","","null","","","null","58","","","","","","","","","","","","","","","",""
"","ITI","","html-keyboard-response","391","518376","0.0-1.0-531.0","0","0","26806","","null","","","null","58","","","","","","","","","","","","","","","NaN",""
"","S1","","html-keyboard-response","392","518630","0.0-1.0-533.0","0","0","26806","","null","","","null","59","","","","","","","","","","","","","","","",""
"","ISI","","html-keyboard-response","393","519633","0.0-1.0-534.0","0","0","26806","","null","","","null","59","NaN","","","","","","","","","","","","","","",""
"","S2","","html-keyboard-response","394","519886","0.0-1.0-535.0","0","0","26806","","null","","","null","59","","NaN","","","","","","","","","","","","","",""
"","response","","html-keyboard-response","395","520261","0.0-1.0-536.0-0.0","0","0","26806","","372","","","68","59","","","2","59","training","adjacent","DC","4","3","R.jpg","N.jpg","1","0","0","",""
"","feedback","","html-keyboard-response","396","521265","0.0-1.0-537.0-0.0","0","0","26806","","null","","","null","59","","","","","","","","","","","","","","","",""
"","time_out","","html-keyboard-response","397","523269","0.0-1.0-539.0-0.0","0","0","26806","","null","","","null","59","","","","","","","","","","","","","","","",""
"","ITI","","html-keyboard-response","398","524272","0.0-1.0-540.0","0","0","26806","","null","","","null","59","","","","","","","","","","","","","","","NaN",""
"","S1","","html-keyboard-response","399","524526","0.0-1.0-542.0","0","0","26806","","null","","","null","60","","","","","","","","","","","","","","","",""
"","ISI","","html-keyboard-response","400","525531","0.0-1.0-543.0","0","0","26806","","null","","","null","60","NaN","","","","","","","","","","","","","","",""
"","S2","","html-keyboard-response","401","525785","0.0-1.0-544.0","0","0","26806","","null","","","null","60","","NaN","","","","","","","","","","","","","",""
"","response","","html-keyboard-response","402","526157","0.0-1.0-545.0-0.0","0","0","26806","","371","","","68","60","","","2","60","training","adjacent","BC","2","3","O.jpg","N.jpg","1","1","1","",""
"","feedback","","html-keyboard-response","403","527162","0.0-1.0-546.0-0.0","0","0","26806","","null","","","null","60","","","","","","","","","","","","","","","",""
"","ITI","","html-keyboard-response","404","528165","0.0-1.0-549.0","0","0","26806","","null","","","null","60","","","","","","","","","","","","","","","NaN",""
"","S1","","html-keyboard-response","405","528422","0.0-1.0-551.0","0","0","26806","","null","","","null","61","","","","","","","","","","","","","","","",""
"","ISI","","html-keyboard-response","406","529425","0.0-1.0-552.0","0","0","26806","","null","","","null","61","NaN","","","","","","","","","","","","","","",""
"","S2","","html-keyboard-response","407","529679","0.0-1.0-553.0","0","0","26806","","null","","","null","61","","NaN","","","","","","","","","","","","","",""
"","response","","html-keyboard-response","408","530199","0.0-1.0-554.0-0.0","0","0","26806","","517","","","68","61","","","2","61","training","adjacent","EF","5","6","P.jpg","L.jpg","1","1","1","",""
"","feedback","","html-keyboard-response","409","531202","0.0-1.0-555.0-0.0","0","0","26806","","null","","","null","61","","","","","","","","","","","","","","","",""
"","ITI","","html-keyboard-response","410","532206","0.0-1.0-558.0","0","0","26806","","null","","","null","61","","","","","","","","","","","","","","","NaN",""
"","S1","","html-keyboard-response","411","532460","0.0-1.0-560.0","0","0","26806","","null","","","null","62","","","","","","","","","","","","","","","",""
"","ISI","","html-keyboard-response","412","533463","0.0-1.0-561.0","0","0","26806","","null","","","null","62","NaN","","","","","","","","","","","","","","",""
"","S2","","html-keyboard-response","413","533717","0.0-1.0-562.0","0","0","26806","","null","","","null","62","","NaN","","","","","","","","","","","","","",""
"","response","","html-keyboard-response","414","534109","0.0-1.0-563.0-0.0","0","0","26806","","390","","","75","62","","","2","62","training","adjacent","CB","3","2","N.jpg","O.jpg","0","0","1","",""
"","feedback","","html-keyboard-response","415","535114","0.0-1.0-564.0-0.0","0","0","26806","","null","","","null","62","","","","","","","","","","","","","","","",""
"","ITI","","html-keyboard-response","416","536120","0.0-1.0-567.0","0","0","26806","","null","","","null","62","","","","","","","","","","","","","","","NaN",""
"","S1","","html-keyboard-response","417","536375","0.0-1.0-569.0","0","0","26806","","null","","","null","63","","","","","","","","","","","","","","","",""
"","ISI","","html-keyboard-response","418","537378","0.0-1.0-570.0","0","0","26806","","null","","","null","63","NaN","","","","","","","","","","","","","","",""
"","S2","","html-keyboard-response","419","537631","0.0-1.0-571.0","0","0","26806","","null","","","null","63","","NaN","","","","","","","","","","","","","",""
"","response","","html-keyboard-response","420","538146","0.0-1.0-572.0-0.0","0","0","26806","","512","","","75","63","","","2","63","training","adjacent","GF","7","6","M.jpg","L.jpg","0","0","1","",""
"","feedback","","html-keyboard-response","421","539153","0.0-1.0-573.0-0.0","0","0","26806","","null","","","null","63","","","","","","","","","","","","","","","",""
"","ITI","","html-keyboard-response","422","540158","0.0-1.0-576.0","0","0","26806","","null","","","null","63","","","","","","","","","","","","","","","NaN",""
"","S1","","html-keyboard-response","423","540412","0.0-1.0-578.0","0","0","26806","","null","","","null","64","","","","","","","","","","","","","","","",""
"","ISI","","html-keyboard-response","424","541414","0.0-1.0-579.0","0","0","26806","","null","","","null","64","NaN","","","","","","","","","","","","","","",""
"","S2","","html-keyboard-response","425","541670","0.0-1.0-580.0","0","0","26806","","null","","","null","64","","NaN","","","","","","","","","","","","","",""
"","response","","html-keyboard-response","426","542177","0.0-1.0-581.0-0.0","0","0","26806","","505","","","68","64","","","2","64","training","adjacent","EF","5","6","P.jpg","L.jpg","1","1","1","",""
"","feedback","","html-keyboard-response","427","543183","0.0-1.0-582.0-0.0","0","0","26806","","null","","","null","64","","","","","","","","","","","","","","","",""
"","ITI","","html-keyboard-response","428","544188","0.0-1.0-585.0","0","0","26806","","null","","","null","64","","","","","","","","","","","","","","","NaN",""
"","S1","","html-keyboard-response","429","544443","0.0-1.0-587.0","0","0","26806","","null","","","null","65","","","","","","","","","","","","","","","",""
"","ISI","","html-keyboard-response","430","545445","0.0-1.0-588.0","0","0","26806","","null","","","null","65","NaN","","","","","","","","","","","","","","",""
"","S2","","html-keyboard-response","431","545699","0.0-1.0-589.0","0","0","26806","","null","","","null","65","","NaN","","","","","","","","","","","","","",""
"","response","","html-keyboard-response","432","546287","0.0-1.0-590.0-0.0","0","0","26806","","585","","","68","65","","","2","65","training","adjacent","CD","3","4","N.jpg","R.jpg","1","1","1","",""
"","feedback","","html-keyboard-response","433","547294","0.0-1.0-591.0-0.0","0","0","26806","","null","","","null","65","","","","","","","","","","","","","","","",""
"","ITI","","html-keyboard-response","434","548297","0.0-1.0-594.0","0","0","26806","","null","","","null","65","","","","","","","","","","","","","","","NaN",""
"","S1","","html-keyboard-response","435","548550","0.0-1.0-596.0","0","0","26806","","null","","","null","66","","","","","","","","","","","","","","","",""
"","ISI","","html-keyboard-response","436","549554","0.0-1.0-597.0","0","0","26806","","null","","","null","66","NaN","","","","","","","","","","","","","","",""
"","S2","","html-keyboard-response","437","549810","0.0-1.0-598.0","0","0","26806","","null","","","null","66","","NaN","","","","","","","","","","","","","",""
"","response","","html-keyboard-response","438","550394","0.0-1.0-599.0-0.0","0","0","26806","","581","","","75","66","","","2","66","training","adjacent","AB","1","2","Q.jpg","O.jpg","0","1","0","",""
"","feedback","","html-keyboard-response","439","551398","0.0-1.0-600.0-0.0","0","0","26806","","null","","","null","66","","","","","","","","","","","","","","","",""
"","time_out","","html-keyboard-response","440","553402","0.0-1.0-602.0-0.0","0","0","26806","","null","","","null","66","","","","","","","","","","","","","","","",""
"","ITI","","html-keyboard-response","441","554405","0.0-1.0-603.0","0","0","26806","","null","","","null","66","","","","","","","","","","","","","","","NaN",""
"","S1","","html-keyboard-response","442","554658","0.0-1.0-605.0","0","0","26806","","null","","","null","67","","","","","","","","","","","","","","","",""
"","ISI","","html-keyboard-response","443","555661","0.0-1.0-606.0","0","0","26806","","null","","","null","67","NaN","","","","","","","","","","","","","","",""
"","S2","","html-keyboard-response","444","555915","0.0-1.0-607.0","0","0","26806","","null","","","null","67","","NaN","","","","","","","","","","","","","",""
"","response","","html-keyboard-response","445","556397","0.0-1.0-608.0-0.0","0","0","26806","","479","","","75","67","","","2","67","training","adjacent","DE","4","5","R.jpg","P.jpg","0","1","0","",""
"","feedback","","html-keyboard-response","446","557401","0.0-1.0-609.0-0.0","0","0","26806","","null","","","null","67","","","","","","","","","","","","","","","",""
"","time_out","","html-keyboard-response","447","559405","0.0-1.0-611.0-0.0","0","0","26806","","null","","","null","67","","","","","","","","","","","","","","","",""
"","ITI","","html-keyboard-response","448","560408","0.0-1.0-612.0","0","0","26806","","null","","","null","67","","","","","","","","","","","","","","","NaN",""
"","S1","","html-keyboard-response","449","560662","0.0-1.0-614.0","0","0","26806","","null","","","null","68","","","","","","","","","","","","","","","",""
"","ISI","","html-keyboard-response","450","561665","0.0-1.0-615.0","0","0","26806","","null","","","null","68","NaN","","","","","","","","","","","","","","",""
"","S2","","html-keyboard-response","451","561919","0.0-1.0-616.0","0","0","26806","","null","","","null","68","","NaN","","","","","","","","","","","","","",""
"","response","","html-keyboard-response","452","562390","0.0-1.0-617.0-0.0","0","0","26806","","468","","","68","68","","","2","68","training","adjacent","ED","5","4","P.jpg","R.jpg","1","0","0","",""
"","feedback","","html-keyboard-response","453","563394","0.0-1.0-618.0-0.0","0","0","26806","","null","","","null","68","","","","","","","","","","","","","","","",""
"","time_out","","html-keyboard-response","454","565400","0.0-1.0-620.0-0.0","0","0","26806","","null","","","null","68","","","","","","","","","","","","","","","",""
"","ITI","","html-keyboard-response","455","566405","0.0-1.0-621.0","0","0","26806","","null","","","null","68","","","","","","","","","","","","","","","NaN",""
"","S1","","html-keyboard-response","456","566659","0.0-1.0-623.0","0","0","26806","","null","","","null","69","","","","","","","","","","","","","","","",""
"","ISI","","html-keyboard-response","457","567663","0.0-1.0-624.0","0","0","26806","","null","","","null","69","NaN","","","","","","","","","","","","","","",""
"","S2","","html-keyboard-response","458","567935","0.0-1.0-625.0","0","0","26806","","null","","","null","69","","NaN","","","","","","","","","","","","","",""
"","response","","html-keyboard-response","459","568221","0.0-1.0-626.0-0.0","0","0","26806","","280","","","75","69","","","2","69","training","adjacent","BA","2","1","O.jpg","Q.jpg","0","0","1","",""
"","feedback","","html-keyboard-response","460","569226","0.0-1.0-627.0-0.0","0","0","26806","","null","","","null","69","","","","","","","","","","","","","","","",""
"","ITI","","html-keyboard-response","461","570229","0.0-1.0-630.0","0","0","26806","","null","","","null","69","","","","","","","","","","","","","","","NaN",""
"","S1","","html-keyboard-response","462","570483","0.0-1.0-632.0","0","0","26806","","null","","","null","70","","","","","","","","","","","","","","","",""
"","ISI","","html-keyboard-response","463","571486","0.0-1.0-633.0","0","0","26806","","null","","","null","70","NaN","","","","","","","","","","","","","","",""
"","S2","","html-keyboard-response","464","571740","0.0-1.0-634.0","0","0","26806","","null","","","null","70","","NaN","","","","","","","","","","","","","",""
"","response","","html-keyboard-response","465","572528","0.0-1.0-635.0-0.0","0","0","26806","","785","","","68","70","","","2","70","training","adjacent","FE","6","5","L.jpg","P.jpg","1","0","0","",""
"","feedback","","html-keyboard-response","466","573532","0.0-1.0-636.0-0.0","0","0","26806","","null","","","null","70","","","","","","","","","","","","","","","",""
"","time_out","","html-keyboard-response","467","575536","0.0-1.0-638.0-0.0","0","0","26806","","null","","","null","70","","","","","","","","","","","","","","","",""
"","ITI","","html-keyboard-response","468","576547","0.0-1.0-639.0","0","0","26806","","null","","","null","70","","","","","","","","","","","","","","","NaN",""
"","S1","","html-keyboard-response","469","576801","0.0-1.0-641.0","0","0","26806","","null","","","null","71","","","","","","","","","","","","","","","",""
"","ISI","","html-keyboard-response","470","577804","0.0-1.0-642.0","0","0","26806","","null","","","null","71","NaN","","","","","","","","","","","","","","",""
"","S2","","html-keyboard-response","471","578057","0.0-1.0-643.0","0","0","26806","","null","","","null","71","","NaN","","","","","","","","","","","","","",""
"","response","","html-keyboard-response","472","578804","0.0-1.0-644.0-0.0","0","0","26806","","744","","","75","71","","","2","71","training","adjacent","DE","4","5","R.jpg","P.jpg","0","1","0","",""
"","feedback","","html-keyboard-response","473","579811","0.0-1.0-645.0-0.0","0","0","26806","","null","","","null","71","","","","","","","","","","","","","","","",""
"","time_out","","html-keyboard-response","474","581816","0.0-1.0-647.0-0.0","0","0","26806","","null","","","null","71","","","","","","","","","","","","","","","",""
"","ITI","","html-keyboard-response","475","582820","0.0-1.0-648.0","0","0","26806","","null","","","null","71","","","","","","","","","","","","","","","NaN",""
"","S1","","html-keyboard-response","476","583074","0.0-1.0-650.0","0","0","26806","","null","","","null","72","","","","","","","","","","","","","","","",""
"","ISI","","html-keyboard-response","477","584078","0.0-1.0-651.0","0","0","26806","","null","","","null","72","NaN","","","","","","","","","","","","","","",""
"","S2","","html-keyboard-response","478","584332","0.0-1.0-652.0","0","0","26806","","null","","","null","72","","NaN","","","","","","","","","","","","","",""
"","response","","html-keyboard-response","479","584873","0.0-1.0-653.0-0.0","0","0","26806","","539","","","68","72","","","2","72","training","adjacent","FE","6","5","L.jpg","P.jpg","1","0","0","",""
"","feedback","","html-keyboard-response","480","585880","0.0-1.0-654.0-0.0","0","0","26806","","null","","","null","72","","","","","","","","","","","","","","","",""
"","time_out","","html-keyboard-response","481","587886","0.0-1.0-656.0-0.0","0","0","26806","","null","","","null","72","","","","","","","","","","","","","","","",""
"","ITI","","html-keyboard-response","482","588891","0.0-1.0-657.0","0","0","26806","","null","","","null","72","","","","","","","","","","","","","","","NaN",""
"","S1","","html-keyboard-response","483","589145","0.0-1.0-659.0","0","0","26806","","null","","","null","73","","","","","","","","","","","","","","","",""
"","ISI","","html-keyboard-response","484","590148","0.0-1.0-660.0","0","0","26806","","null","","","null","73","NaN","","","","","","","","","","","","","","",""
"","S2","","html-keyboard-response","485","590401","0.0-1.0-661.0","0","0","26806","","null","","","null","73","","NaN","","","","","","","","","","","","","",""
"","response","","html-keyboard-response","486","590942","0.0-1.0-662.0-0.0","0","0","26806","","538","","","75","73","","","2","73","training","adjacent","DC","4","3","R.jpg","N.jpg","0","0","1","",""
"","feedback","","html-keyboard-response","487","591947","0.0-1.0-663.0-0.0","0","0","26806","","null","","","null","73","","","","","","","","","","","","","","","",""
"","ITI","","html-keyboard-response","488","592951","0.0-1.0-666.0","0","0","26806","","null","","","null","73","","","","","","","","","","","","","","","NaN",""
"","S1","","html-keyboard-response","489","593204","0.0-1.0-668.0","0","0","26806","","null","","","null","74","","","","","","","","","","","","","","","",""
"","ISI","","html-keyboard-response","490","594209","0.0-1.0-669.0","0","0","26806","","null","","","null","74","NaN","","","","","","","","","","","","","","",""
"","S2","","html-keyboard-response","491","594463","0.0-1.0-670.0","0","0","26806","","null","","","null","74","","NaN","","","","","","","","","","","","","",""
"","response","","html-keyboard-response","492","595246","0.0-1.0-671.0-0.0","0","0","26806","","781","","","68","74","","","2","74","training","adjacent","GF","7","6","M.jpg","L.jpg","1","0","0","",""
"","feedback","","html-keyboard-response","493","596251","0.0-1.0-672.0-0.0","0","0","26806","","null","","","null","74","","","","","","","","","","","","","","","",""
"","time_out","","html-keyboard-response","494","598255","0.0-1.0-674.0-0.0","0","0","26806","","null","","","null","74","","","","","","","","","","","","","","","",""
"","ITI","","html-keyboard-response","495","599259","0.0-1.0-675.0","0","0","26806","","null","","","null","74","","","","","","","","","","","","","","","NaN",""
"","S1","","html-keyboard-response","496","599512","0.0-1.0-677.0","0","0","26806","","null","","","null","75","","","","","","","","","","","","","","","",""
"","ISI","","html-keyboard-response","497","600518","0.0-1.0-678.0","0","0","26806","","null","","","null","75","NaN","","","","","","","","","","","","","","",""
"","S2","","html-keyboard-response","498","600772","0.0-1.0-679.0","0","0","26806","","null","","","null","75","","NaN","","","","","","","","","","","","","",""
"","response","","html-keyboard-response","499","601233","0.0-1.0-680.0-0.0","0","0","26806","","459","","","68","75","","","2","75","training","adjacent","CD","3","4","N.jpg","R.jpg","1","1","1","",""
"","feedback","","html-keyboard-response","500","602238","0.0-1.0-681.0-0.0","0","0","26806","","null","","","null","75","","","","","","","","","","","","","","","",""
"","ITI","","html-keyboard-response","501","603242","0.0-1.0-684.0","0","0","26806","","null","","","null","75","","","","","","","","","","","","","","","NaN",""
"","S1","","html-keyboard-response","502","603497","0.0-1.0-686.0","0","0","26806","","null","","","null","76","","","","","","","","","","","","","","","",""
"","ISI","","html-keyboard-response","503","604500","0.0-1.0-687.0","0","0","26806","","null","","","null","76","NaN","","","","","","","","","","","","","","",""
"","S2","","html-keyboard-response","504","604753","0.0-1.0-688.0","0","0","26806","","null","","","null","76","","NaN","","","","","","","","","","","","","",""
"","response","","html-keyboard-response","505","605192","0.0-1.0-689.0-0.0","0","0","26806","","437","","","75","76","","","2","76","training","adjacent","BC","2","3","O.jpg","N.jpg","0","1","0","",""
"","feedback","","html-keyboard-response","506","606199","0.0-1.0-690.0-0.0","0","0","26806","","null","","","null","76","","","","","","","","","","","","","","","",""
"","time_out","","html-keyboard-response","507","608204","0.0-1.0-692.0-0.0","0","0","26806","","null","","","null","76","","","","","","","","","","","","","","","",""
"","ITI","","html-keyboard-response","508","609208","0.0-1.0-693.0","0","0","26806","","null","","","null","76","","","","","","","","","","","","","","","NaN",""
"","S1","","html-keyboard-response","509","609462","0.0-1.0-695.0","0","0","26806","","null","","","null","77","","","","","","","","","","","","","","","",""
"","ISI","","html-keyboard-response","510","610466","0.0-1.0-696.0","0","0","26806","","null","","","null","77","NaN","","","","","","","","","","","","","","",""
"","S2","","html-keyboard-response","511","610720","0.0-1.0-697.0","0","0","26806","","null","","","null","77","","NaN","","","","","","","","","","","","","",""
"","response","","html-keyboard-response","512","611068","0.0-1.0-698.0-0.0","0","0","26806","","346","","","75","77","","","2","77","training","adjacent","DC","4","3","R.jpg","N.jpg","0","0","1","",""
"","feedback","","html-keyboard-response","513","612072","0.0-1.0-699.0-0.0","0","0","26806","","null","","","null","77","","","","","","","","","","","","","","","",""
"","ITI","","html-keyboard-response","514","613075","0.0-1.0-702.0","0","0","26806","","null","","","null","77","","","","","","","","","","","","","","","NaN",""
"","S1","","html-keyboard-response","515","613334","0.0-1.0-704.0","0","0","26806","","null","","","null","78","","","","","","","","","","","","","","","",""
"","ISI","","html-keyboard-response","516","614338","0.0-1.0-705.0","0","0","26806","","null","","","null","78","NaN","","","","","","","","","","","","","","",""
"","S2","","html-keyboard-response","517","614592","0.0-1.0-706.0","0","0","26806","","null","","","null","78","","NaN","","","","","","","","","","","","","",""
"","response","","html-keyboard-response","518","615109","0.0-1.0-707.0-0.0","0","0","26806","","514","","","68","78","","","2","78","training","adjacent","ED","5","4","P.jpg","R.jpg","1","0","0","",""
"","feedback","","html-keyboard-response","519","616113","0.0-1.0-708.0-0.0","0","0","26806","","null","","","null","78","","","","","","","","","","","","","","","",""
"","time_out","","html-keyboard-response","520","618117","0.0-1.0-710.0-0.0","0","0","26806","","null","","","null","78","","","","","","","","","","","","","","","",""
"","ITI","","html-keyboard-response","521","619120","0.0-1.0-711.0","0","0","26806","","null","","","null","78","","","","","","","","","","","","","","","NaN",""
"","S1","","html-keyboard-response","522","619374","0.0-1.0-713.0","0","0","26806","","null","","","null","79","","","","","","","","","","","","","","","",""
"","ISI","","html-keyboard-response","523","620378","0.0-1.0-714.0","0","0","26806","","null","","","null","79","NaN","","","","","","","","","","","","","","",""
"","S2","","html-keyboard-response","524","620633","0.0-1.0-715.0","0","0","26806","","null","","","null","79","","NaN","","","","","","","","","","","","","",""
"","response","","html-keyboard-response","525","621187","0.0-1.0-716.0-0.0","0","0","26806","","551","","","68","79","","","2","79","training","adjacent","DE","4","5","R.jpg","P.jpg","1","1","1","",""
"","feedback","","html-keyboard-response","526","622194","0.0-1.0-717.0-0.0","0","0","26806","","null","","","null","79","","","","","","","","","","","","","","","",""
"","ITI","","html-keyboard-response","527","623198","0.0-1.0-720.0","0","0","26806","","null","","","null","79","","","","","","","","","","","","","","","NaN",""
"","S1","","html-keyboard-response","528","623451","0.0-1.0-722.0","0","0","26806","","null","","","null","80","","","","","","","","","","","","","","","",""
"","ISI","","html-keyboard-response","529","624454","0.0-1.0-723.0","0","0","26806","","null","","","null","80","NaN","","","","","","","","","","","","","","",""
"","S2","","html-keyboard-response","530","624708","0.0-1.0-724.0","0","0","26806","","null","","","null","80","","NaN","","","","","","","","","","","","","",""
"","response","","html-keyboard-response","531","625192","0.0-1.0-725.0-0.0","0","0","26806","","481","","","68","80","","","2","80","training","adjacent","AB","1","2","Q.jpg","O.jpg","1","1","1","",""
"","feedback","","html-keyboard-response","532","626197","0.0-1.0-726.0-0.0","0","0","26806","","null","","","null","80","","","","","","","","","","","","","","","",""
"","ITI","","html-keyboard-response","533","627201","0.0-1.0-729.0","0","0","26806","","null","","","null","80","","","","","","","","","","","","","","","NaN",""
"","S1","","html-keyboard-response","534","627455","0.0-1.0-731.0","0","0","26806","","null","","","null","81","","","","","","","","","","","","","","","",""
"","ISI","","html-keyboard-response","535","628457","0.0-1.0-732.0","0","0","26806","","null","","","null","81","NaN","","","","","","","","","","","","","","",""
"","S2","","html-keyboard-response","536","628711","0.0-1.0-733.0","0","0","26806","","null","","","null","81","","NaN","","","","","","","","","","","","","",""
"","response","","html-keyboard-response","537","629499","0.0-1.0-734.0-0.0","0","0","26806","","786","","","75","81","","","2","81","training","adjacent","BC","2","3","O.jpg","N.jpg","0","1","0","",""
"","feedback","","html-keyboard-response","538","630503","0.0-1.0-735.0-0.0","0","0","26806","","null","","","null","81","","","","","","","","","","","","","","","",""
"","time_out","","html-keyboard-response","539","632506","0.0-1.0-737.0-0.0","0","0","26806","","null","","","null","81","","","","","","","","","","","","","","","",""
"","ITI","","html-keyboard-response","540","633616","0.0-1.0-738.0","0","0","26806","","null","","","null","81","","","","","","","","","","","","","","","NaN",""
"","S1","","html-keyboard-response","541","633870","0.0-1.0-740.0","0","0","26806","","null","","","null","82","","","","","","","","","","","","","","","",""
"","ISI","","html-keyboard-response","542","634874","0.0-1.0-741.0","0","0","26806","","null","","","null","82","NaN","","","","","","","","","","","","","","",""
"","S2","","html-keyboard-response","543","635127","0.0-1.0-742.0","0","0","26806","","null","","","null","82","","NaN","","","","","","","","","","","","","",""
"","response","","html-keyboard-response","544","635674","0.0-1.0-743.0-0.0","0","0","26806","","544","","","75","82","","","2","82","training","adjacent","ED","5","4","P.jpg","R.jpg","0","0","1","",""
"","feedback","","html-keyboard-response","545","636678","0.0-1.0-744.0-0.0","0","0","26806","","null","","","null","82","","","","","","","","","","","","","","","",""
"","ITI","","html-keyboard-response","546","637682","0.0-1.0-747.0","0","0","26806","","null","","","null","82","","","","","","","","","","","","","","","NaN",""
"","S1","","html-keyboard-response","547","637936","0.0-1.0-749.0","0","0","26806","","null","","","null","83","","","","","","","","","","","","","","","",""
"","ISI","","html-keyboard-response","548","638940","0.0-1.0-750.0","0","0","26806","","null","","","null","83","NaN","","","","","","","","","","","","","","",""
"","S2","","html-keyboard-response","549","639194","0.0-1.0-751.0","0","0","26806","","null","","","null","83","","NaN","","","","","","","","","","","","","",""
"","response","","html-keyboard-response","550","639609","0.0-1.0-752.0-0.0","0","0","26806","","413","","","75","83","","","2","83","training","adjacent","FG","6","7","L.jpg","M.jpg","0","1","0","",""
"","feedback","","html-keyboard-response","551","640614","0.0-1.0-753.0-0.0","0","0","26806","","null","","","null","83","","","","","","","","","","","","","","","",""
"","time_out","","html-keyboard-response","552","642653","0.0-1.0-755.0-0.0","0","0","26806","","null","","","null","83","","","","","","","","","","","","","","","",""
"","ITI","","html-keyboard-response","553","643665","0.0-1.0-756.0","0","0","26806","","null","","","null","83","","","","","","","","","","","","","","","NaN",""
"","S1","","html-keyboard-response","554","643927","0.0-1.0-758.0","0","0","26806","","null","","","null","84","","","","","","","","","","","","","","","",""
"","ISI","","html-keyboard-response","555","644936","0.0-1.0-759.0","0","0","26806","","null","","","null","84","NaN","","","","","","","","","","","","","","",""
"","S2","","html-keyboard-response","556","645195","0.0-1.0-760.0","0","0","26806","","null","","","null","84","","NaN","","","","","","","","","","","","","",""
"","response","","html-keyboard-response","557","645534","0.0-1.0-761.0-0.0","0","0","26806","","336","","","68","84","","","2","84","training","adjacent","AB","1","2","Q.jpg","O.jpg","1","1","1","",""
"","feedback","","html-keyboard-response","558","646539","0.0-1.0-762.0-0.0","0","0","26806","","null","","","null","84","","","","","","","","","","","","","","","",""
"","ITI","","html-keyboard-response","559","647544","0.0-1.0-765.0","0","0","26806","","null","","","null","84","","","","","","","","","","","","","","","NaN",""
"","S1","","html-keyboard-response","560","647798","0.0-1.0-767.0","0","0","26806","","null","","","null","85","","","","","","","","","","","","","","","",""
"","ISI","","html-keyboard-response","561","648820","0.0-1.0-768.0","0","0","26806","","null","","","null","85","NaN","","","","","","","","","","","","","","",""
"","S2","","html-keyboard-response","562","649074","0.0-1.0-769.0","0","0","26806","","null","","","null","85","","NaN","","","","","","","","","","","","","",""
"","response","","html-keyboard-response","563","649428","0.0-1.0-770.0-0.0","0","0","26806","","351","","","75","85","","","2","85","training","adjacent","BA","2","1","O.jpg","Q.jpg","0","0","1","",""
"","feedback","","html-keyboard-response","564","650433","0.0-1.0-771.0-0.0","0","0","26806","","null","","","null","85","","","","","","","","","","","","","","","",""
"","ITI","","html-keyboard-response","565","651441","0.0-1.0-774.0","0","0","26806","","null","","","null","85","","","","","","","","","","","","","","","NaN",""
"","S1","","html-keyboard-response","566","651695","0.0-1.0-776.0","0","0","26806","","null","","","null","86","","","","","","","","","","","","","","","",""
"","ISI","","html-keyboard-response","567","652878","0.0-1.0-777.0","0","0","26806","","null","","","null","86","NaN","","","","","","","","","","","","","","",""
"","S2","","html-keyboard-response","568","653176","0.0-1.0-778.0","0","0","26806","","null","","","null","86","","NaN","","","","","","","","","","","","","",""
"","response","","html-keyboard-response","569","653552","0.0-1.0-779.0-0.0","0","0","26806","","373","","","68","86","","","2","86","training","adjacent","FG","6","7","L.jpg","M.jpg","1","1","1","",""
"","feedback","","html-keyboard-response","570","654557","0.0-1.0-780.0-0.0","0","0","26806","","null","","","null","86","","","","","","","","","","","","","","","",""
"","ITI","","html-keyboard-response","571","655561","0.0-1.0-783.0","0","0","26806","","null","","","null","86","","","","","","","","","","","","","","","NaN",""
"","S1","","html-keyboard-response","572","655816","0.0-1.0-785.0","0","0","26806","","null","","","null","87","","","","","","","","","","","","","","","",""
"","ISI","","html-keyboard-response","573","656844","0.0-1.0-786.0","0","0","26806","","null","","","null","87","NaN","","","","","","","","","","","","","","",""
"","S2","","html-keyboard-response","574","657104","0.0-1.0-787.0","0","0","26806","","null","","","null","87","","NaN","","","","","","","","","","","","","",""
"","response","","html-keyboard-response","575","657580","0.0-1.0-788.0-0.0","0","0","26806","","473","","","68","87","","","2","87","training","adjacent","FG","6","7","L.jpg","M.jpg","1","1","1","",""
"","feedback","","html-keyboard-response","576","658586","0.0-1.0-789.0-0.0","0","0","26806","","null","","","null","87","","","","","","","","","","","","","","","",""
"","ITI","","html-keyboard-response","577","659590","0.0-1.0-792.0","0","0","26806","","null","","","null","87","","","","","","","","","","","","","","","NaN",""
"","S1","","html-keyboard-response","578","659844","0.0-1.0-794.0","0","0","26806","","null","","","null","88","","","","","","","","","","","","","","","",""
"","ISI","","html-keyboard-response","579","660849","0.0-1.0-795.0","0","0","26806","","null","","","null","88","NaN","","","","","","","","","","","","","","",""
"","S2","","html-keyboard-response","580","661106","0.0-1.0-796.0","0","0","26806","","null","","","null","88","","NaN","","","","","","","","","","","","","",""
"","response","","html-keyboard-response","581","661519","0.0-1.0-797.0-0.0","0","0","26806","","410","","","75","88","","","2","88","training","adjacent","BA","2","1","O.jpg","Q.jpg","0","0","1","",""
