"success","ttype","start_time","trial_type","trial_index","time_elapsed","internal_node_id","warning","missed_checkup","PID","view_history","rt","responses","repeat_instructions","key_press","index","keypress_isi","keypress_S2","block","trial_num","phase","group_type","pair_type","S1_stim","S2_stim","S1_img","S2_img","S1_chosen","S1_higher","accuracy","keypress_iti","total_bonus_tally"
"true","full_screen","d04132023hr1852","fullscreen","0","11705","0.0-0.0","0","0","79840","","","","","","","","","","","","","","","","","","","","","",""
"","instructions","","instructions","1","28724","0.0-1.0-0.0-0.0","0","0","79840","[{""page_index"":0,""viewing_time"":6426},{""page_index"":1,""viewing_time"":4163},{""page_index"":2,""viewing_time"":5026},{""page_index"":3,""viewing_time"":1402}]","17018","","","","","","","","","","","","","","","","","","","",""
"","comprehension_check","","survey-multi-choice","2","43406","0.0-1.0-0.0-1.0","0","0","79840","","14678","{""Q0"":""True"",""Q1"":""D"",""Q2"":""Only when the screen 'MAKE A CHOICE' is shown"",""Q3"":""Green mark"",""Q4"":""Use a mouse""}","1","","","","","","","","","","","","","","","","","",""
"","missed_instruction_checkup","","html-keyboard-response","3","45490","0.0-1.0-0.0-2.0-0.0","0","1","79840","","2082","","","32","","","","","","","","","","","","","","","","",""
"","instructions","","instructions","4","86172","0.0-1.0-0.1-0.1","0","0","79840","[{""page_index"":0,""viewing_time"":22376},{""page_index"":1,""viewing_time"":14492},{""page_index"":2,""viewing_time"":3270},{""page_index"":3,""viewing_time"":542}]","40680","","","","","","","","","","","","","","","","","","","",""
"","comprehension_check","","survey-multi-choice","5","96158","0.0-1.0-0.1-1.1","0","0","79840","","9983","{""Q0"":""True"",""Q1"":""D"",""Q2"":""Once the second image appears and while the screen 'MAKE A CHOICE' is shown"",""Q3"":""Green mark"",""Q4"":""either D or K""}","0","","","","","","","","","","","","","","","","","",""
"","start_exp","","html-keyboard-response","6","97812","0.0-1.0-1.0","0","0","79840","","1651","","","32","","","","","","","","","","","","","","","","",""
"","S1","","html-keyboard-response","7","98066","0.0-1.0-2.0","0","0","79840","","null","","","null","0","","","","","","","","","","","","","","","",""
"","ISI","","html-keyboard-response","8","99069","0.0-1.0-3.0","0","0","79840","","null","","","null","0","NaN","","","","","","","","","","","","","","",""
"","S2","","html-keyboard-response","9","99321","0.0-1.0-4.0","0","0","79840","","null","","","null","0","","NaN","","","","","","","","","","","","","",""
"","response","","html-keyboard-response","10","101073","0.0-1.0-5.0-0.0","0","0","79840","","null","","","null","0","","","1","0","training","adjacent","DC","4","3","N.jpg","Q.jpg","NaN","0","0","",""
"","too_slow_prompt","","html-keyboard-response","11","102074","0.0-1.0-7.0-0.0","1","0","79840","","null","","","null","","","","","","","","","","","","","","","","",""
"","time_out","","html-keyboard-response","12","104077","0.0-1.0-8.0-0.0","0","0","79840","","null","","","null","0","","","","","","","","","","","","","","","",""
"","ITI","","html-keyboard-response","13","105080","0.0-1.0-9.0","0","0","79840","","null","","","null","0","","","","","","","","","","","","","","","NaN",""
"","S1","","html-keyboard-response","14","105333","0.0-1.0-11.0","0","0","79840","","null","","","null","1","","","","","","","","","","","","","","","",""
"","ISI","","html-keyboard-response","15","106336","0.0-1.0-12.0","0","0","79840","","null","","","null","1","NaN","","","","","","","","","","","","","","",""
"","S2","","html-keyboard-response","16","106587","0.0-1.0-13.0","0","0","79840","","null","","","null","1","","NaN","","","","","","","","","","","","","",""
"","response","","html-keyboard-response","17","107674","0.0-1.0-14.0-0.0","0","0","79840","","1086","","","68","1","","","1","1","training","adjacent","DE","4","5","N.jpg","R.jpg","1","1","1","",""
"","feedback","","html-keyboard-response","18","108676","0.0-1.0-15.0-0.0","0","0","79840","","null","","","null","1","","","","","","","","","","","","","","","",""
"","ITI","","html-keyboard-response","19","109678","0.0-1.0-18.0","0","0","79840","","null","","","null","1","","","","","","","","","","","","","","","NaN",""
"","S1","","html-keyboard-response","20","109931","0.0-1.0-20.0","0","0","79840","","null","","","null","2","","","","","","","","","","","","","","","",""
"","ISI","","html-keyboard-response","21","110933","0.0-1.0-21.0","0","0","79840","","null","","","null","2","NaN","","","","","","","","","","","","","","",""
"","S2","","html-keyboard-response","22","111186","0.0-1.0-22.0","0","0","79840","","null","","","null","2","","NaN","","","","","","","","","","","","","",""
"","response","","html-keyboard-response","23","112260","0.0-1.0-23.0-0.0","0","0","79840","","1072","","","75","2","","","1","2","training","adjacent","FG","6","7","O.jpg","P.jpg","0","1","0","",""
"","feedback","","html-keyboard-response","24","113265","0.0-1.0-24.0-0.0","0","0","79840","","null","","","null","2","","","","","","","","","","","","","","","",""
"","time_out","","html-keyboard-response","25","115267","0.0-1.0-26.0-0.0","0","0","79840","","null","","","null","2","","","","","","","","","","","","","","","",""
"","ITI","","html-keyboard-response","26","116269","0.0-1.0-27.0","0","0","79840","","null","","","null","2","","","","","","","","","","","","","","","NaN",""
"","S1","","html-keyboard-response","27","116530","0.0-1.0-29.0","0","0","79840","","null","","","null","3","","","","","","","","","","","","","","","",""
"","ISI","","html-keyboard-response","28","117533","0.0-1.0-30.0","0","0","79840","","null","","","null","3","NaN","","","","","","","","","","","","","","",""
"","S2","","html-keyboard-response","29","117787","0.0-1.0-31.0","0","0","79840","","null","","","null","3","","NaN","","","","","","","","","","","","","",""
"","response","","html-keyboard-response","30","118194","0.0-1.0-32.0-0.0","0","0","79840","","405","","","75","3","","","1","3","training","adjacent","CD","3","4","Q.jpg","N.jpg","0","1","0","",""
"","feedback","","html-keyboard-response","31","119196","0.0-1.0-33.0-0.0","0","0","79840","","null","","","null","3","","","","","","","","","","","","","","","",""
"","time_out","","html-keyboard-response","32","121199","0.0-1.0-35.0-0.0","0","0","79840","","null","","","null","3","","","","","","","","","","","","","","","",""
"","ITI","","html-keyboard-response","33","122201","0.0-1.0-36.0","0","0","79840","","null","","","null","3","","","","","","","","","","","","","","","NaN",""
"","S1","","html-keyboard-response","34","122453","0.0-1.0-38.0","0","0","79840","","null","","","null","4","","","","","","","","","","","","","","","",""
"","ISI","","html-keyboard-response","35","123459","0.0-1.0-39.0","0","0","79840","","null","","","null","4","NaN","","","","","","","","","","","","","","",""
"","S2","","html-keyboard-response","36","123712","0.0-1.0-40.0","0","0","79840","","null","","","null","4","","NaN","","","","","","","","","","","","","",""
"","response","","html-keyboard-response","37","124172","0.0-1.0-41.0-0.0","0","0","79840","","457","","","75","4","","","1","4","training","adjacent","GF","7","6","P.jpg","O.jpg","0","0","1","",""
"","feedback","","html-keyboard-response","38","125175","0.0-1.0-42.0-0.0","0","0","79840","","null","","","null","4","","","","","","","","","","","","","","","",""
"","ITI","","html-keyboard-response","39","126178","0.0-1.0-45.0","0","0","79840","","null","","","null","4","","","","","","","","","","","","","","","NaN",""
"","S1","","html-keyboard-response","40","126443","0.0-1.0-47.0","0","0","79840","","null","","","null","5","","","","","","","","","","","","","","","",""
"","ISI","","html-keyboard-response","41","127446","0.0-1.0-48.0","0","0","79840","","null","","","null","5","NaN","","","","","","","","","","","","","","",""
"","S2","","html-keyboard-response","42","127699","0.0-1.0-49.0","0","0","79840","","null","","","null","5","","NaN","","","","","","","","","","","","","",""
"","response","","html-keyboard-response","43","128196","0.0-1.0-50.0-0.0","0","0","79840","","495","","","75","5","","","1","5","training","adjacent","BA","2","1","L.jpg","M.jpg","0","0","1","",""
"","feedback","","html-keyboard-response","44","129199","0.0-1.0-51.0-0.0","0","0","79840","","null","","","null","5","","","","","","","","","","","","","","","",""
"","ITI","","html-keyboard-response","45","130201","0.0-1.0-54.0","0","0","79840","","null","","","null","5","","","","","","","","","","","","","","","NaN",""
"","S1","","html-keyboard-response","46","130454","0.0-1.0-56.0","0","0","79840","","null","","","null","6","","","","","","","","","","","","","","","",""
"","ISI","","html-keyboard-response","47","131460","0.0-1.0-57.0","0","0","79840","","null","","","null","6","NaN","","","","","","","","","","","","","","",""
"","S2","","html-keyboard-response","48","131714","0.0-1.0-58.0","0","0","79840","","null","","","null","6","","NaN","","","","","","","","","","","","","",""
"","response","","html-keyboard-response","49","132292","0.0-1.0-59.0-0.0","0","0","79840","","575","","","75","6","","","1","6","training","adjacent","BC","2","3","L.jpg","Q.jpg","0","1","0","",""
"","feedback","","html-keyboard-response","50","133296","0.0-1.0-60.0-0.0","0","0","79840","","null","","","null","6","","","","","","","","","","","","","","","",""
"","time_out","","html-keyboard-response","51","135299","0.0-1.0-62.0-0.0","0","0","79840","","null","","","null","6","","","","","","","","","","","","","","","",""
"","ITI","","html-keyboard-response","52","136301","0.0-1.0-63.0","0","0","79840","","null","","","null","6","","","","","","","","","","","","","","","NaN",""
"","S1","","html-keyboard-response","53","136555","0.0-1.0-65.0","0","0","79840","","null","","","null","7","","","","","","","","","","","","","","","",""
"","ISI","","html-keyboard-response","54","137558","0.0-1.0-66.0","0","0","79840","","null","","","null","7","NaN","","","","","","","","","","","","","","",""
"","S2","","html-keyboard-response","55","137810","0.0-1.0-67.0","0","0","79840","","null","","","null","7","","NaN","","","","","","","","","","","","","",""
"","response","","html-keyboard-response","56","138060","0.0-1.0-68.0-0.0","0","0","79840","","248","","","75","7","","","1","7","training","adjacent","CD","3","4","Q.jpg","N.jpg","0","1","0","",""
"","feedback","","html-keyboard-response","57","139063","0.0-1.0-69.0-0.0","0","0","79840","","null","","","null","7","","","","","","","","","","","","","","","",""
"","time_out","","html-keyboard-response","58","141065","0.0-1.0-71.0-0.0","0","0","79840","","null","","","null","7","","","","","","","","","","","","","","","",""
"","ITI","","html-keyboard-response","59","142068","0.0-1.0-72.0","0","0","79840","","null","","","null","7","","","","","","","","","","","","","","","NaN",""
"","S1","","html-keyboard-response","60","142335","0.0-1.0-74.0","0","0","79840","","null","","","null","8","","","","","","","","","","","","","","","",""
"","ISI","","html-keyboard-response","61","143349","0.0-1.0-75.0","0","0","79840","","null","","","null","8","NaN","","","","","","","","","","","","","","",""
"","S2","","html-keyboard-response","62","143601","0.0-1.0-76.0","0","0","79840","","null","","","null","8","","NaN","","","","","","","","","","","","","",""
"","response","","html-keyboard-response","63","144154","0.0-1.0-77.0-0.0","0","0","79840","","552","","","68","8","","","1","8","training","adjacent","DC","4","3","N.jpg","Q.jpg","1","0","0","",""
"","feedback","","html-keyboard-response","64","145156","0.0-1.0-78.0-0.0","0","0","79840","","null","","","null","8","","","","","","","","","","","","","","","",""
"","time_out","","html-keyboard-response","65","147159","0.0-1.0-80.0-0.0","0","0","79840","","null","","","null","8","","","","","","","","","","","","","","","",""
"","ITI","","html-keyboard-response","66","148161","0.0-1.0-81.0","0","0","79840","","null","","","null","8","","","","","","","","","","","","","","","NaN",""
"","S1","","html-keyboard-response","67","148414","0.0-1.0-83.0","0","0","79840","","null","","","null","9","","","","","","","","","","","","","","","",""
"","ISI","","html-keyboard-response","68","149431","0.0-1.0-84.0","0","0","79840","","null","","","null","9","NaN","","","","","","","","","","","","","","",""
"","S2","","html-keyboard-response","69","149683","0.0-1.0-85.0","0","0","79840","","null","","","null","9","","NaN","","","","","","","","","","","","","",""
"","response","","html-keyboard-response","70","149988","0.0-1.0-86.0-0.0","0","0","79840","","302","","","75","9","","","1","9","training","adjacent","CB","3","2","Q.jpg","L.jpg","0","0","1","",""
"","feedback","","html-keyboard-response","71","150992","0.0-1.0-87.0-0.0","0","0","79840","","null","","","null","9","","","","","","","","","","","","","","","",""
"","ITI","","html-keyboard-response","72","151994","0.0-1.0-90.0","0","0","79840","","null","","","null","9","","","","","","","","","","","","","","","NaN",""
"","S1","","html-keyboard-response","73","152246","0.0-1.0-92.0","0","0","79840","","null","","","null","10","","","","","","","","","","","","","","","",""
"","ISI","","html-keyboard-response","74","153249","0.0-1.0-93.0","0","0","79840","","null","","","null","10","NaN","","","","","","","","","","","","","","",""
"","S2","","html-keyboard-response","75","153502","0.0-1.0-94.0","0","0","79840","","null","","","null","10","","NaN","","","","","","","","","","","","","",""
"","response","","html-keyboard-response","76","154509","0.0-1.0-95.0-0.0","0","0","79840","","1004","","","75","10","","","1","10","training","adjacent","CD","3","4","Q.jpg","N.jpg","0","1","0","",""
"","feedback","","html-keyboard-response","77","155512","0.0-1.0-96.0-0.0","0","0","79840","","null","","","null","10","","","","","","","","","","","","","","","",""
"","time_out","","html-keyboard-response","78","157514","0.0-1.0-98.0-0.0","0","0","79840","","null","","","null","10","","","","","","","","","","","","","","","",""
"","ITI","","html-keyboard-response","79","158517","0.0-1.0-99.0","0","0","79840","","null","","","null","10","","","","","","","","","","","","","","","NaN",""
"","S1","","html-keyboard-response","80","158770","0.0-1.0-101.0","0","0","79840","","null","","","null","11","","","","","","","","","","","","","","","",""
"","ISI","","html-keyboard-response","81","159772","0.0-1.0-102.0","0","0","79840","","null","","","null","11","NaN","","","","","","","","","","","","","","",""
"","S2","","html-keyboard-response","82","160024","0.0-1.0-103.0","0","0","79840","","null","","","null","11","","NaN","","","","","","","","","","","","","",""
"","response","","html-keyboard-response","83","160339","0.0-1.0-104.0-0.0","0","0","79840","","313","","","75","11","","","1","11","training","adjacent","DE","4","5","N.jpg","R.jpg","0","1","0","",""
"","feedback","","html-keyboard-response","84","161341","0.0-1.0-105.0-0.0","0","0","79840","","null","","","null","11","","","","","","","","","","","","","","","",""
"","time_out","","html-keyboard-response","85","163344","0.0-1.0-107.0-0.0","0","0","79840","","null","","","null","11","","","","","","","","","","","","","","","",""
"","ITI","","html-keyboard-response","86","164346","0.0-1.0-108.0","0","0","79840","","null","","","null","11","","","","","","","","","","","","","","","NaN",""
"","S1","","html-keyboard-response","87","164599","0.0-1.0-110.0","0","0","79840","","null","","","null","12","","","","","","","","","","","","","","","",""
"","ISI","","html-keyboard-response","88","165602","0.0-1.0-111.0","0","0","79840","","null","","","null","12","NaN","","","","","","","","","","","","","","",""
"","S2","","html-keyboard-response","89","165856","0.0-1.0-112.0","0","0","79840","","null","","","null","12","","NaN","","","","","","","","","","","","","",""
"","response","","html-keyboard-response","90","166236","0.0-1.0-113.0-0.0","0","0","79840","","378","","","75","12","","","1","12","training","adjacent","FE","6","5","O.jpg","R.jpg","0","0","1","",""
"","feedback","","html-keyboard-response","91","167240","0.0-1.0-114.0-0.0","0","0","79840","","null","","","null","12","","","","","","","","","","","","","","","",""
"","ITI","","html-keyboard-response","92","168243","0.0-1.0-117.0","0","0","79840","","null","","","null","12","","","","","","","","","","","","","","","NaN",""
"","S1","","html-keyboard-response","93","168504","0.0-1.0-119.0","0","0","79840","","null","","","null","13","","","","","","","","","","","","","","","",""
"","ISI","","html-keyboard-response","94","169516","0.0-1.0-120.0","0","0","79840","","null","","","null","13","NaN","","","","","","","","","","","","","","",""
"","S2","","html-keyboard-response","95","169770","0.0-1.0-121.0","0","0","79840","","null","","","null","13","","NaN","","","","","","","","","","","","","",""
"","response","","html-keyboard-response","96","170444","0.0-1.0-122.0-0.0","0","0","79840","","672","","","68","13","","","1","13","training","adjacent","AB","1","2","M.jpg","L.jpg","1","1","1","",""
"","feedback","","html-keyboard-response","97","171447","0.0-1.0-123.0-0.0","0","0","79840","","null","","","null","13","","","","","","","","","","","","","","","",""
"","ITI","","html-keyboard-response","98","172462","0.0-1.0-126.0","0","0","79840","","null","","","null","13","","","","","","","","","","","","","","","NaN",""
"","S1","","html-keyboard-response","99","172715","0.0-1.0-128.0","0","0","79840","","null","","","null","14","","","","","","","","","","","","","","","",""
"","ISI","","html-keyboard-response","100","173726","0.0-1.0-129.0","0","0","79840","","null","","","null","14","NaN","","","","","","","","","","","","","","",""
"","S2","","html-keyboard-response","101","173981","0.0-1.0-130.0","0","0","79840","","null","","","null","14","","NaN","","","","","","","","","","","","","",""
"","response","","html-keyboard-response","102","174555","0.0-1.0-131.0-0.0","0","0","79840","","572","","","68","14","","","1","14","training","adjacent","BC","2","3","L.jpg","Q.jpg","1","1","1","",""
"","feedback","","html-keyboard-response","103","175562","0.0-1.0-132.0-0.0","0","0","79840","","null","","","null","14","","","","","","","","","","","","","","","",""
"","ITI","","html-keyboard-response","104","176565","0.0-1.0-135.0","0","0","79840","","null","","","null","14","","","","","","","","","","","","","","","NaN",""
"","S1","","html-keyboard-response","105","176816","0.0-1.0-137.0","0","0","79840","","null","","","null","15","","","","","","","","","","","","","","","",""
"","ISI","","html-keyboard-response","106","177818","0.0-1.0-138.0","0","0","79840","","null","","","null","15","NaN","","","","","","","","","","","","","","",""
"","S2","","html-keyboard-response","107","178071","0.0-1.0-139.0","0","0","79840","","null","","","null","15","","NaN","","","","","","","","","","","","","",""
"","response","","html-keyboard-response","108","178557","0.0-1.0-140.0-0.0","0","0","79840","","483","","","75","15","","","1","15","training","adjacent","DE","4","5","N.jpg","R.jpg","0","1","0","",""
"","feedback","","html-keyboard-response","109","179561","0.0-1.0-141.0-0.0","0","0","79840","","null","","","null","15","","","","","","","","","","","","","","","",""
"","time_out","","html-keyboard-response","110","181563","0.0-1.0-143.0-0.0","0","0","79840","","null","","","null","15","","","","","","","","","","","","","","","",""
"","ITI","","html-keyboard-response","111","182568","0.0-1.0-144.0","0","0","79840","","null","","","null","15","","","","","","","","","","","","","","","NaN",""
"","S1","","html-keyboard-response","112","182820","0.0-1.0-146.0","0","0","79840","","null","","","null","16","","","","","","","","","","","","","","","",""
"","ISI","","html-keyboard-response","113","183822","0.0-1.0-147.0","0","0","79840","","null","","","null","16","NaN","","","","","","","","","","","","","","",""
"","S2","","html-keyboard-response","114","184075","0.0-1.0-148.0","0","0","79840","","null","","","null","16","","NaN","","","","","","","","","","","","","",""
"","response","","html-keyboard-response","115","184725","0.0-1.0-149.0-0.0","0","0","79840","","648","","","75","16","","","1","16","training","adjacent","BA","2","1","L.jpg","M.jpg","0","0","1","",""
"","feedback","","html-keyboard-response","116","185727","0.0-1.0-150.0-0.0","0","0","79840","","null","","","null","16","","","","","","","","","","","","","","","",""
"","ITI","","html-keyboard-response","117","186742","0.0-1.0-153.0","0","0","79840","","null","","","null","16","","","","","","","","","","","","","","","NaN",""
"","S1","","html-keyboard-response","118","186995","0.0-1.0-155.0","0","0","79840","","null","","","null","17","","","","","","","","","","","","","","","",""
"","ISI","","html-keyboard-response","119","187997","0.0-1.0-156.0","0","0","79840","","null","","","null","17","NaN","","","","","","","","","","","","","","",""
"","S2","","html-keyboard-response","120","188251","0.0-1.0-157.0","0","0","79840","","null","","","null","17","","NaN","","","","","","","","","","","","","",""
"","response","","html-keyboard-response","121","189211","0.0-1.0-158.0-0.0","0","0","79840","","958","","","75","17","","","1","17","training","adjacent","ED","5","4","R.jpg","N.jpg","0","0","1","",""
"","feedback","","html-keyboard-response","122","190213","0.0-1.0-159.0-0.0","0","0","79840","","null","","","null","17","","","","","","","","","","","","","","","",""
"","ITI","","html-keyboard-response","123","191215","0.0-1.0-162.0","0","0","79840","","null","","","null","17","","","","","","","","","","","","","","","NaN",""
"","S1","","html-keyboard-response","124","191468","0.0-1.0-164.0","0","0","79840","","null","","","null","18","","","","","","","","","","","","","","","",""
"","ISI","","html-keyboard-response","125","192471","0.0-1.0-165.0","0","0","79840","","null","","","null","18","NaN","","","","","","","","","","","","","","",""
"","S2","","html-keyboard-response","126","192725","0.0-1.0-166.0","0","0","79840","","null","","","null","18","","NaN","","","","","","","","","","","","","",""
"","response","","html-keyboard-response","127","193629","0.0-1.0-167.0-0.0","0","0","79840","","903","","","75","18","","","1","18","training","adjacent","EF","5","6","R.jpg","O.jpg","0","1","0","",""
"","feedback","","html-keyboard-response","128","194632","0.0-1.0-168.0-0.0","0","0","79840","","null","","","null","18","","","","","","","","","","","","","","","",""
"","time_out","","html-keyboard-response","129","196636","0.0-1.0-170.0-0.0","0","0","79840","","null","","","null","18","","","","","","","","","","","","","","","",""
"","ITI","","html-keyboard-response","130","197639","0.0-1.0-171.0","0","0","79840","","null","","","null","18","","","","","","","","","","","","","","","NaN",""
"","S1","","html-keyboard-response","131","197890","0.0-1.0-173.0","0","0","79840","","null","","","null","19","","","","","","","","","","","","","","","",""
"","ISI","","html-keyboard-response","132","198905","0.0-1.0-174.0","0","0","79840","","null","","","null","19","NaN","","","","","","","","","","","","","","",""
"","S2","","html-keyboard-response","133","199160","0.0-1.0-175.0","0","0","79840","","null","","","null","19","","NaN","","","","","","","","","","","","","",""
"","response","","html-keyboard-response","134","200419","0.0-1.0-176.0-0.0","0","0","79840","","1256","","","75","19","","","1","19","training","adjacent","EF","5","6","R.jpg","O.jpg","0","1","0","",""
"","feedback","","html-keyboard-response","135","201436","0.0-1.0-177.0-0.0","0","0","79840","","null","","","null","19","","","","","","","","","","","","","","","",""
"","time_out","","html-keyboard-response","136","203438","0.0-1.0-179.0-0.0","0","0","79840","","null","","","null","19","","","","","","","","","","","","","","","",""
"","ITI","","html-keyboard-response","137","204440","0.0-1.0-180.0","0","0","79840","","null","","","null","19","","","","","","","","","","","","","","","NaN",""
"","S1","","html-keyboard-response","138","204692","0.0-1.0-182.0","0","0","79840","","null","","","null","20","","","","","","","","","","","","","","","",""
"","ISI","","html-keyboard-response","139","205694","0.0-1.0-183.0","0","0","79840","","null","","","null","20","NaN","","","","","","","","","","","","","","",""
"","S2","","html-keyboard-response","140","205947","0.0-1.0-184.0","0","0","79840","","null","","","null","20","","NaN","","","","","","","","","","","","","",""
"","response","","html-keyboard-response","141","206468","0.0-1.0-185.0-0.0","0","0","79840","","518","","","68","20","","","1","20","training","adjacent","ED","5","4","R.jpg","N.jpg","1","0","0","",""
"","feedback","","html-keyboard-response","142","207471","0.0-1.0-186.0-0.0","0","0","79840","","null","","","null","20","","","","","","","","","","","","","","","",""
"","time_out","","html-keyboard-response","143","209474","0.0-1.0-188.0-0.0","0","0","79840","","null","","","null","20","","","","","","","","","","","","","","","",""
"","ITI","","html-keyboard-response","144","210477","0.0-1.0-189.0","0","0","79840","","null","","","null","20","","","","","","","","","","","","","","","NaN",""
"","S1","","html-keyboard-response","145","210729","0.0-1.0-191.0","0","0","79840","","null","","","null","21","","","","","","","","","","","","","","","",""
"","ISI","","html-keyboard-response","146","211732","0.0-1.0-192.0","0","0","79840","","null","","","null","21","NaN","","","","","","","","","","","","","","",""
"","S2","","html-keyboard-response","147","211983","0.0-1.0-193.0","0","0","79840","","null","","","null","21","","NaN","","","","","","","","","","","","","",""
"","response","","html-keyboard-response","148","212710","0.0-1.0-194.0-0.0","0","0","79840","","724","","","68","21","","","1","21","training","adjacent","DC","4","3","N.jpg","Q.jpg","1","0","0","",""
"","feedback","","html-keyboard-response","149","213713","0.0-1.0-195.0-0.0","0","0","79840","","null","","","null","21","","","","","","","","","","","","","","","",""
"","time_out","","html-keyboard-response","150","215715","0.0-1.0-197.0-0.0","0","0","79840","","null","","","null","21","","","","","","","","","","","","","","","",""
"","ITI","","html-keyboard-response","151","216717","0.0-1.0-198.0","0","0","79840","","null","","","null","21","","","","","","","","","","","","","","","NaN",""
"","S1","","html-keyboard-response","152","216970","0.0-1.0-200.0","0","0","79840","","null","","","null","22","","","","","","","","","","","","","","","",""
"","ISI","","html-keyboard-response","153","217972","0.0-1.0-201.0","0","0","79840","","null","","","null","22","NaN","","","","","","","","","","","","","","",""
"","S2","","html-keyboard-response","154","218226","0.0-1.0-202.0","0","0","79840","","null","","","null","22","","NaN","","","","","","","","","","","","","",""
"","response","","html-keyboard-response","155","218523","0.0-1.0-203.0-0.0","0","0","79840","","296","","","75","22","","","1","22","training","adjacent","CB","3","2","Q.jpg","L.jpg","0","0","1","",""
"","feedback","","html-keyboard-response","156","219526","0.0-1.0-204.0-0.0","0","0","79840","","null","","","null","22","","","","","","","","","","","","","","","",""
"","ITI","","html-keyboard-response","157","220528","0.0-1.0-207.0","0","0","79840","","null","","","null","22","","","","","","","","","","","","","","","NaN",""
"","S1","","html-keyboard-response","158","220781","0.0-1.0-209.0","0","0","79840","","null","","","null","23","","","","","","","","","","","","","","","",""
"","ISI","","html-keyboard-response","159","221782","0.0-1.0-210.0","0","0","79840","","null","","","null","23","NaN","","","","","","","","","","","","","","",""
"","S2","","html-keyboard-response","160","222034","0.0-1.0-211.0","0","0","79840","","null","","","null","23","","NaN","","","","","","","","","","","","","",""
"","response","","html-keyboard-response","161","222421","0.0-1.0-212.0-0.0","0","0","79840","","385","","","75","23","","","1","23","training","adjacent","BA","2","1","L.jpg","M.jpg","0","0","1","",""
"","feedback","","html-keyboard-response","162","223423","0.0-1.0-213.0-0.0","0","0","79840","","null","","","null","23","","","","","","","","","","","","","","","",""
"","ITI","","html-keyboard-response","163","224426","0.0-1.0-216.0","0","0","79840","","null","","","null","23","","","","","","","","","","","","","","","NaN",""
"","S1","","html-keyboard-response","164","224678","0.0-1.0-218.0","0","0","79840","","null","","","null","24","","","","","","","","","","","","","","","",""
"","ISI","","html-keyboard-response","165","225683","0.0-1.0-219.0","0","0","79840","","null","","","null","24","NaN","","","","","","","","","","","","","","",""
"","S2","","html-keyboard-response","166","225936","0.0-1.0-220.0","0","0","79840","","null","","","null","24","","NaN","","","","","","","","","","","","","",""
"","response","","html-keyboard-response","167","226965","0.0-1.0-221.0-0.0","0","0","79840","","1028","","","75","24","","","1","24","training","adjacent","DE","4","5","N.jpg","R.jpg","0","1","0","",""
"","feedback","","html-keyboard-response","168","227968","0.0-1.0-222.0-0.0","0","0","79840","","null","","","null","24","","","","","","","","","","","","","","","",""
"","time_out","","html-keyboard-response","169","229971","0.0-1.0-224.0-0.0","0","0","79840","","null","","","null","24","","","","","","","","","","","","","","","",""
"","ITI","","html-keyboard-response","170","230974","0.0-1.0-225.0","0","0","79840","","null","","","null","24","","","","","","","","","","","","","","","NaN",""
"","S1","","html-keyboard-response","171","231226","0.0-1.0-227.0","0","0","79840","","null","","","null","25","","","","","","","","","","","","","","","",""
"","ISI","","html-keyboard-response","172","232228","0.0-1.0-228.0","0","0","79840","","null","","","null","25","NaN","","","","","","","","","","","","","","",""
"","S2","","html-keyboard-response","173","232489","0.0-1.0-229.0","0","0","79840","","null","","","null","25","","NaN","","","","","","","","","","","","","",""
"","response","","html-keyboard-response","174","232652","0.0-1.0-230.0-0.0","0","0","79840","","162","","","75","25","","","1","25","training","adjacent","AB","1","2","M.jpg","L.jpg","0","1","0","",""
"","feedback","","html-keyboard-response","175","233658","0.0-1.0-231.0-0.0","0","0","79840","","null","","","null","25","","","","","","","","","","","","","","","",""
"","time_out","","html-keyboard-response","176","235661","0.0-1.0-233.0-0.0","0","0","79840","","null","","","null","25","","","","","","","","","","","","","","","",""
"","ITI","","html-keyboard-response","177","236665","0.0-1.0-234.0","0","0","79840","","null","","","null","25","","","","","","","","","","","","","","","NaN",""
"","S1","","html-keyboard-response","178","236918","0.0-1.0-236.0","0","0","79840","","null","","","null","26","","","","","","","","","","","","","","","",""
"","ISI","","html-keyboard-response","179","237920","0.0-1.0-237.0","0","0","79840","","null","","","null","26","NaN","","","","","","","","","","","","","","",""
"","S2","","html-keyboard-response","180","238174","0.0-1.0-238.0","0","0","79840","","null","","","null","26","","NaN","","","","","","","","","","","","","",""
"","response","","html-keyboard-response","181","238797","0.0-1.0-239.0-0.0","0","0","79840","","621","","","75","26","","","1","26","training","adjacent","GF","7","6","P.jpg","O.jpg","0","0","1","",""
"","feedback","","html-keyboard-response","182","239801","0.0-1.0-240.0-0.0","0","0","79840","","null","","","null","26","","","","","","","","","","","","","","","",""
"","ITI","","html-keyboard-response","183","240804","0.0-1.0-243.0","0","0","79840","","null","","","null","26","","","","","","","","","","","","","","","NaN",""
"","S1","","html-keyboard-response","184","241056","0.0-1.0-245.0","0","0","79840","","null","","","null","27","","","","","","","","","","","","","","","",""
"","ISI","","html-keyboard-response","185","242059","0.0-1.0-246.0","0","0","79840","","null","","","null","27","NaN","","","","","","","","","","","","","","",""
"","S2","","html-keyboard-response","186","242310","0.0-1.0-247.0","0","0","79840","","null","","","null","27","","NaN","","","","","","","","","","","","","",""
"","response","","html-keyboard-response","187","243614","0.0-1.0-248.0-0.0","0","0","79840","","1302","","","68","27","","","1","27","training","adjacent","FG","6","7","O.jpg","P.jpg","1","1","1","",""
"","feedback","","html-keyboard-response","188","244617","0.0-1.0-249.0-0.0","0","0","79840","","null","","","null","27","","","","","","","","","","","","","","","",""
"","ITI","","html-keyboard-response","189","245619","0.0-1.0-252.0","0","0","79840","","null","","","null","27","","","","","","","","","","","","","","","NaN",""
"","S1","","html-keyboard-response","190","245871","0.0-1.0-254.0","0","0","79840","","null","","","null","28","","","","","","","","","","","","","","","",""
"","ISI","","html-keyboard-response","191","246872","0.0-1.0-255.0","0","0","79840","","null","","","null","28","NaN","","","","","","","","","","","","","","",""
"","S2","","html-keyboard-response","192","247124","0.0-1.0-256.0","0","0","79840","","null","","","null","28","","NaN","","","","","","","","","","","","","",""
"","response","","html-keyboard-response","193","247637","0.0-1.0-257.0-0.0","0","0","79840","","512","","","68","28","","","1","28","training","adjacent","FE","6","5","O.jpg","R.jpg","1","0","0","",""
"","feedback","","html-keyboard-response","194","248642","0.0-1.0-258.0-0.0","0","0","79840","","null","","","null","28","","","","","","","","","","","","","","","",""
"","time_out","","html-keyboard-response","195","250645","0.0-1.0-260.0-0.0","0","0","79840","","null","","","null","28","","","","","","","","","","","","","","","",""
"","ITI","","html-keyboard-response","196","251647","0.0-1.0-261.0","0","0","79840","","null","","","null","28","","","","","","","","","","","","","","","NaN",""
"","S1","","html-keyboard-response","197","251899","0.0-1.0-263.0","0","0","79840","","null","","","null","29","","","","","","","","","","","","","","","",""
"","ISI","","html-keyboard-response","198","252901","0.0-1.0-264.0","0","0","79840","","null","","","null","29","NaN","","","","","","","","","","","","","","",""
"","S2","","html-keyboard-response","199","253155","0.0-1.0-265.0","0","0","79840","","null","","","null","29","","NaN","","","","","","","","","","","","","",""
"","response","","html-keyboard-response","200","253941","0.0-1.0-266.0-0.0","0","0","79840","","784","","","75","29","","","1","29","training","adjacent","FG","6","7","O.jpg","P.jpg","0","1","0","",""
"","feedback","","html-keyboard-response","201","254947","0.0-1.0-267.0-0.0","0","0","79840","","null","","","null","29","","","","","","","","","","","","","","","",""
"","time_out","","html-keyboard-response","202","256950","0.0-1.0-269.0-0.0","0","0","79840","","null","","","null","29","","","","","","","","","","","","","","","",""
"","ITI","","html-keyboard-response","203","257952","0.0-1.0-270.0","0","0","79840","","null","","","null","29","","","","","","","","","","","","","","","NaN",""
"","S1","","html-keyboard-response","204","258205","0.0-1.0-272.0","0","0","79840","","null","","","null","30","","","","","","","","","","","","","","","",""
"","ISI","","html-keyboard-response","205","259208","0.0-1.0-273.0","0","0","79840","","null","","","null","30","NaN","","","","","","","","","","","","","","",""
"","S2","","html-keyboard-response","206","259461","0.0-1.0-274.0","0","0","79840","","null","","","null","30","","NaN","","","","","","","","","","","","","",""
"","response","","html-keyboard-response","207","259749","0.0-1.0-275.0-0.0","0","0","79840","","286","","","68","30","","","1","30","training","adjacent","GF","7","6","P.jpg","O.jpg","1","0","0","",""
"","feedback","","html-keyboard-response","208","260752","0.0-1.0-276.0-0.0","0","0","79840","","null","","","null","30","","","","","","","","","","","","","","","",""
"","time_out","","html-keyboard-response","209","262755","0.0-1.0-278.0-0.0","0","0","79840","","null","","","null","30","","","","","","","","","","","","","","","",""
"","ITI","","html-keyboard-response","210","263758","0.0-1.0-279.0","0","0","79840","","null","","","null","30","","","","","","","","","","","","","","","NaN",""
"","S1","","html-keyboard-response","211","264011","0.0-1.0-281.0","0","0","79840","","null","","","null","31","","","","","","","","","","","","","","","",""
"","ISI","","html-keyboard-response","212","265013","0.0-1.0-282.0","0","0","79840","","null","","","null","31","NaN","","","","","","","","","","","","","","",""
"","S2","","html-keyboard-response","213","265266","0.0-1.0-283.0","0","0","79840","","null","","","null","31","","NaN","","","","","","","","","","","","","",""
"","response","","html-keyboard-response","214","265596","0.0-1.0-284.0-0.0","0","0","79840","","329","","","68","31","","","1","31","training","adjacent","BC","2","3","L.jpg","Q.jpg","1","1","1","",""
"","feedback","","html-keyboard-response","215","266598","0.0-1.0-285.0-0.0","0","0","79840","","null","","","null","31","","","","","","","","","","","","","","","",""
"","ITI","","html-keyboard-response","216","267604","0.0-1.0-288.0","0","0","79840","","null","","","null","31","","","","","","","","","","","","","","","NaN",""
"","S1","","html-keyboard-response","217","267869","0.0-1.0-290.0","0","0","79840","","null","","","null","32","","","","","","","","","","","","","","","",""
"","ISI","","html-keyboard-response","218","268871","0.0-1.0-291.0","0","0","79840","","null","","","null","32","NaN","","","","","","","","","","","","","","",""
"","S2","","html-keyboard-response","219","269123","0.0-1.0-292.0","0","0","79840","","null","","","null","32","","NaN","","","","","","","","","","","","","",""
"","response","","html-keyboard-response","220","270068","0.0-1.0-293.0-0.0","0","0","79840","","943","","","75","32","","","1","32","training","adjacent","FE","6","5","O.jpg","R.jpg","0","0","1","",""
"","feedback","","html-keyboard-response","221","271070","0.0-1.0-294.0-0.0","0","0","79840","","null","","","null","32","","","","","","","","","","","","","","","",""
"","ITI","","html-keyboard-response","222","272072","0.0-1.0-297.0","0","0","79840","","null","","","null","32","","","","","","","","","","","","","","","NaN",""
"","S1","","html-keyboard-response","223","272325","0.0-1.0-299.0","0","0","79840","","null","","","null","33","","","","","","","","","","","","","","","",""
"","ISI","","html-keyboard-response","224","273327","0.0-1.0-300.0","0","0","79840","","null","","","null","33","NaN","","","","","","","","","","","","","","",""
"","S2","","html-keyboard-response","225","273594","0.0-1.0-301.0","0","0","79840","","null","","","null","33","","NaN","","","","","","","","","","","","","",""
"","response","","html-keyboard-response","226","274109","0.0-1.0-302.0-0.0","0","0","79840","","513","","","75","33","","","1","33","training","adjacent","CB","3","2","Q.jpg","L.jpg","0","0","1","",""
"","feedback","","html-keyboard-response","227","275112","0.0-1.0-303.0-0.0","0","0","79840","","null","","","null","33","","","","","","","","","","","","","","","",""
"","ITI","","html-keyboard-response","228","276116","0.0-1.0-306.0","0","0","79840","","null","","","null","33","","","","","","","","","","","","","","","NaN",""
"","S1","","html-keyboard-response","229","276370","0.0-1.0-308.0","0","0","79840","","null","","","null","34","","","","","","","","","","","","","","","",""
"","ISI","","html-keyboard-response","230","277373","0.0-1.0-309.0","0","0","79840","","null","","","null","34","NaN","","","","","","","","","","","","","","",""
"","S2","","html-keyboard-response","231","277628","0.0-1.0-310.0","0","0","79840","","null","","","null","34","","NaN","","","","","","","","","","","","","",""
"","response","","html-keyboard-response","232","278533","0.0-1.0-311.0-0.0","0","0","79840","","903","","","68","34","","","1","34","training","adjacent","ED","5","4","R.jpg","N.jpg","1","0","0","",""
"","feedback","","html-keyboard-response","233","279535","0.0-1.0-312.0-0.0","0","0","79840","","null","","","null","34","","","","","","","","","","","","","","","",""
"","time_out","","html-keyboard-response","234","281552","0.0-1.0-314.0-0.0","0","0","79840","","null","","","null","34","","","","","","","","","","","","","","","",""
"","ITI","","html-keyboard-response","235","282567","0.0-1.0-315.0","0","0","79840","","null","","","null","34","","","","","","","","","","","","","","","NaN",""
"","S1","","html-keyboard-response","236","282820","0.0-1.0-317.0","0","0","79840","","null","","","null","35","","","","","","","","","","","","","","","",""
"","ISI","","html-keyboard-response","237","283822","0.0-1.0-318.0","0","0","79840","","null","","","null","35","NaN","","","","","","","","","","","","","","",""
"","S2","","html-keyboard-response","238","284075","0.0-1.0-319.0","0","0","79840","","null","","","null","35","","NaN","","","","","","","","","","","","","",""
"","response","","html-keyboard-response","239","284812","0.0-1.0-320.0-0.0","0","0","79840","","735","","","68","35","","","1","35","training","adjacent","DC","4","3","N.jpg","Q.jpg","1","0","0","",""
"","feedback","","html-keyboard-response","240","285814","0.0-1.0-321.0-0.0","0","0","79840","","null","","","null","35","","","","","","","","","","","","","","","",""
"","time_out","","html-keyboard-response","241","287816","0.0-1.0-323.0-0.0","0","0","79840","","null","","","null","35","","","","","","","","","","","","","","","",""
"","ITI","","html-keyboard-response","242","288818","0.0-1.0-324.0","0","0","79840","","null","","","null","35","","","","","","","","","","","","","","","NaN",""
"","S1","","html-keyboard-response","243","289070","0.0-1.0-326.0","0","0","79840","","null","","","null","36","","","","","","","","","","","","","","","",""
"","ISI","","html-keyboard-response","244","290072","0.0-1.0-327.0","0","0","79840","","null","","","null","36","NaN","","","","","","","","","","","","","","",""
"","S2","","html-keyboard-response","245","290325","0.0-1.0-328.0","0","0","79840","","null","","","null","36","","NaN","","","","","","","","","","","","","",""
"","response","","html-keyboard-response","246","291174","0.0-1.0-329.0-0.0","0","0","79840","","848","","","68","36","","","1","36","training","adjacent","EF","5","6","R.jpg","O.jpg","1","1","1","",""
"","feedback","","html-keyboard-response","247","292177","0.0-1.0-330.0-0.0","0","0","79840","","null","","","null","36","","","","","","","","","","","","","","","",""
"","ITI","","html-keyboard-response","248","293180","0.0-1.0-333.0","0","0","79840","","null","","","null","36","","","","","","","","","","","","","","","NaN",""
"","S1","","html-keyboard-response","249","293445","0.0-1.0-335.0","0","0","79840","","null","","","null","37","","","","","","","","","","","","","","","",""
"","ISI","","html-keyboard-response","250","294447","0.0-1.0-336.0","0","0","79840","","null","","","null","37","NaN","","","","","","","","","","","","","","",""
"","S2","","html-keyboard-response","251","294699","0.0-1.0-337.0","0","0","79840","","null","","","null","37","","NaN","","","","","","","","","","","","","",""
"","response","","html-keyboard-response","252","295342","0.0-1.0-338.0-0.0","0","0","79840","","640","","","68","37","","","1","37","training","adjacent","BC","2","3","L.jpg","Q.jpg","1","1","1","",""
"","feedback","","html-keyboard-response","253","296346","0.0-1.0-339.0-0.0","0","0","79840","","null","","","null","37","","","","","","","","","","","","","","","",""
"","ITI","","html-keyboard-response","254","297349","0.0-1.0-342.0","0","0","79840","","null","","","null","37","","","","","","","","","","","","","","","NaN",""
"","S1","","html-keyboard-response","255","297602","0.0-1.0-344.0","0","0","79840","","null","","","null","38","","","","","","","","","","","","","","","",""
"","ISI","","html-keyboard-response","256","298604","0.0-1.0-345.0","0","0","79840","","null","","","null","38","NaN","","","","","","","","","","","","","","",""
"","S2","","html-keyboard-response","257","298856","0.0-1.0-346.0","0","0","79840","","null","","","null","38","","NaN","","","","","","","","","","","","","",""
"","response","","html-keyboard-response","258","299366","0.0-1.0-347.0-0.0","0","0","79840","","508","","","75","38","","","1","38","training","adjacent","GF","7","6","P.jpg","O.jpg","0","0","1","",""
"","feedback","","html-keyboard-response","259","300368","0.0-1.0-348.0-0.0","0","0","79840","","null","","","null","38","","","","","","","","","","","","","","","",""
"","ITI","","html-keyboard-response","260","301372","0.0-1.0-351.0","0","0","79840","","null","","","null","38","","","","","","","","","","","","","","","NaN",""
"","S1","","html-keyboard-response","261","301625","0.0-1.0-353.0","0","0","79840","","null","","","null","39","","","","","","","","","","","","","","","",""
"","ISI","","html-keyboard-response","262","302627","0.0-1.0-354.0","0","0","79840","","null","","","null","39","NaN","","","","","","","","","","","","","","",""
"","S2","","html-keyboard-response","263","302880","0.0-1.0-355.0","0","0","79840","","null","","","null","39","","NaN","","","","","","","","","","","","","",""
"","response","","html-keyboard-response","264","303076","0.0-1.0-356.0-0.0","0","0","79840","","195","","","75","39","","","1","39","training","adjacent","AB","1","2","M.jpg","L.jpg","0","1","0","",""
"","feedback","","html-keyboard-response","265","304078","0.0-1.0-357.0-0.0","0","0","79840","","null","","","null","39","","","","","","","","","","","","","","","",""
"","time_out","","html-keyboard-response","266","306080","0.0-1.0-359.0-0.0","0","0","79840","","null","","","null","39","","","","","","","","","","","","","","","",""
"","ITI","","html-keyboard-response","267","307082","0.0-1.0-360.0","0","0","79840","","null","","","null","39","","","","","","","","","","","","","","","NaN",""
"","S1","","html-keyboard-response","268","307335","0.0-1.0-362.0","0","0","79840","","null","","","null","40","","","","","","","","","","","","","","","",""
"","ISI","","html-keyboard-response","269","308338","0.0-1.0-363.0","0","0","79840","","null","","","null","40","NaN","","","","","","","","","","","","","","",""
"","S2","","html-keyboard-response","270","308591","0.0-1.0-364.0","0","0","79840","","null","","","null","40","","NaN","","","","","","","","","","","","","",""
"","response","","html-keyboard-response","271","309788","0.0-1.0-365.0-0.0","0","0","79840","","1196","","","75","40","","","1","40","training","adjacent","ED","5","4","R.jpg","N.jpg","0","0","1","",""
"","feedback","","html-keyboard-response","272","310790","0.0-1.0-366.0-0.0","0","0","79840","","null","","","null","40","","","","","","","","","","","","","","","",""
"","ITI","","html-keyboard-response","273","311792","0.0-1.0-369.0","0","0","79840","","null","","","null","40","","","","","","","","","","","","","","","NaN",""
"","S1","","html-keyboard-response","274","312043","0.0-1.0-371.0","0","0","79840","","null","","","null","41","","","","","","","","","","","","","","","",""
"","ISI","","html-keyboard-response","275","313045","0.0-1.0-372.0","0","0","79840","","null","","","null","41","NaN","","","","","","","","","","","","","","",""
"","S2","","html-keyboard-response","276","313299","0.0-1.0-373.0","0","0","79840","","null","","","null","41","","NaN","","","","","","","","","","","","","",""
"","response","","html-keyboard-response","277","314084","0.0-1.0-374.0-0.0","0","0","79840","","784","","","68","41","","","1","41","training","adjacent","EF","5","6","R.jpg","O.jpg","1","1","1","",""
"","feedback","","html-keyboard-response","278","315087","0.0-1.0-375.0-0.0","0","0","79840","","null","","","null","41","","","","","","","","","","","","","","","",""
"","ITI","","html-keyboard-response","279","316091","0.0-1.0-378.0","0","0","79840","","null","","","null","41","","","","","","","","","","","","","","","NaN",""
"","S1","","html-keyboard-response","280","316343","0.0-1.0-380.0","0","0","79840","","null","","","null","42","","","","","","","","","","","","","","","",""
"","ISI","","html-keyboard-response","281","317346","0.0-1.0-381.0","0","0","79840","","null","","","null","42","NaN","","","","","","","","","","","","","","",""
"","S2","","html-keyboard-response","282","317607","0.0-1.0-382.0","0","0","79840","","null","","","null","42","","NaN","","","","","","","","","","","","","",""
"","response","","html-keyboard-response","283","318341","0.0-1.0-383.0-0.0","0","0","79840","","732","","","68","42","","","1","42","training","adjacent","FG","6","7","O.jpg","P.jpg","1","1","1","",""
"","feedback","","html-keyboard-response","284","319345","0.0-1.0-384.0-0.0","0","0","79840","","null","","","null","42","","","","","","","","","","","","","","","",""
"","ITI","","html-keyboard-response","285","320348","0.0-1.0-387.0","0","0","79840","","null","","","null","42","","","","","","","","","","","","","","","NaN",""
"","S1","","html-keyboard-response","286","320600","0.0-1.0-389.0","0","0","79840","","null","","","null","43","","","","","","","","","","","","","","","",""
"","ISI","","html-keyboard-response","287","321603","0.0-1.0-390.0","0","0","79840","","null","","","null","43","NaN","","","","","","","","","","","","","","",""
"","S2","","html-keyboard-response","288","321855","0.0-1.0-391.0","0","0","79840","","null","","","null","43","","NaN","","","","","","","","","","","","","",""
"","response","","html-keyboard-response","289","322356","0.0-1.0-392.0-0.0","0","0","79840","","499","","","75","43","","","1","43","training","adjacent","FE","6","5","O.jpg","R.jpg","0","0","1","",""
"","feedback","","html-keyboard-response","290","323359","0.0-1.0-393.0-0.0","0","0","79840","","null","","","null","43","","","","","","","","","","","","","","","",""
"","ITI","","html-keyboard-response","291","324362","0.0-1.0-396.0","0","0","79840","","null","","","null","43","","","","","","","","","","","","","","","NaN",""
"","S1","","html-keyboard-response","292","324613","0.0-1.0-398.0","0","0","79840","","null","","","null","44","","","","","","","","","","","","","","","",""
"","ISI","","html-keyboard-response","293","325617","0.0-1.0-399.0","0","0","79840","","null","","","null","44","NaN","","","","","","","","","","","","","","",""
"","S2","","html-keyboard-response","294","325870","0.0-1.0-400.0","0","0","79840","","null","","","null","44","","NaN","","","","","","","","","","","","","",""
"","response","","html-keyboard-response","295","327204","0.0-1.0-401.0-0.0","0","0","79840","","1333","","","68","44","","","1","44","training","adjacent","CD","3","4","Q.jpg","N.jpg","1","1","1","",""
"","feedback","","html-keyboard-response","296","328206","0.0-1.0-402.0-0.0","0","0","79840","","null","","","null","44","","","","","","","","","","","","","","","",""
"","ITI","","html-keyboard-response","297","329208","0.0-1.0-405.0","0","0","79840","","null","","","null","44","","","","","","","","","","","","","","","NaN",""
"","S1","","html-keyboard-response","298","329470","0.0-1.0-407.0","0","0","79840","","null","","","null","45","","","","","","","","","","","","","","","",""
"","ISI","","html-keyboard-response","299","330472","0.0-1.0-408.0","0","0","79840","","null","","","null","45","NaN","","","","","","","","","","","","","","",""
"","S2","","html-keyboard-response","300","330725","0.0-1.0-409.0","0","0","79840","","null","","","null","45","","NaN","","","","","","","","","","","","","",""
"","response","","html-keyboard-response","301","331637","0.0-1.0-410.0-0.0","0","0","79840","","911","","","75","45","","","1","45","training","adjacent","CB","3","2","Q.jpg","L.jpg","0","0","1","",""
"","feedback","","html-keyboard-response","302","332640","0.0-1.0-411.0-0.0","0","0","79840","","null","","","null","45","","","","","","","","","","","","","","","",""
"","ITI","","html-keyboard-response","303","333643","0.0-1.0-414.0","0","0","79840","","null","","","null","45","","","","","","","","","","","","","","","NaN",""
"","S1","","html-keyboard-response","304","333896","0.0-1.0-416.0","0","0","79840","","null","","","null","46","","","","","","","","","","","","","","","",""
"","ISI","","html-keyboard-response","305","334899","0.0-1.0-417.0","0","0","79840","","null","","","null","46","NaN","","","","","","","","","","","","","","",""
"","S2","","html-keyboard-response","306","335152","0.0-1.0-418.0","0","0","79840","","null","","","null","46","","NaN","","","","","","","","","","","","","",""
"","response","","html-keyboard-response","307","335572","0.0-1.0-419.0-0.0","0","0","79840","","417","","","75","46","","","1","46","training","adjacent","BA","2","1","L.jpg","M.jpg","0","0","1","",""
"","feedback","","html-keyboard-response","308","336582","0.0-1.0-420.0-0.0","0","0","79840","","null","","","null","46","","","","","","","","","","","","","","","",""
"","ITI","","html-keyboard-response","309","337585","0.0-1.0-423.0","0","0","79840","","null","","","null","46","","","","","","","","","","","","","","","NaN",""
"","S1","","html-keyboard-response","310","337837","0.0-1.0-425.0","0","0","79840","","null","","","null","47","","","","","","","","","","","","","","","",""
"","ISI","","html-keyboard-response","311","338839","0.0-1.0-426.0","0","0","79840","","null","","","null","47","NaN","","","","","","","","","","","","","","",""
"","S2","","html-keyboard-response","312","339091","0.0-1.0-427.0","0","0","79840","","null","","","null","47","","NaN","","","","","","","","","","","","","",""
"","response","","html-keyboard-response","313","339988","0.0-1.0-428.0-0.0","0","0","79840","","897","","","68","47","","","1","47","training","adjacent","AB","1","2","M.jpg","L.jpg","1","1","1","",""
"","feedback","","html-keyboard-response","314","340990","0.0-1.0-429.0-0.0","0","0","79840","","null","","","null","47","","","","","","","","","","","","","","","",""
"","ITI","","html-keyboard-response","315","341992","0.0-1.0-432.0","0","0","79840","","null","","","null","47","","","","","","","","","","","","","","","NaN",""
"","block_over","","html-keyboard-response","316","400132","0.0-1.0-433.0-0.0","0","0","79840","","58139","","","32","47","","","","","","","","","","","","","","","",""
"","S1","","html-keyboard-response","317","400384","0.0-1.0-434.0","0","0","79840","","null","","","null","48","","","","","","","","","","","","","","","",""
"","ISI","","html-keyboard-response","318","401400","0.0-1.0-435.0","0","0","79840","","null","","","null","48","NaN","","","","","","","","","","","","","","",""
"","S2","","html-keyboard-response","319","401652","0.0-1.0-436.0","0","0","79840","","null","","","null","48","","NaN","","","","","","","","","","","","","",""
"","response","","html-keyboard-response","320","403404","0.0-1.0-437.0-0.0","0","0","79840","","null","","","null","48","","","2","48","training","adjacent","CB","3","2","Q.jpg","L.jpg","NaN","0","0","",""
"","too_slow_prompt","","html-keyboard-response","321","404406","0.0-1.0-439.0-0.0","1","0","79840","","null","","","null","","","","","","","","","","","","","","","","",""
"","time_out","","html-keyboard-response","322","406417","0.0-1.0-440.0-0.0","0","0","79840","","null","","","null","48","","","","","","","","","","","","","","","",""
"","ITI","","html-keyboard-response","323","407419","0.0-1.0-441.0","0","0","79840","","null","","","null","48","","","","","","","","","","","","","","","NaN",""
"","S1","","html-keyboard-response","324","407671","0.0-1.0-443.0","0","0","79840","","null","","","null","49","","","","","","","","","","","","","","","",""
"","ISI","","html-keyboard-response","325","408672","0.0-1.0-444.0","0","0","79840","","null","","","null","49","NaN","","","","","","","","","","","","","","",""
"","S2","","html-keyboard-response","326","408925","0.0-1.0-445.0","0","0","79840","","null","","","null","49","","NaN","","","","","","","","","","","","","",""
"","response","","html-keyboard-response","327","409301","0.0-1.0-446.0-0.0","0","0","79840","","375","","","68","49","","","2","49","training","adjacent","BC","2","3","L.jpg","Q.jpg","1","1","1","",""
"","feedback","","html-keyboard-response","328","410303","0.0-1.0-447.0-0.0","0","0","79840","","null","","","null","49","","","","","","","","","","","","","","","",""
"","ITI","","html-keyboard-response","329","411305","0.0-1.0-450.0","0","0","79840","","null","","","null","49","","","","","","","","","","","","","","","NaN",""
"","S1","","html-keyboard-response","330","411556","0.0-1.0-452.0","0","0","79840","","null","","","null","50","","","","","","","","","","","","","","","",""
"","ISI","","html-keyboard-response","331","412557","0.0-1.0-453.0","0","0","79840","","null","","","null","50","NaN","","","","","","","","","","","","","","",""
"","S2","","html-keyboard-response","332","412810","0.0-1.0-454.0","0","0","79840","","null","","","null","50","","NaN","","","","","","","","","","","","","",""
"","response","","html-keyboard-response","333","413076","0.0-1.0-455.0-0.0","0","0","79840","","266","","","68","50","","","2","50","training","adjacent","CD","3","4","Q.jpg","N.jpg","1","1","1","",""
"","feedback","","html-keyboard-response","334","414078","0.0-1.0-456.0-0.0","0","0","79840","","null","","","null","50","","","","","","","","","","","","","","","",""
"","ITI","","html-keyboard-response","335","415080","0.0-1.0-459.0","0","0","79840","","493","","","75","50","","","","","","","","","","","","","","","k",""
"","S1","","html-keyboard-response","336","415332","0.0-1.0-461.0","0","0","79840","","null","","","null","51","","","","","","","","","","","","","","","",""
"","ISI","","html-keyboard-response","337","416333","0.0-1.0-462.0","0","0","79840","","null","","","null","51","NaN","","","","","","","","","","","","","","",""
"","S2","","html-keyboard-response","338","416585","0.0-1.0-463.0","0","0","79840","","null","","","null","51","","NaN","","","","","","","","","","","","","",""
"","response","","html-keyboard-response","339","417621","0.0-1.0-464.0-0.0","0","0","79840","","1034","","","68","51","","","2","51","training","adjacent","EF","5","6","R.jpg","O.jpg","1","1","1","",""
"","feedback","","html-keyboard-response","340","418622","0.0-1.0-465.0-0.0","0","0","79840","","null","","","null","51","","","","","","","","","","","","","","","",""
"","ITI","","html-keyboard-response","341","419624","0.0-1.0-468.0","0","0","79840","","null","","","null","51","","","","","","","","","","","","","","","NaN",""
"","S1","","html-keyboard-response","342","419877","0.0-1.0-470.0","0","0","79840","","null","","","null","52","","","","","","","","","","","","","","","",""
"","ISI","","html-keyboard-response","343","420878","0.0-1.0-471.0","0","0","79840","","null","","","null","52","NaN","","","","","","","","","","","","","","",""
"","S2","","html-keyboard-response","344","421130","0.0-1.0-472.0","0","0","79840","","null","","","null","52","","NaN","","","","","","","","","","","","","",""
"","response","","html-keyboard-response","345","422173","0.0-1.0-473.0-0.0","0","0","79840","","1041","","","68","52","","","2","52","training","adjacent","EF","5","6","R.jpg","O.jpg","1","1","1","",""
"","feedback","","html-keyboard-response","346","423175","0.0-1.0-474.0-0.0","0","0","79840","","null","","","null","52","","","","","","","","","","","","","","","",""
"","ITI","","html-keyboard-response","347","424177","0.0-1.0-477.0","0","0","79840","","null","","","null","52","","","","","","","","","","","","","","","NaN",""
"","S1","","html-keyboard-response","348","424431","0.0-1.0-479.0","0","0","79840","","null","","","null","53","","","","","","","","","","","","","","","",""
"","ISI","","html-keyboard-response","349","425432","0.0-1.0-480.0","0","0","79840","","null","","","null","53","NaN","","","","","","","","","","","","","","",""
"","S2","","html-keyboard-response","350","425684","0.0-1.0-481.0","0","0","79840","","null","","","null","53","","NaN","","","","","","","","","","","","","",""
"","response","","html-keyboard-response","351","426068","0.0-1.0-482.0-0.0","0","0","79840","","384","","","75","53","","","2","53","training","adjacent","CB","3","2","Q.jpg","L.jpg","0","0","1","",""
"","feedback","","html-keyboard-response","352","427071","0.0-1.0-483.0-0.0","0","0","79840","","null","","","null","53","","","","","","","","","","","","","","","",""
"","ITI","","html-keyboard-response","353","428072","0.0-1.0-486.0","0","0","79840","","null","","","null","53","","","","","","","","","","","","","","","NaN",""
"","S1","","html-keyboard-response","354","428324","0.0-1.0-488.0","0","0","79840","","null","","","null","54","","","","","","","","","","","","","","","",""
"","ISI","","html-keyboard-response","355","429325","0.0-1.0-489.0","0","0","79840","","null","","","null","54","NaN","","","","","","","","","","","","","","",""
"","S2","","html-keyboard-response","356","429577","0.0-1.0-490.0","0","0","79840","","null","","","null","54","","NaN","","","","","","","","","","","","","",""
"","response","","html-keyboard-response","357","430165","0.0-1.0-491.0-0.0","0","0","79840","","587","","","68","54","","","2","54","training","adjacent","CD","3","4","Q.jpg","N.jpg","1","1","1","",""
"","feedback","","html-keyboard-response","358","431167","0.0-1.0-492.0-0.0","0","0","79840","","null","","","null","54","","","","","","","","","","","","","","","",""
"","ITI","","html-keyboard-response","359","432169","0.0-1.0-495.0","0","0","79840","","null","","","null","54","","","","","","","","","","","","","","","NaN",""
"","S1","","html-keyboard-response","360","432421","0.0-1.0-497.0","0","0","79840","","null","","","null","55","","","","","","","","","","","","","","","",""
"","ISI","","html-keyboard-response","361","433428","0.0-1.0-498.0","0","0","79840","","null","","","null","55","NaN","","","","","","","","","","","","","","",""
"","S2","","html-keyboard-response","362","433679","0.0-1.0-499.0","0","0","79840","","null","","","null","55","","NaN","","","","","","","","","","","","","",""
"","response","","html-keyboard-response","363","433788","0.0-1.0-500.0-0.0","0","0","79840","","108","","","68","55","","","2","55","training","adjacent","AB","1","2","M.jpg","L.jpg","1","1","1","",""
"","feedback","","html-keyboard-response","364","434790","0.0-1.0-501.0-0.0","0","0","79840","","null","","","null","55","","","","","","","","","","","","","","","",""
"","ITI","","html-keyboard-response","365","435792","0.0-1.0-504.0","0","0","79840","","null","","","null","55","","","","","","","","","","","","","","","NaN",""
"","S1","","html-keyboard-response","366","436044","0.0-1.0-506.0","0","0","79840","","null","","","null","56","","","","","","","","","","","","","","","",""
"","ISI","","html-keyboard-response","367","437046","0.0-1.0-507.0","0","0","79840","","null","","","null","56","NaN","","","","","","","","","","","","","","",""
"","S2","","html-keyboard-response","368","437297","0.0-1.0-508.0","0","0","79840","","null","","","null","56","","NaN","","","","","","","","","","","","","",""
"","response","","html-keyboard-response","369","438532","0.0-1.0-509.0-0.0","0","0","79840","","1234","","","68","56","","","2","56","training","adjacent","FE","6","5","O.jpg","R.jpg","1","0","0","",""
"","feedback","","html-keyboard-response","370","439536","0.0-1.0-510.0-0.0","0","0","79840","","null","","","null","56","","","","","","","","","","","","","","","",""
"","time_out","","html-keyboard-response","371","441539","0.0-1.0-512.0-0.0","0","0","79840","","null","","","null","56","","","","","","","","","","","","","","","",""
"","ITI","","html-keyboard-response","372","442540","0.0-1.0-513.0","0","0","79840","","null","","","null","56","","","","","","","","","","","","","","","NaN",""
"","S1","","html-keyboard-response","373","442792","0.0-1.0-515.0","0","0","79840","","null","","","null","57","","","","","","","","","","","","","","","",""
"","ISI","","html-keyboard-response","374","443794","0.0-1.0-516.0","0","0","79840","","null","","","null","57","NaN","","","","","","","","","","","","","","",""
"","S2","","html-keyboard-response","375","444046","0.0-1.0-517.0","0","0","79840","","null","","","null","57","","NaN","","","","","","","","","","","","","",""
"","response","","html-keyboard-response","376","444540","0.0-1.0-518.0-0.0","0","0","79840","","494","","","75","57","","","2","57","training","adjacent","GF","7","6","P.jpg","O.jpg","0","0","1","",""
"","feedback","","html-keyboard-response","377","445550","0.0-1.0-519.0-0.0","0","0","79840","","null","","","null","57","","","","","","","","","","","","","","","",""
"","ITI","","html-keyboard-response","378","446552","0.0-1.0-522.0","0","0","79840","","null","","","null","57","","","","","","","","","","","","","","","NaN",""
"","S1","","html-keyboard-response","379","446803","0.0-1.0-524.0","0","0","79840","","null","","","null","58","","","","","","","","","","","","","","","",""
"","ISI","","html-keyboard-response","380","447804","0.0-1.0-525.0","0","0","79840","","null","","","null","58","NaN","","","","","","","","","","","","","","",""
"","S2","","html-keyboard-response","381","448056","0.0-1.0-526.0","0","0","79840","","null","","","null","58","","NaN","","","","","","","","","","","","","",""
"","response","","html-keyboard-response","382","448252","0.0-1.0-527.0-0.0","0","0","79840","","196","","","68","58","","","2","58","training","adjacent","BA","2","1","L.jpg","M.jpg","1","0","0","",""
"","feedback","","html-keyboard-response","383","449254","0.0-1.0-528.0-0.0","0","0","79840","","null","","","null","58","","","","","","","","","","","","","","","",""
"","time_out","","html-keyboard-response","384","451255","0.0-1.0-530.0-0.0","0","0","79840","","null","","","null","58","","","","","","","","","","","","","","","",""
"","ITI","","html-keyboard-response","385","452257","0.0-1.0-531.0","0","0","79840","","null","","","null","58","","","","","","","","","","","","","","","NaN",""
"","S1","","html-keyboard-response","386","452509","0.0-1.0-533.0","0","0","79840","","null","","","null","59","","","","","","","","","","","","","","","",""
"","ISI","","html-keyboard-response","387","453511","0.0-1.0-534.0","0","0","79840","","null","","","null","59","NaN","","","","","","","","","","","","","","",""
"","S2","","html-keyboard-response","388","453763","0.0-1.0-535.0","0","0","79840","","null","","","null","59","","NaN","","","","","","","","","","","","","",""
"","response","","html-keyboard-response","389","454108","0.0-1.0-536.0-0.0","0","0","79840","","344","","","68","59","","","2","59","training","adjacent","BC","2","3","L.jpg","Q.jpg","1","1","1","",""
"","feedback","","html-keyboard-response","390","455111","0.0-1.0-537.0-0.0","0","0","79840","","null","","","null","59","","","","","","","","","","","","","","","",""
"","ITI","","html-keyboard-response","391","456112","0.0-1.0-540.0","0","0","79840","","null","","","null","59","","","","","","","","","","","","","","","NaN",""
"","S1","","html-keyboard-response","392","456365","0.0-1.0-542.0","0","0","79840","","null","","","null","60","","","","","","","","","","","","","","","",""
"","ISI","","html-keyboard-response","393","457366","0.0-1.0-543.0","0","0","79840","","null","","","null","60","NaN","","","","","","","","","","","","","","",""
"","S2","","html-keyboard-response","394","457619","0.0-1.0-544.0","0","0","79840","","null","","","null","60","","NaN","","","","","","","","","","","","","",""
"","response","","html-keyboard-response","395","458749","0.0-1.0-545.0-0.0","0","0","79840","","1129","","","68","60","","","2","60","training","adjacent","ED","5","4","R.jpg","N.jpg","1","0","0","",""
"","feedback","","html-keyboard-response","396","459751","0.0-1.0-546.0-0.0","0","0","79840","","null","","","null","60","","","","","","","","","","","","","","","",""
"","time_out","","html-keyboard-response","397","461753","0.0-1.0-548.0-0.0","0","0","79840","","null","","","null","60","","","","","","","","","","","","","","","",""
"","ITI","","html-keyboard-response","398","462756","0.0-1.0-549.0","0","0","79840","","null","","","null","60","","","","","","","","","","","","","","","NaN",""
"","S1","","html-keyboard-response","399","463008","0.0-1.0-551.0","0","0","79840","","null","","","null","61","","","","","","","","","","","","","","","",""
"","ISI","","html-keyboard-response","400","464010","0.0-1.0-552.0","0","0","79840","","null","","","null","61","NaN","","","","","","","","","","","","","","",""
"","S2","","html-keyboard-response","401","464262","0.0-1.0-553.0","0","0","79840","","null","","","null","61","","NaN","","","","","","","","","","","","","",""
"","response","","html-keyboard-response","402","464333","0.0-1.0-554.0-0.0","0","0","79840","","70","","","75","61","","","2","61","training","adjacent","GF","7","6","P.jpg","O.jpg","0","0","1","",""
"","feedback","","html-keyboard-response","403","465335","0.0-1.0-555.0-0.0","0","0","79840","","null","","","null","61","","","","","","","","","","","","","","","",""
"","ITI","","html-keyboard-response","404","466336","0.0-1.0-558.0","0","0","79840","","null","","","null","61","","","","","","","","","","","","","","","NaN",""
"","S1","","html-keyboard-response","405","466588","0.0-1.0-560.0","0","0","79840","","null","","","null","62","","","","","","","","","","","","","","","",""
"","ISI","","html-keyboard-response","406","467590","0.0-1.0-561.0","0","0","79840","","null","","","null","62","NaN","","","","","","","","","","","","","","",""
"","S2","","html-keyboard-response","407","467842","0.0-1.0-562.0","0","0","79840","","null","","","null","62","","NaN","","","","","","","","","","","","","",""
"","response","","html-keyboard-response","408","468261","0.0-1.0-563.0-0.0","0","0","79840","","418","","","68","62","","","2","62","training","adjacent","AB","1","2","M.jpg","L.jpg","1","1","1","",""
"","feedback","","html-keyboard-response","409","469263","0.0-1.0-564.0-0.0","0","0","79840","","null","","","null","62","","","","","","","","","","","","","","","",""
"","ITI","","html-keyboard-response","410","470264","0.0-1.0-567.0","0","0","79840","","null","","","null","62","","","","","","","","","","","","","","","NaN",""
"","S1","","html-keyboard-response","411","470530","0.0-1.0-569.0","0","0","79840","","null","","","null","63","","","","","","","","","","","","","","","",""
"","ISI","","html-keyboard-response","412","471542","0.0-1.0-570.0","0","0","79840","","null","","","null","63","NaN","","","","","","","","","","","","","","",""
"","S2","","html-keyboard-response","413","471809","0.0-1.0-571.0","0","0","79840","","null","","","null","63","","NaN","","","","","","","","","","","","","",""
"","response","","html-keyboard-response","414","472701","0.0-1.0-572.0-0.0","0","0","79840","","891","","","68","63","","","2","63","training","adjacent","DE","4","5","N.jpg","R.jpg","1","1","1","",""
"","feedback","","html-keyboard-response","415","473703","0.0-1.0-573.0-0.0","0","0","79840","","null","","","null","63","","","","","","","","","","","","","","","",""
"","ITI","","html-keyboard-response","416","474705","0.0-1.0-576.0","0","0","79840","","null","","","null","63","","","","","","","","","","","","","","","NaN",""
"","S1","","html-keyboard-response","417","474956","0.0-1.0-578.0","0","0","79840","","null","","","null","64","","","","","","","","","","","","","","","",""
"","ISI","","html-keyboard-response","418","475957","0.0-1.0-579.0","0","0","79840","","null","","","null","64","NaN","","","","","","","","","","","","","","",""
"","S2","","html-keyboard-response","419","476210","0.0-1.0-580.0","0","0","79840","","null","","","null","64","","NaN","","","","","","","","","","","","","",""
"","response","","html-keyboard-response","420","477189","0.0-1.0-581.0-0.0","0","0","79840","","979","","","68","64","","","2","64","training","adjacent","EF","5","6","R.jpg","O.jpg","1","1","1","",""
"","feedback","","html-keyboard-response","421","478191","0.0-1.0-582.0-0.0","0","0","79840","","null","","","null","64","","","","","","","","","","","","","","","",""
"","ITI","","html-keyboard-response","422","479193","0.0-1.0-585.0","0","0","79840","","null","","","null","64","","","","","","","","","","","","","","","NaN",""
"","S1","","html-keyboard-response","423","479448","0.0-1.0-587.0","0","0","79840","","null","","","null","65","","","","","","","","","","","","","","","",""
"","ISI","","html-keyboard-response","424","480450","0.0-1.0-588.0","0","0","79840","","null","","","null","65","NaN","","","","","","","","","","","","","","",""
"","S2","","html-keyboard-response","425","480703","0.0-1.0-589.0","0","0","79840","","null","","","null","65","","NaN","","","","","","","","","","","","","",""
"","response","","html-keyboard-response","426","481325","0.0-1.0-590.0-0.0","0","0","79840","","622","","","68","65","","","2","65","training","adjacent","CD","3","4","Q.jpg","N.jpg","1","1","1","",""
"","feedback","","html-keyboard-response","427","482327","0.0-1.0-591.0-0.0","0","0","79840","","null","","","null","65","","","","","","","","","","","","","","","",""
"","ITI","","html-keyboard-response","428","483330","0.0-1.0-594.0","0","0","79840","","null","","","null","65","","","","","","","","","","","","","","","NaN",""
"","S1","","html-keyboard-response","429","483581","0.0-1.0-596.0","0","0","79840","","null","","","null","66","","","","","","","","","","","","","","","",""
"","ISI","","html-keyboard-response","430","484594","0.0-1.0-597.0","0","0","79840","","null","","","null","66","NaN","","","","","","","","","","","","","","",""
"","S2","","html-keyboard-response","431","484846","0.0-1.0-598.0","0","0","79840","","null","","","null","66","","NaN","","","","","","","","","","","","","",""
"","response","","html-keyboard-response","432","485341","0.0-1.0-599.0-0.0","0","0","79840","","494","","","75","66","","","2","66","training","adjacent","BA","2","1","L.jpg","M.jpg","0","0","1","",""
"","feedback","","html-keyboard-response","433","486357","0.0-1.0-600.0-0.0","0","0","79840","","null","","","null","66","","","","","","","","","","","","","","","",""
"","ITI","","html-keyboard-response","434","487359","0.0-1.0-603.0","0","0","79840","","null","","","null","66","","","","","","","","","","","","","","","NaN",""
"","S1","","html-keyboard-response","435","487610","0.0-1.0-605.0","0","0","79840","","null","","","null","67","","","","","","","","","","","","","","","",""
"","ISI","","html-keyboard-response","436","488612","0.0-1.0-606.0","0","0","79840","","null","","","null","67","NaN","","","","","","","","","","","","","","",""
"","S2","","html-keyboard-response","437","488864","0.0-1.0-607.0","0","0","79840","","null","","","null","67","","NaN","","","","","","","","","","","","","",""
"","response","","html-keyboard-response","438","489741","0.0-1.0-608.0-0.0","0","0","79840","","876","","","68","67","","","2","67","training","adjacent","DE","4","5","N.jpg","R.jpg","1","1","1","",""
"","feedback","","html-keyboard-response","439","490742","0.0-1.0-609.0-0.0","0","0","79840","","null","","","null","67","","","","","","","","","","","","","","","",""
"","ITI","","html-keyboard-response","440","491744","0.0-1.0-612.0","0","0","79840","","null","","","null","67","","","","","","","","","","","","","","","NaN",""
"","S1","","html-keyboard-response","441","491997","0.0-1.0-614.0","0","0","79840","","null","","","null","68","","","","","","","","","","","","","","","",""
"","ISI","","html-keyboard-response","442","492998","0.0-1.0-615.0","0","0","79840","","null","","","null","68","NaN","","","","","","","","","","","","","","",""
"","S2","","html-keyboard-response","443","493250","0.0-1.0-616.0","0","0","79840","","null","","","null","68","","NaN","","","","","","","","","","","","","",""
"","response","","html-keyboard-response","444","493885","0.0-1.0-617.0-0.0","0","0","79840","","635","","","68","68","","","2","68","training","adjacent","BC","2","3","L.jpg","Q.jpg","1","1","1","",""
"","feedback","","html-keyboard-response","445","494887","0.0-1.0-618.0-0.0","0","0","79840","","null","","","null","68","","","","","","","","","","","","","","","",""
"","ITI","","html-keyboard-response","446","495889","0.0-1.0-621.0","0","0","79840","","null","","","null","68","","","","","","","","","","","","","","","NaN",""
"","S1","","html-keyboard-response","447","496142","0.0-1.0-623.0","0","0","79840","","null","","","null","69","","","","","","","","","","","","","","","",""
"","ISI","","html-keyboard-response","448","497144","0.0-1.0-624.0","0","0","79840","","null","","","null","69","NaN","","","","","","","","","","","","","","",""
"","S2","","html-keyboard-response","449","497396","0.0-1.0-625.0","0","0","79840","","null","","","null","69","","NaN","","","","","","","","","","","","","",""
"","response","","html-keyboard-response","450","497965","0.0-1.0-626.0-0.0","0","0","79840","","568","","","68","69","","","2","69","training","adjacent","AB","1","2","M.jpg","L.jpg","1","1","1","",""
"","feedback","","html-keyboard-response","451","498967","0.0-1.0-627.0-0.0","0","0","79840","","null","","","null","69","","","","","","","","","","","","","","","",""
"","ITI","","html-keyboard-response","452","499969","0.0-1.0-630.0","0","0","79840","","null","","","null","69","","","","","","","","","","","","","","","NaN",""
"","S1","","html-keyboard-response","453","500220","0.0-1.0-632.0","0","0","79840","","null","","","null","70","","","","","","","","","","","","","","","",""
"","ISI","","html-keyboard-response","454","501222","0.0-1.0-633.0","0","0","79840","","null","","","null","70","NaN","","","","","","","","","","","","","","",""
"","S2","","html-keyboard-response","455","501476","0.0-1.0-634.0","0","0","79840","","null","","","null","70","","NaN","","","","","","","","","","","","","",""
"","response","","html-keyboard-response","456","502069","0.0-1.0-635.0-0.0","0","0","79840","","593","","","68","70","","","2","70","training","adjacent","DC","4","3","N.jpg","Q.jpg","1","0","0","",""
"","feedback","","html-keyboard-response","457","503072","0.0-1.0-636.0-0.0","0","0","79840","","null","","","null","70","","","","","","","","","","","","","","","",""
"","time_out","","html-keyboard-response","458","505073","0.0-1.0-638.0-0.0","0","0","79840","","null","","","null","70","","","","","","","","","","","","","","","",""
"","ITI","","html-keyboard-response","459","506074","0.0-1.0-639.0","0","0","79840","","null","","","null","70","","","","","","","","","","","","","","","NaN",""
"","S1","","html-keyboard-response","460","506326","0.0-1.0-641.0","0","0","79840","","null","","","null","71","","","","","","","","","","","","","","","",""
"","ISI","","html-keyboard-response","461","507326","0.0-1.0-642.0","0","0","79840","","null","","","null","71","NaN","","","","","","","","","","","","","","",""
"","S2","","html-keyboard-response","462","507579","0.0-1.0-643.0","0","0","79840","","null","","","null","71","","NaN","","","","","","","","","","","","","",""
"","response","","html-keyboard-response","463","508093","0.0-1.0-644.0-0.0","0","0","79840","","513","","","68","71","","","2","71","training","adjacent","BC","2","3","L.jpg","Q.jpg","1","1","1","",""
"","feedback","","html-keyboard-response","464","509094","0.0-1.0-645.0-0.0","0","0","79840","","null","","","null","71","","","","","","","","","","","","","","","",""
"","ITI","","html-keyboard-response","465","510095","0.0-1.0-648.0","0","0","79840","","null","","","null","71","","","","","","","","","","","","","","","NaN",""
"","S1","","html-keyboard-response","466","510347","0.0-1.0-650.0","0","0","79840","","null","","","null","72","","","","","","","","","","","","","","","",""
"","ISI","","html-keyboard-response","467","511348","0.0-1.0-651.0","0","0","79840","","null","","","null","72","NaN","","","","","","","","","","","","","","",""
"","S2","","html-keyboard-response","468","511601","0.0-1.0-652.0","0","0","79840","","null","","","null","72","","NaN","","","","","","","","","","","","","",""
"","response","","html-keyboard-response","469","511917","0.0-1.0-653.0-0.0","0","0","79840","","314","","","68","72","","","2","72","training","adjacent","AB","1","2","M.jpg","L.jpg","1","1","1","",""
"","feedback","","html-keyboard-response","470","512928","0.0-1.0-654.0-0.0","0","0","79840","","null","","","null","72","","","","","","","","","","","","","","","",""
"","ITI","","html-keyboard-response","471","513933","0.0-1.0-657.0","0","0","79840","","null","","","null","72","","","","","","","","","","","","","","","NaN",""
"","S1","","html-keyboard-response","472","514185","0.0-1.0-659.0","0","0","79840","","null","","","null","73","","","","","","","","","","","","","","","",""
"","ISI","","html-keyboard-response","473","515187","0.0-1.0-660.0","0","0","79840","","null","","","null","73","NaN","","","","","","","","","","","","","","",""
"","S2","","html-keyboard-response","474","515439","0.0-1.0-661.0","0","0","79840","","null","","","null","73","","NaN","","","","","","","","","","","","","",""
"","response","","html-keyboard-response","475","516173","0.0-1.0-662.0-0.0","0","0","79840","","733","","","75","73","","","2","73","training","adjacent","DC","4","3","N.jpg","Q.jpg","0","0","1","",""
"","feedback","","html-keyboard-response","476","517174","0.0-1.0-663.0-0.0","0","0","79840","","null","","","null","73","","","","","","","","","","","","","","","",""
"","ITI","","html-keyboard-response","477","518176","0.0-1.0-666.0","0","0","79840","","null","","","null","73","","","","","","","","","","","","","","","NaN",""
"","S1","","html-keyboard-response","478","518429","0.0-1.0-668.0","0","0","79840","","null","","","null","74","","","","","","","","","","","","","","","",""
"","ISI","","html-keyboard-response","479","519431","0.0-1.0-669.0","0","0","79840","","null","","","null","74","NaN","","","","","","","","","","","","","","",""
"","S2","","html-keyboard-response","480","519683","0.0-1.0-670.0","0","0","79840","","null","","","null","74","","NaN","","","","","","","","","","","","","",""
"","response","","html-keyboard-response","481","520077","0.0-1.0-671.0-0.0","0","0","79840","","392","","","68","74","","","2","74","training","adjacent","FG","6","7","O.jpg","P.jpg","1","1","1","",""
"","feedback","","html-keyboard-response","482","521092","0.0-1.0-672.0-0.0","0","0","79840","","null","","","null","74","","","","","","","","","","","","","","","",""
"","ITI","","html-keyboard-response","483","522094","0.0-1.0-675.0","0","0","79840","","null","","","null","74","","","","","","","","","","","","","","","NaN",""
"","S1","","html-keyboard-response","484","522345","0.0-1.0-677.0","0","0","79840","","null","","","null","75","","","","","","","","","","","","","","","",""
"","ISI","","html-keyboard-response","485","523347","0.0-1.0-678.0","0","0","79840","","null","","","null","75","NaN","","","","","","","","","","","","","","",""
"","S2","","html-keyboard-response","486","523599","0.0-1.0-679.0","0","0","79840","","null","","","null","75","","NaN","","","","","","","","","","","","","",""
"","response","","html-keyboard-response","487","524125","0.0-1.0-680.0-0.0","0","0","79840","","525","","","68","75","","","2","75","training","adjacent","FG","6","7","O.jpg","P.jpg","1","1","1","",""
"","feedback","","html-keyboard-response","488","525128","0.0-1.0-681.0-0.0","0","0","79840","","null","","","null","75","","","","","","","","","","","","","","","",""
"","ITI","","html-keyboard-response","489","526130","0.0-1.0-684.0","0","0","79840","","null","","","null","75","","","","","","","","","","","","","","","NaN",""
"","S1","","html-keyboard-response","490","526388","0.0-1.0-686.0","0","0","79840","","null","","","null","76","","","","","","","","","","","","","","","",""
"","ISI","","html-keyboard-response","491","527391","0.0-1.0-687.0","0","0","79840","","null","","","null","76","NaN","","","","","","","","","","","","","","",""
"","S2","","html-keyboard-response","492","527643","0.0-1.0-688.0","0","0","79840","","null","","","null","76","","NaN","","","","","","","","","","","","","",""
"","response","","html-keyboard-response","493","528301","0.0-1.0-689.0-0.0","0","0","79840","","658","","","75","76","","","2","76","training","adjacent","CB","3","2","Q.jpg","L.jpg","0","0","1","",""
"","feedback","","html-keyboard-response","494","529303","0.0-1.0-690.0-0.0","0","0","79840","","null","","","null","76","","","","","","","","","","","","","","","",""
"","ITI","","html-keyboard-response","495","530305","0.0-1.0-693.0","0","0","79840","","null","","","null","76","","","","","","","","","","","","","","","NaN",""
"","S1","","html-keyboard-response","496","530558","0.0-1.0-695.0","0","0","79840","","null","","","null","77","","","","","","","","","","","","","","","",""
"","ISI","","html-keyboard-response","497","531559","0.0-1.0-696.0","0","0","79840","","null","","","null","77","NaN","","","","","","","","","","","","","","",""
"","S2","","html-keyboard-response","498","531810","0.0-1.0-697.0","0","0","79840","","null","","","null","77","","NaN","","","","","","","","","","","","","",""
"","response","","html-keyboard-response","499","532293","0.0-1.0-698.0-0.0","0","0","79840","","483","","","75","77","","","2","77","training","adjacent","GF","7","6","P.jpg","O.jpg","0","0","1","",""
"","feedback","","html-keyboard-response","500","533295","0.0-1.0-699.0-0.0","0","0","79840","","null","","","null","77","","","","","","","","","","","","","","","",""
"","ITI","","html-keyboard-response","501","534297","0.0-1.0-702.0","0","0","79840","","null","","","null","77","","","","","","","","","","","","","","","NaN",""
"","S1","","html-keyboard-response","502","534549","0.0-1.0-704.0","0","0","79840","","null","","","null","78","","","","","","","","","","","","","","","",""
"","ISI","","html-keyboard-response","503","535551","0.0-1.0-705.0","0","0","79840","","null","","","null","78","NaN","","","","","","","","","","","","","","",""
"","S2","","html-keyboard-response","504","535802","0.0-1.0-706.0","0","0","79840","","null","","","null","78","","NaN","","","","","","","","","","","","","",""
"","response","","html-keyboard-response","505","536901","0.0-1.0-707.0-0.0","0","0","79840","","1098","","","68","78","","","2","78","training","adjacent","CD","3","4","Q.jpg","N.jpg","1","1","1","",""
"","feedback","","html-keyboard-response","506","537911","0.0-1.0-708.0-0.0","0","0","79840","","null","","","null","78","","","","","","","","","","","","","","","",""
"","ITI","","html-keyboard-response","507","538913","0.0-1.0-711.0","0","0","79840","","null","","","null","78","","","","","","","","","","","","","","","NaN",""
"","S1","","html-keyboard-response","508","539166","0.0-1.0-713.0","0","0","79840","","null","","","null","79","","","","","","","","","","","","","","","",""
"","ISI","","html-keyboard-response","509","540167","0.0-1.0-714.0","0","0","79840","","null","","","null","79","NaN","","","","","","","","","","","","","","",""
"","S2","","html-keyboard-response","510","540433","0.0-1.0-715.0","0","0","79840","","null","","","null","79","","NaN","","","","","","","","","","","","","",""
"","response","","html-keyboard-response","511","540661","0.0-1.0-716.0-0.0","0","0","79840","","227","","","75","79","","","2","79","training","adjacent","CB","3","2","Q.jpg","L.jpg","0","0","1","",""
"","feedback","","html-keyboard-response","512","541662","0.0-1.0-717.0-0.0","0","0","79840","","null","","","null","79","","","","","","","","","","","","","","","",""
"","ITI","","html-keyboard-response","513","542664","0.0-1.0-720.0","0","0","79840","","null","","","null","79","","","","","","","","","","","","","","","NaN",""
"","S1","","html-keyboard-response","514","542916","0.0-1.0-722.0","0","0","79840","","null","","","null","80","","","","","","","","","","","","","","","",""
"","ISI","","html-keyboard-response","515","543917","0.0-1.0-723.0","0","0","79840","","null","","","null","80","NaN","","","","","","","","","","","","","","",""
"","S2","","html-keyboard-response","516","544170","0.0-1.0-724.0","0","0","79840","","null","","","null","80","","NaN","","","","","","","","","","","","","",""
"","response","","html-keyboard-response","517","544605","0.0-1.0-725.0-0.0","0","0","79840","","435","","","75","80","","","2","80","training","adjacent","ED","5","4","R.jpg","N.jpg","0","0","1","",""
"","feedback","","html-keyboard-response","518","545607","0.0-1.0-726.0-0.0","0","0","79840","","null","","","null","80","","","","","","","","","","","","","","","",""
"","ITI","","html-keyboard-response","519","546609","0.0-1.0-729.0","0","0","79840","","null","","","null","80","","","","","","","","","","","","","","","NaN",""
"","S1","","html-keyboard-response","520","546862","0.0-1.0-731.0","0","0","79840","","null","","","null","81","","","","","","","","","","","","","","","",""
"","ISI","","html-keyboard-response","521","547863","0.0-1.0-732.0","0","0","79840","","null","","","null","81","NaN","","","","","","","","","","","","","","",""
"","S2","","html-keyboard-response","522","548116","0.0-1.0-733.0","0","0","79840","","null","","","null","81","","NaN","","","","","","","","","","","","","",""
"","response","","html-keyboard-response","523","548613","0.0-1.0-734.0-0.0","0","0","79840","","496","","","75","81","","","2","81","training","adjacent","ED","5","4","R.jpg","N.jpg","0","0","1","",""
"","feedback","","html-keyboard-response","524","549615","0.0-1.0-735.0-0.0","0","0","79840","","null","","","null","81","","","","","","","","","","","","","","","",""
"","ITI","","html-keyboard-response","525","550617","0.0-1.0-738.0","0","0","79840","","null","","","null","81","","","","","","","","","","","","","","","NaN",""
"","S1","","html-keyboard-response","526","550869","0.0-1.0-740.0","0","0","79840","","null","","","null","82","","","","","","","","","","","","","","","",""
"","ISI","","html-keyboard-response","527","551871","0.0-1.0-741.0","0","0","79840","","null","","","null","82","NaN","","","","","","","","","","","","","","",""
"","S2","","html-keyboard-response","528","552123","0.0-1.0-742.0","0","0","79840","","null","","","null","82","","NaN","","","","","","","","","","","","","",""
"","response","","html-keyboard-response","529","552654","0.0-1.0-743.0-0.0","0","0","79840","","529","","","68","82","","","2","82","training","adjacent","DE","4","5","N.jpg","R.jpg","1","1","1","",""
"","feedback","","html-keyboard-response","530","553656","0.0-1.0-744.0-0.0","0","0","79840","","null","","","null","82","","","","","","","","","","","","","","","",""
"","ITI","","html-keyboard-response","531","554657","0.0-1.0-747.0","0","0","79840","","null","","","null","82","","","","","","","","","","","","","","","NaN",""
"","S1","","html-keyboard-response","532","554910","0.0-1.0-749.0","0","0","79840","","null","","","null","83","","","","","","","","","","","","","","","",""
"","ISI","","html-keyboard-response","533","555912","0.0-1.0-750.0","0","0","79840","","null","","","null","83","NaN","","","","","","","","","","","","","","",""
"","S2","","html-keyboard-response","534","556164","0.0-1.0-751.0","0","0","79840","","null","","","null","83","","NaN","","","","","","","","","","","","","",""
"","response","","html-keyboard-response","535","556733","0.0-1.0-752.0-0.0","0","0","79840","","569","","","75","83","","","2","83","training","adjacent","BA","2","1","L.jpg","M.jpg","0","0","1","",""
"","feedback","","html-keyboard-response","536","557735","0.0-1.0-753.0-0.0","0","0","79840","","null","","","null","83","","","","","","","","","","","","","","","",""
"","ITI","","html-keyboard-response","537","558736","0.0-1.0-756.0","0","0","79840","","null","","","null","83","","","","","","","","","","","","","","","NaN",""
"","S1","","html-keyboard-response","538","558988","0.0-1.0-758.0","0","0","79840","","null","","","null","84","","","","","","","","","","","","","","","",""
"","ISI","","html-keyboard-response","539","559989","0.0-1.0-759.0","0","0","79840","","null","","","null","84","NaN","","","","","","","","","","","","","","",""
"","S2","","html-keyboard-response","540","560241","0.0-1.0-760.0","0","0","79840","","null","","","null","84","","NaN","","","","","","","","","","","","","",""
"","response","","html-keyboard-response","541","560349","0.0-1.0-761.0-0.0","0","0","79840","","108","","","68","84","","","2","84","training","adjacent","FG","6","7","O.jpg","P.jpg","1","1","1","",""
"","feedback","","html-keyboard-response","542","561351","0.0-1.0-762.0-0.0","0","0","79840","","null","","","null","84","","","","","","","","","","","","","","","",""
"","ITI","","html-keyboard-response","543","562353","0.0-1.0-765.0","0","0","79840","","null","","","null","84","","","","","","","","","","","","","","","NaN",""
"","S1","","html-keyboard-response","544","562605","0.0-1.0-767.0","0","0","79840","","null","","","null","85","","","","","","","","","","","","","","","",""
"","ISI","","html-keyboard-response","545","563607","0.0-1.0-768.0","0","0","79840","","null","","","null","85","NaN","","","","","","","","","","","","","","",""
"","S2","","html-keyboard-response","546","563858","0.0-1.0-769.0","0","0","79840","","null","","","null","85","","NaN","","","","","","","","","","","","","",""
"","response","","html-keyboard-response","547","564829","0.0-1.0-770.0-0.0","0","0","79840","","970","","","68","85","","","2","85","training","adjacent","DE","4","5","N.jpg","R.jpg","1","1","1","",""
"","feedback","","html-keyboard-response","548","565831","0.0-1.0-771.0-0.0","0","0","79840","","null","","","null","85","","","","","","","","","","","","","","","",""
"","ITI","","html-keyboard-response","549","566833","0.0-1.0-774.0","0","0","79840","","null","","","null","85","","","","","","","","","","","","","","","NaN",""
"","S1","","html-keyboard-response","550","567084","0.0-1.0-776.0","0","0","79840","","null","","","null","86","","","","","","","","","","","","","","","",""
"","ISI","","html-keyboard-response","551","568087","0.0-1.0-777.0","0","0","79840","","null","","","null","86","NaN","","","","","","","","","","","","","","",""
"","S2","","html-keyboard-response","552","568339","0.0-1.0-778.0","0","0","79840","","null","","","null","86","","NaN","","","","","","","","","","","","","",""
"","response","","html-keyboard-response","553","569245","0.0-1.0-779.0-0.0","0","0","79840","","906","","","68","86","","","2","86","training","adjacent","EF","5","6","R.jpg","O.jpg","1","1","1","",""
"","feedback","","html-keyboard-response","554","570247","0.0-1.0-780.0-0.0","0","0","79840","","null","","","null","86","","","","","","","","","","","","","","","",""
"","ITI","","html-keyboard-response","555","571249","0.0-1.0-783.0","0","0","79840","","null","","","null","86","","","","","","","","","","","","","","","NaN",""
"","S1","","html-keyboard-response","556","571502","0.0-1.0-785.0","0","0","79840","","null","","","null","87","","","","","","","","","","","","","","","",""
"","ISI","","html-keyboard-response","557","572504","0.0-1.0-786.0","0","0","79840","","null","","","null","87","NaN","","","","","","","","","","","","","","",""
"","S2","","html-keyboard-response","558","572756","0.0-1.0-787.0","0","0","79840","","null","","","null","87","","NaN","","","","","","","","","","","","","",""
"","response","","html-keyboard-response","559","573893","0.0-1.0-788.0-0.0","0","0","79840","","1137","","","75","87","","","2","87","training","adjacent","DC","4","3","N.jpg","Q.jpg","0","0","1","",""
"","feedback","","html-keyboard-response","560","574895","0.0-1.0-789.0-0.0","0","0","79840","","null","","","null","87","","","","","","","","","","","","","","","",""
"","ITI","","html-keyboard-response","561","575897","0.0-1.0-792.0","0","0","79840","","null","","","null","87","","","","","","","","","","","","","","","NaN",""
"","S1","","html-keyboard-response","562","576148","0.0-1.0-794.0","0","0","79840","","null","","","null","88","","","","","","","","","","","","","","","",""
"","ISI","","html-keyboard-response","563","577151","0.0-1.0-795.0","0","0","79840","","null","","","null","88","NaN","","","","","","","","","","","","","","",""
"","S2","","html-keyboard-response","564","577404","0.0-1.0-796.0","0","0","79840","","null","","","null","88","","NaN","","","","","","","","","","","","","",""
"","response","","html-keyboard-response","565","578573","0.0-1.0-797.0-0.0","0","0","79840","","1169","","","75","88","","","2","88","training","adjacent","DC","4","3","N.jpg","Q.jpg","0","0","1","",""
"","feedback","","html-keyboard-response","566","579576","0.0-1.0-798.0-0.0","0","0","79840","","null","","","null","88","","","","","","","","","","","","","","","",""
"","ITI","","html-keyboard-response","567","580577","0.0-1.0-801.0","0","0","79840","","null","","","null","88","","","","","","","","","","","","","","","NaN",""
"","S1","","html-keyboard-response","568","580835","0.0-1.0-803.0","0","0","79840","","null","","","null","89","","","","","","","","","","","","","","","",""
"","ISI","","html-keyboard-response","569","581837","0.0-1.0-804.0","0","0","79840","","null","","","null","89","NaN","","","","","","","","","","","","","","",""
"","S2","","html-keyboard-response","570","582089","0.0-1.0-805.0","0","0","79840","","null","","","null","89","","NaN","","","","","","","","","","","","","",""
"","response","","html-keyboard-response","571","582438","0.0-1.0-806.0-0.0","0","0","79840","","348","","","75","89","","","2","89","training","adjacent","GF","7","6","P.jpg","O.jpg","0","0","1","",""
"","feedback","","html-keyboard-response","572","583447","0.0-1.0-807.0-0.0","0","0","79840","","null","","","null","89","","","","","","","","","","","","","","","",""
"","ITI","","html-keyboard-response","573","584448","0.0-1.0-810.0","0","0","79840","","null","","","null","89","","","","","","","","","","","","","","","NaN",""
"","S1","","html-keyboard-response","574","584711","0.0-1.0-812.0","0","0","79840","","null","","","null","90","","","","","","","","","","","","","","","",""
"","ISI","","html-keyboard-response","575","585713","0.0-1.0-813.0","0","0","79840","","null","","","null","90","NaN","","","","","","","","","","","","","","",""
"","S2","","html-keyboard-response","576","585964","0.0-1.0-814.0","0","0","79840","","null","","","null","90","","NaN","","","","","","","","","","","","","",""
"","response","","html-keyboard-response","577","586598","0.0-1.0-815.0-0.0","0","0","79840","","632","","","75","90","","","2","90","training","adjacent","FE","6","5","O.jpg","R.jpg","0","0","1","",""
"","feedback","","html-keyboard-response","578","587599","0.0-1.0-816.0-0.0","0","0","79840","","null","","","null","90","","","","","","","","","","","","","","","",""
"","ITI","","html-keyboard-response","579","588601","0.0-1.0-819.0","0","0","79840","","null","","","null","90","","","","","","","","","","","","","","","NaN",""
"","S1","","html-keyboard-response","580","588852","0.0-1.0-821.0","0","0","79840","","null","","","null","91","","","","","","","","","","","","","","","",""
