"success","ttype","start_time","trial_type","trial_index","time_elapsed","internal_node_id","warning","missed_checkup","PID","view_history","rt","responses","repeat_instructions","key_press","index","keypress_isi","keypress_S2","block","trial_num","phase","group_type","pair_type","S1_stim","S2_stim","S1_img","S2_img","S1_chosen","S1_higher","accuracy","keypress_iti","total_bonus_tally"
"true","full_screen","d04132023hr1842","fullscreen","0","43123","0.0-0.0","0","0","39522","","","","","","","","","","","","","","","","","","","","","",""
"","instructions","","instructions","1","59794","0.0-1.0-0.0-0.0","0","0","39522","[{""page_index"":0,""viewing_time"":4251},{""page_index"":1,""viewing_time"":8955},{""page_index"":2,""viewing_time"":2155},{""page_index"":3,""viewing_time"":1308}]","16669","","","","","","","","","","","","","","","","","","","",""
"","comprehension_check","","survey-multi-choice","2","82706","0.0-1.0-0.0-1.0","0","0","39522","","22908","{""Q0"":""True"",""Q1"":""D"",""Q2"":""Only when the screen 'MAKE A CHOICE' is shown"",""Q3"":""Green mark"",""Q4"":""either D or K""}","1","","","","","","","","","","","","","","","","","",""
"","missed_instruction_checkup","","html-keyboard-response","3","84894","0.0-1.0-0.0-2.0-0.0","0","1","39522","","2185","","","32","","","","","","","","","","","","","","","","",""
"","instructions","","instructions","4","87853","0.0-1.0-0.1-0.1","0","0","39522","[{""page_index"":0,""viewing_time"":980},{""page_index"":1,""viewing_time"":587},{""page_index"":2,""viewing_time"":710},{""page_index"":3,""viewing_time"":682}]","2959","","","","","","","","","","","","","","","","","","","",""
"","comprehension_check","","survey-multi-choice","5","97036","0.0-1.0-0.1-1.1","0","0","39522","","9180","{""Q0"":""True"",""Q1"":""D"",""Q2"":""Once the second image appears and while the screen 'MAKE A CHOICE' is shown"",""Q3"":""Green mark"",""Q4"":""either D or K""}","0","","","","","","","","","","","","","","","","","",""
"","start_exp","","html-keyboard-response","6","97920","0.0-1.0-1.0","0","0","39522","","882","","","32","","","","","","","","","","","","","","","","",""
"","S1","","html-keyboard-response","7","98173","0.0-1.0-2.0","0","0","39522","","null","","","null","0","","","","","","","","","","","","","","","",""
"","ISI","","html-keyboard-response","8","99176","0.0-1.0-3.0","0","0","39522","","null","","","null","0","NaN","","","","","","","","","","","","","","",""
"","S2","","html-keyboard-response","9","99429","0.0-1.0-4.0","0","0","39522","","null","","","null","0","","NaN","","","","","","","","","","","","","",""
"","response","","html-keyboard-response","10","100083","0.0-1.0-5.0-0.0","0","0","39522","","654","","","75","0","","","1","0","training","adjacent","ED","5","4","N.jpg","L.jpg","0","0","1","",""
"","feedback","","html-keyboard-response","11","101086","0.0-1.0-6.0-0.0","0","0","39522","","null","","","null","0","","","","","","","","","","","","","","","",""
"","ITI","","html-keyboard-response","12","102089","0.0-1.0-9.0","0","0","39522","","null","","","null","0","","","","","","","","","","","","","","","NaN",""
"","S1","","html-keyboard-response","13","102341","0.0-1.0-11.0","0","0","39522","","null","","","null","1","","","","","","","","","","","","","","","",""
"","ISI","","html-keyboard-response","14","103344","0.0-1.0-12.0","0","0","39522","","null","","","null","1","NaN","","","","","","","","","","","","","","",""
"","S2","","html-keyboard-response","15","103597","0.0-1.0-13.0","0","0","39522","","null","","","null","1","","NaN","","","","","","","","","","","","","",""
"","response","","html-keyboard-response","16","104277","0.0-1.0-14.0-0.0","0","0","39522","","679","","","68","1","","","1","1","training","adjacent","DC","4","3","L.jpg","O.jpg","1","0","0","",""
"","feedback","","html-keyboard-response","17","105278","0.0-1.0-15.0-0.0","0","0","39522","","null","","","null","1","","","","","","","","","","","","","","","",""
"","time_out","","html-keyboard-response","18","107280","0.0-1.0-17.0-0.0","0","0","39522","","null","","","null","1","","","","","","","","","","","","","","","",""
"","ITI","","html-keyboard-response","19","108282","0.0-1.0-18.0","0","0","39522","","null","","","null","1","","","","","","","","","","","","","","","NaN",""
"","S1","","html-keyboard-response","20","108535","0.0-1.0-20.0","0","0","39522","","null","","","null","2","","","","","","","","","","","","","","","",""
"","ISI","","html-keyboard-response","21","109537","0.0-1.0-21.0","0","0","39522","","null","","","null","2","NaN","","","","","","","","","","","","","","",""
"","S2","","html-keyboard-response","22","109789","0.0-1.0-22.0","0","0","39522","","null","","","null","2","","NaN","","","","","","","","","","","","","",""
"","response","","html-keyboard-response","23","110064","0.0-1.0-23.0-0.0","0","0","39522","","273","","","75","2","","","1","2","training","adjacent","ED","5","4","N.jpg","L.jpg","0","0","1","",""
"","feedback","","html-keyboard-response","24","111067","0.0-1.0-24.0-0.0","0","0","39522","","null","","","null","2","","","","","","","","","","","","","","","",""
"","ITI","","html-keyboard-response","25","112069","0.0-1.0-27.0","0","0","39522","","null","","","null","2","","","","","","","","","","","","","","","NaN",""
"","S1","","html-keyboard-response","26","112322","0.0-1.0-29.0","0","0","39522","","null","","","null","3","","","","","","","","","","","","","","","",""
"","ISI","","html-keyboard-response","27","113324","0.0-1.0-30.0","0","0","39522","","null","","","null","3","NaN","","","","","","","","","","","","","","",""
"","S2","","html-keyboard-response","28","113577","0.0-1.0-31.0","0","0","39522","","null","","","null","3","","NaN","","","","","","","","","","","","","",""
"","response","","html-keyboard-response","29","114671","0.0-1.0-32.0-0.0","0","0","39522","","1093","","","68","3","","","1","3","training","adjacent","FG","6","7","R.jpg","P.jpg","1","1","1","",""
"","feedback","","html-keyboard-response","30","115674","0.0-1.0-33.0-0.0","0","0","39522","","null","","","null","3","","","","","","","","","","","","","","","",""
"","ITI","","html-keyboard-response","31","116675","0.0-1.0-36.0","0","0","39522","","null","","","null","3","","","","","","","","","","","","","","","NaN",""
"","S1","","html-keyboard-response","32","116928","0.0-1.0-38.0","0","0","39522","","null","","","null","4","","","","","","","","","","","","","","","",""
"","ISI","","html-keyboard-response","33","117930","0.0-1.0-39.0","0","0","39522","","null","","","null","4","NaN","","","","","","","","","","","","","","",""
"","S2","","html-keyboard-response","34","118183","0.0-1.0-40.0","0","0","39522","","null","","","null","4","","NaN","","","","","","","","","","","","","",""
"","response","","html-keyboard-response","35","119195","0.0-1.0-41.0-0.0","0","0","39522","","1012","","","68","4","","","1","4","training","adjacent","DE","4","5","L.jpg","N.jpg","1","1","1","",""
"","feedback","","html-keyboard-response","36","120198","0.0-1.0-42.0-0.0","0","0","39522","","null","","","null","4","","","","","","","","","","","","","","","",""
"","ITI","","html-keyboard-response","37","121199","0.0-1.0-45.0","0","0","39522","","null","","","null","4","","","","","","","","","","","","","","","NaN",""
"","S1","","html-keyboard-response","38","121452","0.0-1.0-47.0","0","0","39522","","null","","","null","5","","","","","","","","","","","","","","","",""
"","ISI","","html-keyboard-response","39","122454","0.0-1.0-48.0","0","0","39522","","null","","","null","5","NaN","","","","","","","","","","","","","","",""
"","S2","","html-keyboard-response","40","122705","0.0-1.0-49.0","0","0","39522","","null","","","null","5","","NaN","","","","","","","","","","","","","",""
"","response","","html-keyboard-response","41","122725","0.0-1.0-50.0-0.0","0","0","39522","","18","","","68","5","","","1","5","training","adjacent","AB","1","2","Q.jpg","M.jpg","1","1","1","",""
"","feedback","","html-keyboard-response","42","123728","0.0-1.0-51.0-0.0","0","0","39522","","null","","","null","5","","","","","","","","","","","","","","","",""
"","ITI","","html-keyboard-response","43","124730","0.0-1.0-54.0","0","0","39522","","null","","","null","5","","","","","","","","","","","","","","","NaN",""
"","S1","","html-keyboard-response","44","124984","0.0-1.0-56.0","0","0","39522","","null","","","null","6","","","","","","","","","","","","","","","",""
"","ISI","","html-keyboard-response","45","125986","0.0-1.0-57.0","0","0","39522","","null","","","null","6","NaN","","","","","","","","","","","","","","",""
"","S2","","html-keyboard-response","46","126237","0.0-1.0-58.0","0","0","39522","","null","","","null","6","","NaN","","","","","","","","","","","","","",""
"","response","","html-keyboard-response","47","126424","0.0-1.0-59.0-0.0","0","0","39522","","185","","","68","6","","","1","6","training","adjacent","FG","6","7","R.jpg","P.jpg","1","1","1","",""
"","feedback","","html-keyboard-response","48","127426","0.0-1.0-60.0-0.0","0","0","39522","","null","","","null","6","","","","","","","","","","","","","","","",""
"","ITI","","html-keyboard-response","49","128428","0.0-1.0-63.0","0","0","39522","","null","","","null","6","","","","","","","","","","","","","","","NaN",""
"","S1","","html-keyboard-response","50","128681","0.0-1.0-65.0","0","0","39522","","null","","","null","7","","","","","","","","","","","","","","","",""
"","ISI","","html-keyboard-response","51","129683","0.0-1.0-66.0","0","0","39522","","null","","","null","7","NaN","","","","","","","","","","","","","","",""
"","S2","","html-keyboard-response","52","129935","0.0-1.0-67.0","0","0","39522","","null","","","null","7","","NaN","","","","","","","","","","","","","",""
"","response","","html-keyboard-response","53","131072","0.0-1.0-68.0-0.0","0","0","39522","","1136","","","75","7","","","1","7","training","adjacent","BA","2","1","M.jpg","Q.jpg","0","0","1","",""
"","feedback","","html-keyboard-response","54","132075","0.0-1.0-69.0-0.0","0","0","39522","","null","","","null","7","","","","","","","","","","","","","","","",""
"","ITI","","html-keyboard-response","55","133078","0.0-1.0-72.0","0","0","39522","","null","","","null","7","","","","","","","","","","","","","","","NaN",""
"","S1","","html-keyboard-response","56","133336","0.0-1.0-74.0","0","0","39522","","null","","","null","8","","","","","","","","","","","","","","","",""
"","ISI","","html-keyboard-response","57","134338","0.0-1.0-75.0","0","0","39522","","null","","","null","8","NaN","","","","","","","","","","","","","","",""
"","S2","","html-keyboard-response","58","134591","0.0-1.0-76.0","0","0","39522","","null","","","null","8","","NaN","","","","","","","","","","","","","",""
"","response","","html-keyboard-response","59","134901","0.0-1.0-77.0-0.0","0","0","39522","","309","","","75","8","","","1","8","training","adjacent","CB","3","2","O.jpg","M.jpg","0","0","1","",""
"","feedback","","html-keyboard-response","60","135903","0.0-1.0-78.0-0.0","0","0","39522","","null","","","null","8","","","","","","","","","","","","","","","",""
"","ITI","","html-keyboard-response","61","136906","0.0-1.0-81.0","0","0","39522","","null","","","null","8","","","","","","","","","","","","","","","NaN",""
"","S1","","html-keyboard-response","62","137159","0.0-1.0-83.0","0","0","39522","","null","","","null","9","","","","","","","","","","","","","","","",""
"","ISI","","html-keyboard-response","63","138160","0.0-1.0-84.0","0","0","39522","","null","","","null","9","NaN","","","","","","","","","","","","","","",""
"","S2","","html-keyboard-response","64","138412","0.0-1.0-85.0","0","0","39522","","null","","","null","9","","NaN","","","","","","","","","","","","","",""
"","response","","html-keyboard-response","65","138969","0.0-1.0-86.0-0.0","0","0","39522","","555","","","68","9","","","1","9","training","adjacent","DC","4","3","L.jpg","O.jpg","1","0","0","",""
"","feedback","","html-keyboard-response","66","139972","0.0-1.0-87.0-0.0","0","0","39522","","null","","","null","9","","","","","","","","","","","","","","","",""
"","time_out","","html-keyboard-response","67","141975","0.0-1.0-89.0-0.0","0","0","39522","","null","","","null","9","","","","","","","","","","","","","","","",""
"","ITI","","html-keyboard-response","68","142977","0.0-1.0-90.0","0","0","39522","","null","","","null","9","","","","","","","","","","","","","","","NaN",""
"","S1","","html-keyboard-response","69","143229","0.0-1.0-92.0","0","0","39522","","null","","","null","10","","","","","","","","","","","","","","","",""
"","ISI","","html-keyboard-response","70","144233","0.0-1.0-93.0","0","0","39522","","null","","","null","10","NaN","","","","","","","","","","","","","","",""
"","S2","","html-keyboard-response","71","144485","0.0-1.0-94.0","0","0","39522","","null","","","null","10","","NaN","","","","","","","","","","","","","",""
"","response","","html-keyboard-response","72","145537","0.0-1.0-95.0-0.0","0","0","39522","","1051","","","68","10","","","1","10","training","adjacent","FE","6","5","R.jpg","N.jpg","1","0","0","",""
"","feedback","","html-keyboard-response","73","146540","0.0-1.0-96.0-0.0","0","0","39522","","null","","","null","10","","","","","","","","","","","","","","","",""
"","time_out","","html-keyboard-response","74","148542","0.0-1.0-98.0-0.0","0","0","39522","","null","","","null","10","","","","","","","","","","","","","","","",""
"","ITI","","html-keyboard-response","75","149546","0.0-1.0-99.0","0","0","39522","","null","","","null","10","","","","","","","","","","","","","","","NaN",""
"","S1","","html-keyboard-response","76","149798","0.0-1.0-101.0","0","0","39522","","null","","","null","11","","","","","","","","","","","","","","","",""
"","ISI","","html-keyboard-response","77","150801","0.0-1.0-102.0","0","0","39522","","null","","","null","11","NaN","","","","","","","","","","","","","","",""
"","S2","","html-keyboard-response","78","151054","0.0-1.0-103.0","0","0","39522","","null","","","null","11","","NaN","","","","","","","","","","","","","",""
"","response","","html-keyboard-response","79","151298","0.0-1.0-104.0-0.0","0","0","39522","","243","","","68","11","","","1","11","training","adjacent","FG","6","7","R.jpg","P.jpg","1","1","1","",""
"","feedback","","html-keyboard-response","80","152300","0.0-1.0-105.0-0.0","0","0","39522","","null","","","null","11","","","","","","","","","","","","","","","",""
"","ITI","","html-keyboard-response","81","153303","0.0-1.0-108.0","0","0","39522","","null","","","null","11","","","","","","","","","","","","","","","NaN",""
"","S1","","html-keyboard-response","82","153555","0.0-1.0-110.0","0","0","39522","","null","","","null","12","","","","","","","","","","","","","","","",""
"","ISI","","html-keyboard-response","83","154558","0.0-1.0-111.0","0","0","39522","","null","","","null","12","NaN","","","","","","","","","","","","","","",""
"","S2","","html-keyboard-response","84","154810","0.0-1.0-112.0","0","0","39522","","null","","","null","12","","NaN","","","","","","","","","","","","","",""
"","response","","html-keyboard-response","85","154974","0.0-1.0-113.0-0.0","0","0","39522","","162","","","68","12","","","1","12","training","adjacent","AB","1","2","Q.jpg","M.jpg","1","1","1","",""
"","feedback","","html-keyboard-response","86","155977","0.0-1.0-114.0-0.0","0","0","39522","","null","","","null","12","","","","","","","","","","","","","","","",""
"","ITI","","html-keyboard-response","87","156980","0.0-1.0-117.0","0","0","39522","","null","","","null","12","","","","","","","","","","","","","","","NaN",""
"","S1","","html-keyboard-response","88","157233","0.0-1.0-119.0","0","0","39522","","null","","","null","13","","","","","","","","","","","","","","","",""
"","ISI","","html-keyboard-response","89","158236","0.0-1.0-120.0","0","0","39522","","null","","","null","13","NaN","","","","","","","","","","","","","","",""
"","S2","","html-keyboard-response","90","158489","0.0-1.0-121.0","0","0","39522","","null","","","null","13","","NaN","","","","","","","","","","","","","",""
"","response","","html-keyboard-response","91","158747","0.0-1.0-122.0-0.0","0","0","39522","","258","","","75","13","","","1","13","training","adjacent","ED","5","4","N.jpg","L.jpg","0","0","1","",""
"","feedback","","html-keyboard-response","92","159750","0.0-1.0-123.0-0.0","0","0","39522","","null","","","null","13","","","","","","","","","","","","","","","",""
"","ITI","","html-keyboard-response","93","160753","0.0-1.0-126.0","0","0","39522","","null","","","null","13","","","","","","","","","","","","","","","NaN",""
"","S1","","html-keyboard-response","94","161006","0.0-1.0-128.0","0","0","39522","","null","","","null","14","","","","","","","","","","","","","","","",""
"","ISI","","html-keyboard-response","95","162008","0.0-1.0-129.0","0","0","39522","","null","","","null","14","NaN","","","","","","","","","","","","","","",""
"","S2","","html-keyboard-response","96","162261","0.0-1.0-130.0","0","0","39522","","null","","","null","14","","NaN","","","","","","","","","","","","","",""
"","response","","html-keyboard-response","97","163021","0.0-1.0-131.0-0.0","0","0","39522","","759","","","75","14","","","1","14","training","adjacent","GF","7","6","P.jpg","R.jpg","0","0","1","",""
"","feedback","","html-keyboard-response","98","164024","0.0-1.0-132.0-0.0","0","0","39522","","null","","","null","14","","","","","","","","","","","","","","","",""
"","ITI","","html-keyboard-response","99","165027","0.0-1.0-135.0","0","0","39522","","null","","","null","14","","","","","","","","","","","","","","","NaN",""
"","S1","","html-keyboard-response","100","165280","0.0-1.0-137.0","0","0","39522","","null","","","null","15","","","","","","","","","","","","","","","",""
"","ISI","","html-keyboard-response","101","166282","0.0-1.0-138.0","0","0","39522","","null","","","null","15","NaN","","","","","","","","","","","","","","",""
"","S2","","html-keyboard-response","102","166535","0.0-1.0-139.0","0","0","39522","","null","","","null","15","","NaN","","","","","","","","","","","","","",""
"","response","","html-keyboard-response","103","166702","0.0-1.0-140.0-0.0","0","0","39522","","167","","","75","15","","","1","15","training","adjacent","EF","5","6","N.jpg","R.jpg","0","1","0","",""
"","feedback","","html-keyboard-response","104","167705","0.0-1.0-141.0-0.0","0","0","39522","","null","","","null","15","","","","","","","","","","","","","","","",""
"","time_out","","html-keyboard-response","105","169706","0.0-1.0-143.0-0.0","0","0","39522","","null","","","null","15","","","","","","","","","","","","","","","",""
"","ITI","","html-keyboard-response","106","170709","0.0-1.0-144.0","0","0","39522","","null","","","null","15","","","","","","","","","","","","","","","NaN",""
"","S1","","html-keyboard-response","107","170962","0.0-1.0-146.0","0","0","39522","","null","","","null","16","","","","","","","","","","","","","","","",""
"","ISI","","html-keyboard-response","108","171965","0.0-1.0-147.0","0","0","39522","","null","","","null","16","NaN","","","","","","","","","","","","","","",""
"","S2","","html-keyboard-response","109","172217","0.0-1.0-148.0","0","0","39522","","null","","","null","16","","NaN","","","","","","","","","","","","","",""
"","response","","html-keyboard-response","110","172484","0.0-1.0-149.0-0.0","0","0","39522","","265","","","68","16","","","1","16","training","adjacent","CB","3","2","O.jpg","M.jpg","1","0","0","",""
"","feedback","","html-keyboard-response","111","173487","0.0-1.0-150.0-0.0","0","0","39522","","null","","","null","16","","","","","","","","","","","","","","","",""
"","time_out","","html-keyboard-response","112","175490","0.0-1.0-152.0-0.0","0","0","39522","","null","","","null","16","","","","","","","","","","","","","","","",""
"","ITI","","html-keyboard-response","113","176492","0.0-1.0-153.0","0","0","39522","","null","","","null","16","","","","","","","","","","","","","","","NaN",""
"","S1","","html-keyboard-response","114","176745","0.0-1.0-155.0","0","0","39522","","null","","","null","17","","","","","","","","","","","","","","","",""
"","ISI","","html-keyboard-response","115","177747","0.0-1.0-156.0","0","0","39522","","null","","","null","17","NaN","","","","","","","","","","","","","","",""
"","S2","","html-keyboard-response","116","178000","0.0-1.0-157.0","0","0","39522","","null","","","null","17","","NaN","","","","","","","","","","","","","",""
"","response","","html-keyboard-response","117","178886","0.0-1.0-158.0-0.0","0","0","39522","","885","","","75","17","","","1","17","training","adjacent","BA","2","1","M.jpg","Q.jpg","0","0","1","",""
"","feedback","","html-keyboard-response","118","179888","0.0-1.0-159.0-0.0","0","0","39522","","null","","","null","17","","","","","","","","","","","","","","","",""
"","ITI","","html-keyboard-response","119","180891","0.0-1.0-162.0","0","0","39522","","null","","","null","17","","","","","","","","","","","","","","","NaN",""
"","S1","","html-keyboard-response","120","181144","0.0-1.0-164.0","0","0","39522","","null","","","null","18","","","","","","","","","","","","","","","",""
"","ISI","","html-keyboard-response","121","182146","0.0-1.0-165.0","0","0","39522","","null","","","null","18","NaN","","","","","","","","","","","","","","",""
"","S2","","html-keyboard-response","122","182399","0.0-1.0-166.0","0","0","39522","","null","","","null","18","","NaN","","","","","","","","","","","","","",""
"","response","","html-keyboard-response","123","182811","0.0-1.0-167.0-0.0","0","0","39522","","411","","","75","18","","","1","18","training","adjacent","DC","4","3","L.jpg","O.jpg","0","0","1","",""
"","feedback","","html-keyboard-response","124","183814","0.0-1.0-168.0-0.0","0","0","39522","","null","","","null","18","","","","","","","","","","","","","","","",""
"","ITI","","html-keyboard-response","125","184817","0.0-1.0-171.0","0","0","39522","","null","","","null","18","","","","","","","","","","","","","","","NaN",""
"","S1","","html-keyboard-response","126","185070","0.0-1.0-173.0","0","0","39522","","null","","","null","19","","","","","","","","","","","","","","","",""
"","ISI","","html-keyboard-response","127","186072","0.0-1.0-174.0","0","0","39522","","null","","","null","19","NaN","","","","","","","","","","","","","","",""
"","S2","","html-keyboard-response","128","186326","0.0-1.0-175.0","0","0","39522","","null","","","null","19","","NaN","","","","","","","","","","","","","",""
"","response","","html-keyboard-response","129","186670","0.0-1.0-176.0-0.0","0","0","39522","","343","","","75","19","","","1","19","training","adjacent","EF","5","6","N.jpg","R.jpg","0","1","0","",""
"","feedback","","html-keyboard-response","130","187673","0.0-1.0-177.0-0.0","0","0","39522","","null","","","null","19","","","","","","","","","","","","","","","",""
"","time_out","","html-keyboard-response","131","189676","0.0-1.0-179.0-0.0","0","0","39522","","null","","","null","19","","","","","","","","","","","","","","","",""
"","ITI","","html-keyboard-response","132","190678","0.0-1.0-180.0","0","0","39522","","null","","","null","19","","","","","","","","","","","","","","","NaN",""
"","S1","","html-keyboard-response","133","190945","0.0-1.0-182.0","0","0","39522","","null","","","null","20","","","","","","","","","","","","","","","",""
"","ISI","","html-keyboard-response","134","191948","0.0-1.0-183.0","0","0","39522","","null","","","null","20","NaN","","","","","","","","","","","","","","",""
"","S2","","html-keyboard-response","135","192199","0.0-1.0-184.0","0","0","39522","","null","","","null","20","","NaN","","","","","","","","","","","","","",""
"","response","","html-keyboard-response","136","193249","0.0-1.0-185.0-0.0","0","0","39522","","1048","","","75","20","","","1","20","training","adjacent","BC","2","3","M.jpg","O.jpg","0","1","0","",""
"","feedback","","html-keyboard-response","137","194251","0.0-1.0-186.0-0.0","0","0","39522","","null","","","null","20","","","","","","","","","","","","","","","",""
"","time_out","","html-keyboard-response","138","196254","0.0-1.0-188.0-0.0","0","0","39522","","null","","","null","20","","","","","","","","","","","","","","","",""
"","ITI","","html-keyboard-response","139","197256","0.0-1.0-189.0","0","0","39522","","null","","","null","20","","","","","","","","","","","","","","","NaN",""
"","S1","","html-keyboard-response","140","197508","0.0-1.0-191.0","0","0","39522","","null","","","null","21","","","","","","","","","","","","","","","",""
"","ISI","","html-keyboard-response","141","198510","0.0-1.0-192.0","0","0","39522","","null","","","null","21","NaN","","","","","","","","","","","","","","",""
"","S2","","html-keyboard-response","142","198763","0.0-1.0-193.0","0","0","39522","","null","","","null","21","","NaN","","","","","","","","","","","","","",""
"","response","","html-keyboard-response","143","199911","0.0-1.0-194.0-0.0","0","0","39522","","1147","","","68","21","","","1","21","training","adjacent","DE","4","5","L.jpg","N.jpg","1","1","1","",""
"","feedback","","html-keyboard-response","144","200915","0.0-1.0-195.0-0.0","0","0","39522","","null","","","null","21","","","","","","","","","","","","","","","",""
"","ITI","","html-keyboard-response","145","201930","0.0-1.0-198.0","0","0","39522","","null","","","null","21","","","","","","","","","","","","","","","NaN",""
"","S1","","html-keyboard-response","146","202184","0.0-1.0-200.0","0","0","39522","","null","","","null","22","","","","","","","","","","","","","","","",""
"","ISI","","html-keyboard-response","147","203185","0.0-1.0-201.0","0","0","39522","","null","","","null","22","NaN","","","","","","","","","","","","","","",""
"","S2","","html-keyboard-response","148","203438","0.0-1.0-202.0","0","0","39522","","null","","","null","22","","NaN","","","","","","","","","","","","","",""
"","response","","html-keyboard-response","149","203932","0.0-1.0-203.0-0.0","0","0","39522","","493","","","75","22","","","1","22","training","adjacent","BC","2","3","M.jpg","O.jpg","0","1","0","",""
"","feedback","","html-keyboard-response","150","204934","0.0-1.0-204.0-0.0","0","0","39522","","null","","","null","22","","","","","","","","","","","","","","","",""
"","time_out","","html-keyboard-response","151","206937","0.0-1.0-206.0-0.0","0","0","39522","","null","","","null","22","","","","","","","","","","","","","","","",""
"","ITI","","html-keyboard-response","152","207940","0.0-1.0-207.0","0","0","39522","","null","","","null","22","","","","","","","","","","","","","","","NaN",""
"","S1","","html-keyboard-response","153","208193","0.0-1.0-209.0","0","0","39522","","null","","","null","23","","","","","","","","","","","","","","","",""
"","ISI","","html-keyboard-response","154","209196","0.0-1.0-210.0","0","0","39522","","null","","","null","23","NaN","","","","","","","","","","","","","","",""
"","S2","","html-keyboard-response","155","209449","0.0-1.0-211.0","0","0","39522","","null","","","null","23","","NaN","","","","","","","","","","","","","",""
"","response","","html-keyboard-response","156","210319","0.0-1.0-212.0-0.0","0","0","39522","","870","","","68","23","","","1","23","training","adjacent","CD","3","4","O.jpg","L.jpg","1","1","1","",""
"","feedback","","html-keyboard-response","157","211321","0.0-1.0-213.0-0.0","0","0","39522","","null","","","null","23","","","","","","","","","","","","","","","",""
"","ITI","","html-keyboard-response","158","212323","0.0-1.0-216.0","0","0","39522","","null","","","null","23","","","","","","","","","","","","","","","NaN",""
"","S1","","html-keyboard-response","159","212576","0.0-1.0-218.0","0","0","39522","","null","","","null","24","","","","","","","","","","","","","","","",""
"","ISI","","html-keyboard-response","160","213578","0.0-1.0-219.0","0","0","39522","","null","","","null","24","NaN","","","","","","","","","","","","","","",""
"","S2","","html-keyboard-response","161","213831","0.0-1.0-220.0","0","0","39522","","null","","","null","24","","NaN","","","","","","","","","","","","","",""
"","response","","html-keyboard-response","162","214049","0.0-1.0-221.0-0.0","0","0","39522","","217","","","68","24","","","1","24","training","adjacent","AB","1","2","Q.jpg","M.jpg","1","1","1","",""
"","feedback","","html-keyboard-response","163","215052","0.0-1.0-222.0-0.0","0","0","39522","","null","","","null","24","","","","","","","","","","","","","","","",""
"","ITI","","html-keyboard-response","164","216054","0.0-1.0-225.0","0","0","39522","","null","","","null","24","","","","","","","","","","","","","","","NaN",""
"","S1","","html-keyboard-response","165","216306","0.0-1.0-227.0","0","0","39522","","null","","","null","25","","","","","","","","","","","","","","","",""
"","ISI","","html-keyboard-response","166","217308","0.0-1.0-228.0","0","0","39522","","null","","","null","25","NaN","","","","","","","","","","","","","","",""
"","S2","","html-keyboard-response","167","217561","0.0-1.0-229.0","0","0","39522","","null","","","null","25","","NaN","","","","","","","","","","","","","",""
"","response","","html-keyboard-response","168","218157","0.0-1.0-230.0-0.0","0","0","39522","","595","","","68","25","","","1","25","training","adjacent","EF","5","6","N.jpg","R.jpg","1","1","1","",""
"","feedback","","html-keyboard-response","169","219160","0.0-1.0-231.0-0.0","0","0","39522","","null","","","null","25","","","","","","","","","","","","","","","",""
"","ITI","","html-keyboard-response","170","220167","0.0-1.0-234.0","0","0","39522","","null","","","null","25","","","","","","","","","","","","","","","NaN",""
"","S1","","html-keyboard-response","171","220419","0.0-1.0-236.0","0","0","39522","","null","","","null","26","","","","","","","","","","","","","","","",""
"","ISI","","html-keyboard-response","172","221421","0.0-1.0-237.0","0","0","39522","","null","","","null","26","NaN","","","","","","","","","","","","","","",""
"","S2","","html-keyboard-response","173","221674","0.0-1.0-238.0","0","0","39522","","null","","","null","26","","NaN","","","","","","","","","","","","","",""
"","response","","html-keyboard-response","174","222168","0.0-1.0-239.0-0.0","0","0","39522","","493","","","75","26","","","1","26","training","adjacent","CB","3","2","O.jpg","M.jpg","0","0","1","",""
"","feedback","","html-keyboard-response","175","223171","0.0-1.0-240.0-0.0","0","0","39522","","null","","","null","26","","","","","","","","","","","","","","","",""
"","ITI","","html-keyboard-response","176","224173","0.0-1.0-243.0","0","0","39522","","null","","","null","26","","","","","","","","","","","","","","","NaN",""
"","S1","","html-keyboard-response","177","224426","0.0-1.0-245.0","0","0","39522","","null","","","null","27","","","","","","","","","","","","","","","",""
"","ISI","","html-keyboard-response","178","225428","0.0-1.0-246.0","0","0","39522","","null","","","null","27","NaN","","","","","","","","","","","","","","",""
"","S2","","html-keyboard-response","179","225681","0.0-1.0-247.0","0","0","39522","","null","","","null","27","","NaN","","","","","","","","","","","","","",""
"","response","","html-keyboard-response","180","226307","0.0-1.0-248.0-0.0","0","0","39522","","625","","","75","27","","","1","27","training","adjacent","CB","3","2","O.jpg","M.jpg","0","0","1","",""
"","feedback","","html-keyboard-response","181","227311","0.0-1.0-249.0-0.0","0","0","39522","","null","","","null","27","","","","","","","","","","","","","","","",""
"","ITI","","html-keyboard-response","182","228313","0.0-1.0-252.0","0","0","39522","","null","","","null","27","","","","","","","","","","","","","","","NaN",""
"","S1","","html-keyboard-response","183","228565","0.0-1.0-254.0","0","0","39522","","null","","","null","28","","","","","","","","","","","","","","","",""
"","ISI","","html-keyboard-response","184","229578","0.0-1.0-255.0","0","0","39522","","null","","","null","28","NaN","","","","","","","","","","","","","","",""
"","S2","","html-keyboard-response","185","229832","0.0-1.0-256.0","0","0","39522","","null","","","null","28","","NaN","","","","","","","","","","","","","",""
"","response","","html-keyboard-response","186","230949","0.0-1.0-257.0-0.0","0","0","39522","","1116","","","68","28","","","1","28","training","adjacent","GF","7","6","P.jpg","R.jpg","1","0","0","",""
"","feedback","","html-keyboard-response","187","231952","0.0-1.0-258.0-0.0","0","0","39522","","null","","","null","28","","","","","","","","","","","","","","","",""
"","time_out","","html-keyboard-response","188","233956","0.0-1.0-260.0-0.0","0","0","39522","","null","","","null","28","","","","","","","","","","","","","","","",""
"","ITI","","html-keyboard-response","189","234959","0.0-1.0-261.0","0","0","39522","","null","","","null","28","","","","","","","","","","","","","","","NaN",""
"","S1","","html-keyboard-response","190","235212","0.0-1.0-263.0","0","0","39522","","null","","","null","29","","","","","","","","","","","","","","","",""
"","ISI","","html-keyboard-response","191","236214","0.0-1.0-264.0","0","0","39522","","null","","","null","29","NaN","","","","","","","","","","","","","","",""
"","S2","","html-keyboard-response","192","236467","0.0-1.0-265.0","0","0","39522","","null","","","null","29","","NaN","","","","","","","","","","","","","",""
"","response","","html-keyboard-response","193","237336","0.0-1.0-266.0-0.0","0","0","39522","","868","","","68","29","","","1","29","training","adjacent","CD","3","4","O.jpg","L.jpg","1","1","1","",""
"","feedback","","html-keyboard-response","194","238338","0.0-1.0-267.0-0.0","0","0","39522","","null","","","null","29","","","","","","","","","","","","","","","",""
"","ITI","","html-keyboard-response","195","239340","0.0-1.0-270.0","0","0","39522","","null","","","null","29","","","","","","","","","","","","","","","NaN",""
"","S1","","html-keyboard-response","196","239592","0.0-1.0-272.0","0","0","39522","","null","","","null","30","","","","","","","","","","","","","","","",""
"","ISI","","html-keyboard-response","197","240596","0.0-1.0-273.0","0","0","39522","","null","","","null","30","NaN","","","","","","","","","","","","","","",""
"","S2","","html-keyboard-response","198","240849","0.0-1.0-274.0","0","0","39522","","null","","","null","30","","NaN","","","","","","","","","","","","","",""
"","response","","html-keyboard-response","199","242185","0.0-1.0-275.0-0.0","0","0","39522","","1335","","","68","30","","","1","30","training","adjacent","FE","6","5","R.jpg","N.jpg","1","0","0","",""
"","feedback","","html-keyboard-response","200","243187","0.0-1.0-276.0-0.0","0","0","39522","","null","","","null","30","","","","","","","","","","","","","","","",""
"","time_out","","html-keyboard-response","201","245190","0.0-1.0-278.0-0.0","0","0","39522","","null","","","null","30","","","","","","","","","","","","","","","",""
"","ITI","","html-keyboard-response","202","246192","0.0-1.0-279.0","0","0","39522","","null","","","null","30","","","","","","","","","","","","","","","NaN",""
"","S1","","html-keyboard-response","203","246444","0.0-1.0-281.0","0","0","39522","","null","","","null","31","","","","","","","","","","","","","","","",""
"","ISI","","html-keyboard-response","204","247447","0.0-1.0-282.0","0","0","39522","","null","","","null","31","NaN","","","","","","","","","","","","","","",""
"","S2","","html-keyboard-response","205","247699","0.0-1.0-283.0","0","0","39522","","null","","","null","31","","NaN","","","","","","","","","","","","","",""
"","response","","html-keyboard-response","206","248658","0.0-1.0-284.0-0.0","0","0","39522","","957","","","68","31","","","1","31","training","adjacent","GF","7","6","P.jpg","R.jpg","1","0","0","",""
"","feedback","","html-keyboard-response","207","249661","0.0-1.0-285.0-0.0","0","0","39522","","null","","","null","31","","","","","","","","","","","","","","","",""
"","time_out","","html-keyboard-response","208","251663","0.0-1.0-287.0-0.0","0","0","39522","","null","","","null","31","","","","","","","","","","","","","","","",""
"","ITI","","html-keyboard-response","209","252665","0.0-1.0-288.0","0","0","39522","","null","","","null","31","","","","","","","","","","","","","","","NaN",""
"","S1","","html-keyboard-response","210","252918","0.0-1.0-290.0","0","0","39522","","null","","","null","32","","","","","","","","","","","","","","","",""
"","ISI","","html-keyboard-response","211","253920","0.0-1.0-291.0","0","0","39522","","null","","","null","32","NaN","","","","","","","","","","","","","","",""
"","S2","","html-keyboard-response","212","254172","0.0-1.0-292.0","0","0","39522","","null","","","null","32","","NaN","","","","","","","","","","","","","",""
"","response","","html-keyboard-response","213","255061","0.0-1.0-293.0-0.0","0","0","39522","","888","","","68","32","","","1","32","training","adjacent","BC","2","3","M.jpg","O.jpg","1","1","1","",""
"","feedback","","html-keyboard-response","214","256065","0.0-1.0-294.0-0.0","0","0","39522","","null","","","null","32","","","","","","","","","","","","","","","",""
"","ITI","","html-keyboard-response","215","257067","0.0-1.0-297.0","0","0","39522","","null","","","null","32","","","","","","","","","","","","","","","NaN",""
"","S1","","html-keyboard-response","216","257319","0.0-1.0-299.0","0","0","39522","","null","","","null","33","","","","","","","","","","","","","","","",""
"","ISI","","html-keyboard-response","217","258321","0.0-1.0-300.0","0","0","39522","","null","","","null","33","NaN","","","","","","","","","","","","","","",""
"","S2","","html-keyboard-response","218","258574","0.0-1.0-301.0","0","0","39522","","null","","","null","33","","NaN","","","","","","","","","","","","","",""
"","response","","html-keyboard-response","219","259418","0.0-1.0-302.0-0.0","0","0","39522","","844","","","75","33","","","1","33","training","adjacent","BA","2","1","M.jpg","Q.jpg","0","0","1","",""
"","feedback","","html-keyboard-response","220","260420","0.0-1.0-303.0-0.0","0","0","39522","","null","","","null","33","","","","","","","","","","","","","","","",""
"","ITI","","html-keyboard-response","221","261423","0.0-1.0-306.0","0","0","39522","","null","","","null","33","","","","","","","","","","","","","","","NaN",""
"","S1","","html-keyboard-response","222","261675","0.0-1.0-308.0","0","0","39522","","null","","","null","34","","","","","","","","","","","","","","","",""
"","ISI","","html-keyboard-response","223","262677","0.0-1.0-309.0","0","0","39522","","null","","","null","34","NaN","","","","","","","","","","","","","","",""
"","S2","","html-keyboard-response","224","262929","0.0-1.0-310.0","0","0","39522","","null","","","null","34","","NaN","","","","","","","","","","","","","",""
"","response","","html-keyboard-response","225","263276","0.0-1.0-311.0-0.0","0","0","39522","","346","","","68","34","","","1","34","training","adjacent","AB","1","2","Q.jpg","M.jpg","1","1","1","",""
"","feedback","","html-keyboard-response","226","264279","0.0-1.0-312.0-0.0","0","0","39522","","null","","","null","34","","","","","","","","","","","","","","","",""
"","ITI","","html-keyboard-response","227","265281","0.0-1.0-315.0","0","0","39522","","null","","","null","34","","","","","","","","","","","","","","","NaN",""
"","S1","","html-keyboard-response","228","265533","0.0-1.0-317.0","0","0","39522","","null","","","null","35","","","","","","","","","","","","","","","",""
"","ISI","","html-keyboard-response","229","266534","0.0-1.0-318.0","0","0","39522","","null","","","null","35","NaN","","","","","","","","","","","","","","",""
"","S2","","html-keyboard-response","230","266787","0.0-1.0-319.0","0","0","39522","","null","","","null","35","","NaN","","","","","","","","","","","","","",""
"","response","","html-keyboard-response","231","267822","0.0-1.0-320.0-0.0","0","0","39522","","1034","","","68","35","","","1","35","training","adjacent","DE","4","5","L.jpg","N.jpg","1","1","1","",""
"","feedback","","html-keyboard-response","232","268827","0.0-1.0-321.0-0.0","0","0","39522","","null","","","null","35","","","","","","","","","","","","","","","",""
"","ITI","","html-keyboard-response","233","269829","0.0-1.0-324.0","0","0","39522","","null","","","null","35","","","","","","","","","","","","","","","NaN",""
"","S1","","html-keyboard-response","234","270081","0.0-1.0-326.0","0","0","39522","","null","","","null","36","","","","","","","","","","","","","","","",""
"","ISI","","html-keyboard-response","235","271083","0.0-1.0-327.0","0","0","39522","","null","","","null","36","NaN","","","","","","","","","","","","","","",""
"","S2","","html-keyboard-response","236","271336","0.0-1.0-328.0","0","0","39522","","null","","","null","36","","NaN","","","","","","","","","","","","","",""
"","response","","html-keyboard-response","237","272721","0.0-1.0-329.0-0.0","0","0","39522","","1384","","","75","36","","","1","36","training","adjacent","FG","6","7","R.jpg","P.jpg","0","1","0","",""
"","feedback","","html-keyboard-response","238","273724","0.0-1.0-330.0-0.0","0","0","39522","","null","","","null","36","","","","","","","","","","","","","","","",""
"","time_out","","html-keyboard-response","239","275726","0.0-1.0-332.0-0.0","0","0","39522","","null","","","null","36","","","","","","","","","","","","","","","",""
"","ITI","","html-keyboard-response","240","276728","0.0-1.0-333.0","0","0","39522","","null","","","null","36","","","","","","","","","","","","","","","NaN",""
"","S1","","html-keyboard-response","241","276981","0.0-1.0-335.0","0","0","39522","","null","","","null","37","","","","","","","","","","","","","","","",""
"","ISI","","html-keyboard-response","242","277984","0.0-1.0-336.0","0","0","39522","","null","","","null","37","NaN","","","","","","","","","","","","","","",""
"","S2","","html-keyboard-response","243","278236","0.0-1.0-337.0","0","0","39522","","null","","","null","37","","NaN","","","","","","","","","","","","","",""
"","response","","html-keyboard-response","244","279411","0.0-1.0-338.0-0.0","0","0","39522","","1174","","","68","37","","","1","37","training","adjacent","FE","6","5","R.jpg","N.jpg","1","0","0","",""
"","feedback","","html-keyboard-response","245","280414","0.0-1.0-339.0-0.0","0","0","39522","","null","","","null","37","","","","","","","","","","","","","","","",""
"","time_out","","html-keyboard-response","246","282416","0.0-1.0-341.0-0.0","0","0","39522","","null","","","null","37","","","","","","","","","","","","","","","",""
"","ITI","","html-keyboard-response","247","283418","0.0-1.0-342.0","0","0","39522","","null","","","null","37","","","","","","","","","","","","","","","NaN",""
"","S1","","html-keyboard-response","248","283671","0.0-1.0-344.0","0","0","39522","","null","","","null","38","","","","","","","","","","","","","","","",""
"","ISI","","html-keyboard-response","249","284673","0.0-1.0-345.0","0","0","39522","","null","","","null","38","NaN","","","","","","","","","","","","","","",""
"","S2","","html-keyboard-response","250","284925","0.0-1.0-346.0","0","0","39522","","null","","","null","38","","NaN","","","","","","","","","","","","","",""
"","response","","html-keyboard-response","251","285267","0.0-1.0-347.0-0.0","0","0","39522","","340","","","68","38","","","1","38","training","adjacent","DE","4","5","L.jpg","N.jpg","1","1","1","",""
"","feedback","","html-keyboard-response","252","286269","0.0-1.0-348.0-0.0","0","0","39522","","null","","","null","38","","","","","","","","","","","","","","","",""
"","ITI","","html-keyboard-response","253","287272","0.0-1.0-351.0","0","0","39522","","null","","","null","38","","","","","","","","","","","","","","","NaN",""
"","S1","","html-keyboard-response","254","287524","0.0-1.0-353.0","0","0","39522","","null","","","null","39","","","","","","","","","","","","","","","",""
"","ISI","","html-keyboard-response","255","288526","0.0-1.0-354.0","0","0","39522","","null","","","null","39","NaN","","","","","","","","","","","","","","",""
"","S2","","html-keyboard-response","256","288778","0.0-1.0-355.0","0","0","39522","","null","","","null","39","","NaN","","","","","","","","","","","","","",""
"","response","","html-keyboard-response","257","289415","0.0-1.0-356.0-0.0","0","0","39522","","635","","","75","39","","","1","39","training","adjacent","CD","3","4","O.jpg","L.jpg","0","1","0","",""
"","feedback","","html-keyboard-response","258","290418","0.0-1.0-357.0-0.0","0","0","39522","","null","","","null","39","","","","","","","","","","","","","","","",""
"","time_out","","html-keyboard-response","259","292420","0.0-1.0-359.0-0.0","0","0","39522","","null","","","null","39","","","","","","","","","","","","","","","",""
"","ITI","","html-keyboard-response","260","293422","0.0-1.0-360.0","0","0","39522","","null","","","null","39","","","","","","","","","","","","","","","NaN",""
"","S1","","html-keyboard-response","261","293675","0.0-1.0-362.0","0","0","39522","","null","","","null","40","","","","","","","","","","","","","","","",""
"","ISI","","html-keyboard-response","262","294677","0.0-1.0-363.0","0","0","39522","","null","","","null","40","NaN","","","","","","","","","","","","","","",""
"","S2","","html-keyboard-response","263","294930","0.0-1.0-364.0","0","0","39522","","null","","","null","40","","NaN","","","","","","","","","","","","","",""
"","response","","html-keyboard-response","264","295694","0.0-1.0-365.0-0.0","0","0","39522","","762","","","75","40","","","1","40","training","adjacent","GF","7","6","P.jpg","R.jpg","0","0","1","",""
"","feedback","","html-keyboard-response","265","296696","0.0-1.0-366.0-0.0","0","0","39522","","null","","","null","40","","","","","","","","","","","","","","","",""
"","ITI","","html-keyboard-response","266","297698","0.0-1.0-369.0","0","0","39522","","null","","","null","40","","","","","","","","","","","","","","","NaN",""
"","S1","","html-keyboard-response","267","297951","0.0-1.0-371.0","0","0","39522","","null","","","null","41","","","","","","","","","","","","","","","",""
"","ISI","","html-keyboard-response","268","298954","0.0-1.0-372.0","0","0","39522","","null","","","null","41","NaN","","","","","","","","","","","","","","",""
"","S2","","html-keyboard-response","269","299206","0.0-1.0-373.0","0","0","39522","","null","","","null","41","","NaN","","","","","","","","","","","","","",""
"","response","","html-keyboard-response","270","299783","0.0-1.0-374.0-0.0","0","0","39522","","576","","","75","41","","","1","41","training","adjacent","FE","6","5","R.jpg","N.jpg","0","0","1","",""
"","feedback","","html-keyboard-response","271","300786","0.0-1.0-375.0-0.0","0","0","39522","","null","","","null","41","","","","","","","","","","","","","","","",""
"","ITI","","html-keyboard-response","272","301788","0.0-1.0-378.0","0","0","39522","","null","","","null","41","","","","","","","","","","","","","","","NaN",""
"","S1","","html-keyboard-response","273","302041","0.0-1.0-380.0","0","0","39522","","null","","","null","42","","","","","","","","","","","","","","","",""
"","ISI","","html-keyboard-response","274","303043","0.0-1.0-381.0","0","0","39522","","null","","","null","42","NaN","","","","","","","","","","","","","","",""
"","S2","","html-keyboard-response","275","303295","0.0-1.0-382.0","0","0","39522","","null","","","null","42","","NaN","","","","","","","","","","","","","",""
"","response","","html-keyboard-response","276","303743","0.0-1.0-383.0-0.0","0","0","39522","","447","","","75","42","","","1","42","training","adjacent","DC","4","3","L.jpg","O.jpg","0","0","1","",""
"","feedback","","html-keyboard-response","277","304746","0.0-1.0-384.0-0.0","0","0","39522","","null","","","null","42","","","","","","","","","","","","","","","",""
"","ITI","","html-keyboard-response","278","305748","0.0-1.0-387.0","0","0","39522","","null","","","null","42","","","","","","","","","","","","","","","NaN",""
"","S1","","html-keyboard-response","279","306013","0.0-1.0-389.0","0","0","39522","","null","","","null","43","","","","","","","","","","","","","","","",""
"","ISI","","html-keyboard-response","280","307016","0.0-1.0-390.0","0","0","39522","","null","","","null","43","NaN","","","","","","","","","","","","","","",""
"","S2","","html-keyboard-response","281","307269","0.0-1.0-391.0","0","0","39522","","null","","","null","43","","NaN","","","","","","","","","","","","","",""
"","response","","html-keyboard-response","282","308533","0.0-1.0-392.0-0.0","0","0","39522","","1262","","","68","43","","","1","43","training","adjacent","BC","2","3","M.jpg","O.jpg","1","1","1","",""
"","feedback","","html-keyboard-response","283","309535","0.0-1.0-393.0-0.0","0","0","39522","","null","","","null","43","","","","","","","","","","","","","","","",""
"","ITI","","html-keyboard-response","284","310537","0.0-1.0-396.0","0","0","39522","","null","","","null","43","","","","","","","","","","","","","","","NaN",""
"","S1","","html-keyboard-response","285","310789","0.0-1.0-398.0","0","0","39522","","null","","","null","44","","","","","","","","","","","","","","","",""
"","ISI","","html-keyboard-response","286","311792","0.0-1.0-399.0","0","0","39522","","null","","","null","44","NaN","","","","","","","","","","","","","","",""
"","S2","","html-keyboard-response","287","312045","0.0-1.0-400.0","0","0","39522","","null","","","null","44","","NaN","","","","","","","","","","","","","",""
"","response","","html-keyboard-response","288","313139","0.0-1.0-401.0-0.0","0","0","39522","","1092","","","68","44","","","1","44","training","adjacent","CD","3","4","O.jpg","L.jpg","1","1","1","",""
"","feedback","","html-keyboard-response","289","314142","0.0-1.0-402.0-0.0","0","0","39522","","null","","","null","44","","","","","","","","","","","","","","","",""
"","ITI","","html-keyboard-response","290","315145","0.0-1.0-405.0","0","0","39522","","null","","","null","44","","","","","","","","","","","","","","","NaN",""
"","S1","","html-keyboard-response","291","315398","0.0-1.0-407.0","0","0","39522","","null","","","null","45","","","","","","","","","","","","","","","",""
"","ISI","","html-keyboard-response","292","316401","0.0-1.0-408.0","0","0","39522","","null","","","null","45","NaN","","","","","","","","","","","","","","",""
"","S2","","html-keyboard-response","293","316654","0.0-1.0-409.0","0","0","39522","","null","","","null","45","","NaN","","","","","","","","","","","","","",""
"","response","","html-keyboard-response","294","317405","0.0-1.0-410.0-0.0","0","0","39522","","751","","","75","45","","","1","45","training","adjacent","BA","2","1","M.jpg","Q.jpg","0","0","1","",""
"","feedback","","html-keyboard-response","295","318407","0.0-1.0-411.0-0.0","0","0","39522","","null","","","null","45","","","","","","","","","","","","","","","",""
"","ITI","","html-keyboard-response","296","319409","0.0-1.0-414.0","0","0","39522","","null","","","null","45","","","","","","","","","","","","","","","NaN",""
"","S1","","html-keyboard-response","297","319662","0.0-1.0-416.0","0","0","39522","","null","","","null","46","","","","","","","","","","","","","","","",""
"","ISI","","html-keyboard-response","298","320664","0.0-1.0-417.0","0","0","39522","","null","","","null","46","NaN","","","","","","","","","","","","","","",""
"","S2","","html-keyboard-response","299","320916","0.0-1.0-418.0","0","0","39522","","null","","","null","46","","NaN","","","","","","","","","","","","","",""
"","response","","html-keyboard-response","300","321588","0.0-1.0-419.0-0.0","0","0","39522","","670","","","75","46","","","1","46","training","adjacent","ED","5","4","N.jpg","L.jpg","0","0","1","",""
"","feedback","","html-keyboard-response","301","322590","0.0-1.0-420.0-0.0","0","0","39522","","null","","","null","46","","","","","","","","","","","","","","","",""
"","ITI","","html-keyboard-response","302","323592","0.0-1.0-423.0","0","0","39522","","null","","","null","46","","","","","","","","","","","","","","","NaN",""
"","S1","","html-keyboard-response","303","323844","0.0-1.0-425.0","0","0","39522","","null","","","null","47","","","","","","","","","","","","","","","",""
"","ISI","","html-keyboard-response","304","324847","0.0-1.0-426.0","0","0","39522","","null","","","null","47","NaN","","","","","","","","","","","","","","",""
"","S2","","html-keyboard-response","305","325098","0.0-1.0-427.0","0","0","39522","","null","","","null","47","","NaN","","","","","","","","","","","","","",""
"","response","","html-keyboard-response","306","326386","0.0-1.0-428.0-0.0","0","0","39522","","1286","","","68","47","","","1","47","training","adjacent","EF","5","6","N.jpg","R.jpg","1","1","1","",""
"","feedback","","html-keyboard-response","307","327389","0.0-1.0-429.0-0.0","0","0","39522","","null","","","null","47","","","","","","","","","","","","","","","",""
"","ITI","","html-keyboard-response","308","328391","0.0-1.0-432.0","0","0","39522","","null","","","null","47","","","","","","","","","","","","","","","NaN",""
"","block_over","","html-keyboard-response","309","330059","0.0-1.0-433.0-0.0","0","0","39522","","1667","","","32","47","","","","","","","","","","","","","","","",""
"","S1","","html-keyboard-response","310","330311","0.0-1.0-434.0","0","0","39522","","null","","","null","48","","","","","","","","","","","","","","","",""
"","ISI","","html-keyboard-response","311","331314","0.0-1.0-435.0","0","0","39522","","null","","","null","48","NaN","","","","","","","","","","","","","","",""
"","S2","","html-keyboard-response","312","331566","0.0-1.0-436.0","0","0","39522","","null","","","null","48","","NaN","","","","","","","","","","","","","",""
"","response","","html-keyboard-response","313","332728","0.0-1.0-437.0-0.0","0","0","39522","","1160","","","68","48","","","2","48","training","adjacent","BC","2","3","M.jpg","O.jpg","1","1","1","",""
"","feedback","","html-keyboard-response","314","333731","0.0-1.0-438.0-0.0","0","0","39522","","null","","","null","48","","","","","","","","","","","","","","","",""
"","ITI","","html-keyboard-response","315","334733","0.0-1.0-441.0","0","0","39522","","null","","","null","48","","","","","","","","","","","","","","","NaN",""
"","S1","","html-keyboard-response","316","334986","0.0-1.0-443.0","0","0","39522","","null","","","null","49","","","","","","","","","","","","","","","",""
"","ISI","","html-keyboard-response","317","335989","0.0-1.0-444.0","0","0","39522","","null","","","null","49","NaN","","","","","","","","","","","","","","",""
"","S2","","html-keyboard-response","318","336241","0.0-1.0-445.0","0","0","39522","","null","","","null","49","","NaN","","","","","","","","","","","","","",""
"","response","","html-keyboard-response","319","337094","0.0-1.0-446.0-0.0","0","0","39522","","852","","","68","49","","","2","49","training","adjacent","BC","2","3","M.jpg","O.jpg","1","1","1","",""
"","feedback","","html-keyboard-response","320","338097","0.0-1.0-447.0-0.0","0","0","39522","","null","","","null","49","","","","","","","","","","","","","","","",""
"","ITI","","html-keyboard-response","321","339100","0.0-1.0-450.0","0","0","39522","","null","","","null","49","","","","","","","","","","","","","","","NaN",""
"","S1","","html-keyboard-response","322","339353","0.0-1.0-452.0","0","0","39522","","null","","","null","50","","","","","","","","","","","","","","","",""
"","ISI","","html-keyboard-response","323","340355","0.0-1.0-453.0","0","0","39522","","null","","","null","50","NaN","","","","","","","","","","","","","","",""
"","S2","","html-keyboard-response","324","340608","0.0-1.0-454.0","0","0","39522","","null","","","null","50","","NaN","","","","","","","","","","","","","",""
"","response","","html-keyboard-response","325","342161","0.0-1.0-455.0-0.0","0","0","39522","","1552","","","68","50","","","2","50","training","adjacent","AB","1","2","Q.jpg","M.jpg","1","1","1","",""
"","feedback","","html-keyboard-response","326","343163","0.0-1.0-456.0-0.0","0","0","39522","","null","","","null","50","","","","","","","","","","","","","","","",""
"","ITI","","html-keyboard-response","327","344165","0.0-1.0-459.0","0","0","39522","","null","","","null","50","","","","","","","","","","","","","","","NaN",""
"","S1","","html-keyboard-response","328","344418","0.0-1.0-461.0","0","0","39522","","null","","","null","51","","","","","","","","","","","","","","","",""
"","ISI","","html-keyboard-response","329","345421","0.0-1.0-462.0","0","0","39522","","null","","","null","51","NaN","","","","","","","","","","","","","","",""
"","S2","","html-keyboard-response","330","345674","0.0-1.0-463.0","0","0","39522","","null","","","null","51","","NaN","","","","","","","","","","","","","",""
"","response","","html-keyboard-response","331","346947","0.0-1.0-464.0-0.0","0","0","39522","","1272","","","68","51","","","2","51","training","adjacent","DE","4","5","L.jpg","N.jpg","1","1","1","",""
"","feedback","","html-keyboard-response","332","347950","0.0-1.0-465.0-0.0","0","0","39522","","null","","","null","51","","","","","","","","","","","","","","","",""
"","ITI","","html-keyboard-response","333","348953","0.0-1.0-468.0","0","0","39522","","null","","","null","51","","","","","","","","","","","","","","","NaN",""
"","S1","","html-keyboard-response","334","349205","0.0-1.0-470.0","0","0","39522","","null","","","null","52","","","","","","","","","","","","","","","",""
"","ISI","","html-keyboard-response","335","350207","0.0-1.0-471.0","0","0","39522","","null","","","null","52","NaN","","","","","","","","","","","","","","",""
"","S2","","html-keyboard-response","336","350460","0.0-1.0-472.0","0","0","39522","","null","","","null","52","","NaN","","","","","","","","","","","","","",""
"","response","","html-keyboard-response","337","350874","0.0-1.0-473.0-0.0","0","0","39522","","406","","","68","52","","","2","52","training","adjacent","DE","4","5","L.jpg","N.jpg","1","1","1","",""
"","feedback","","html-keyboard-response","338","351876","0.0-1.0-474.0-0.0","0","0","39522","","null","","","null","52","","","","","","","","","","","","","","","",""
"","ITI","","html-keyboard-response","339","352879","0.0-1.0-477.0","0","0","39522","","null","","","null","52","","","","","","","","","","","","","","","NaN",""
"","S1","","html-keyboard-response","340","353137","0.0-1.0-479.0","0","0","39522","","null","","","null","53","","","","","","","","","","","","","","","",""
"","ISI","","html-keyboard-response","341","354139","0.0-1.0-480.0","0","0","39522","","null","","","null","53","NaN","","","","","","","","","","","","","","",""
"","S2","","html-keyboard-response","342","354392","0.0-1.0-481.0","0","0","39522","","null","","","null","53","","NaN","","","","","","","","","","","","","",""
"","response","","html-keyboard-response","343","355088","0.0-1.0-482.0-0.0","0","0","39522","","695","","","75","53","","","2","53","training","adjacent","BA","2","1","M.jpg","Q.jpg","0","0","1","",""
"","feedback","","html-keyboard-response","344","356091","0.0-1.0-483.0-0.0","0","0","39522","","null","","","null","53","","","","","","","","","","","","","","","",""
"","ITI","","html-keyboard-response","345","357093","0.0-1.0-486.0","0","0","39522","","null","","","null","53","","","","","","","","","","","","","","","NaN",""
"","S1","","html-keyboard-response","346","357347","0.0-1.0-488.0","0","0","39522","","null","","","null","54","","","","","","","","","","","","","","","",""
"","ISI","","html-keyboard-response","347","358349","0.0-1.0-489.0","0","0","39522","","null","","","null","54","NaN","","","","","","","","","","","","","","",""
"","S2","","html-keyboard-response","348","358601","0.0-1.0-490.0","0","0","39522","","null","","","null","54","","NaN","","","","","","","","","","","","","",""
"","response","","html-keyboard-response","349","359362","0.0-1.0-491.0-0.0","0","0","39522","","760","","","75","54","","","2","54","training","adjacent","BA","2","1","M.jpg","Q.jpg","0","0","1","",""
"","feedback","","html-keyboard-response","350","360365","0.0-1.0-492.0-0.0","0","0","39522","","null","","","null","54","","","","","","","","","","","","","","","",""
"","ITI","","html-keyboard-response","351","361368","0.0-1.0-495.0","0","0","39522","","null","","","null","54","","","","","","","","","","","","","","","NaN",""
"","S1","","html-keyboard-response","352","361620","0.0-1.0-497.0","0","0","39522","","null","","","null","55","","","","","","","","","","","","","","","",""
"","ISI","","html-keyboard-response","353","362633","0.0-1.0-498.0","0","0","39522","","null","","","null","55","NaN","","","","","","","","","","","","","","",""
"","S2","","html-keyboard-response","354","362886","0.0-1.0-499.0","0","0","39522","","null","","","null","55","","NaN","","","","","","","","","","","","","",""
"","response","","html-keyboard-response","355","364333","0.0-1.0-500.0-0.0","0","0","39522","","1447","","","68","55","","","2","55","training","adjacent","FG","6","7","R.jpg","P.jpg","1","1","1","",""
"","feedback","","html-keyboard-response","356","365336","0.0-1.0-501.0-0.0","0","0","39522","","null","","","null","55","","","","","","","","","","","","","","","",""
"","ITI","","html-keyboard-response","357","366339","0.0-1.0-504.0","0","0","39522","","null","","","null","55","","","","","","","","","","","","","","","NaN",""
"","S1","","html-keyboard-response","358","366591","0.0-1.0-506.0","0","0","39522","","null","","","null","56","","","","","","","","","","","","","","","",""
"","ISI","","html-keyboard-response","359","367594","0.0-1.0-507.0","0","0","39522","","null","","","null","56","NaN","","","","","","","","","","","","","","",""
"","S2","","html-keyboard-response","360","367847","0.0-1.0-508.0","0","0","39522","","null","","","null","56","","NaN","","","","","","","","","","","","","",""
"","response","","html-keyboard-response","361","368490","0.0-1.0-509.0-0.0","0","0","39522","","642","","","75","56","","","2","56","training","adjacent","DC","4","3","L.jpg","O.jpg","0","0","1","",""
"","feedback","","html-keyboard-response","362","369492","0.0-1.0-510.0-0.0","0","0","39522","","null","","","null","56","","","","","","","","","","","","","","","",""
"","ITI","","html-keyboard-response","363","370495","0.0-1.0-513.0","0","0","39522","","null","","","null","56","","","","","","","","","","","","","","","NaN",""
"","S1","","html-keyboard-response","364","370748","0.0-1.0-515.0","0","0","39522","","null","","","null","57","","","","","","","","","","","","","","","",""
"","ISI","","html-keyboard-response","365","371750","0.0-1.0-516.0","0","0","39522","","null","","","null","57","NaN","","","","","","","","","","","","","","",""
"","S2","","html-keyboard-response","366","372003","0.0-1.0-517.0","0","0","39522","","null","","","null","57","","NaN","","","","","","","","","","","","","",""
"","response","","html-keyboard-response","367","372333","0.0-1.0-518.0-0.0","0","0","39522","","328","","","75","57","","","2","57","training","adjacent","ED","5","4","N.jpg","L.jpg","0","0","1","",""
"","feedback","","html-keyboard-response","368","373337","0.0-1.0-519.0-0.0","0","0","39522","","null","","","null","57","","","","","","","","","","","","","","","",""
"","ITI","","html-keyboard-response","369","374339","0.0-1.0-522.0","0","0","39522","","null","","","null","57","","","","","","","","","","","","","","","NaN",""
"","S1","","html-keyboard-response","370","374592","0.0-1.0-524.0","0","0","39522","","null","","","null","58","","","","","","","","","","","","","","","",""
"","ISI","","html-keyboard-response","371","375595","0.0-1.0-525.0","0","0","39522","","null","","","null","58","NaN","","","","","","","","","","","","","","",""
"","S2","","html-keyboard-response","372","375847","0.0-1.0-526.0","0","0","39522","","null","","","null","58","","NaN","","","","","","","","","","","","","",""
"","response","","html-keyboard-response","373","376784","0.0-1.0-527.0-0.0","0","0","39522","","935","","","68","58","","","2","58","training","adjacent","FG","6","7","R.jpg","P.jpg","1","1","1","",""
"","feedback","","html-keyboard-response","374","377788","0.0-1.0-528.0-0.0","0","0","39522","","null","","","null","58","","","","","","","","","","","","","","","",""
"","ITI","","html-keyboard-response","375","378790","0.0-1.0-531.0","0","0","39522","","null","","","null","58","","","","","","","","","","","","","","","NaN",""
"","S1","","html-keyboard-response","376","379043","0.0-1.0-533.0","0","0","39522","","null","","","null","59","","","","","","","","","","","","","","","",""
"","ISI","","html-keyboard-response","377","380045","0.0-1.0-534.0","0","0","39522","","null","","","null","59","NaN","","","","","","","","","","","","","","",""
"","S2","","html-keyboard-response","378","380297","0.0-1.0-535.0","0","0","39522","","null","","","null","59","","NaN","","","","","","","","","","","","","",""
"","response","","html-keyboard-response","379","381681","0.0-1.0-536.0-0.0","0","0","39522","","1382","","","75","59","","","2","59","training","adjacent","DC","4","3","L.jpg","O.jpg","0","0","1","",""
"","feedback","","html-keyboard-response","380","382684","0.0-1.0-537.0-0.0","0","0","39522","","null","","","null","59","","","","","","","","","","","","","","","",""
"","ITI","","html-keyboard-response","381","383686","0.0-1.0-540.0","0","0","39522","","null","","","null","59","","","","","","","","","","","","","","","NaN",""
"","S1","","html-keyboard-response","382","383938","0.0-1.0-542.0","0","0","39522","","null","","","null","60","","","","","","","","","","","","","","","",""
"","ISI","","html-keyboard-response","383","384941","0.0-1.0-543.0","0","0","39522","","null","","","null","60","NaN","","","","","","","","","","","","","","",""
"","S2","","html-keyboard-response","384","385193","0.0-1.0-544.0","0","0","39522","","null","","","null","60","","NaN","","","","","","","","","","","","","",""
"","response","","html-keyboard-response","385","386280","0.0-1.0-545.0-0.0","0","0","39522","","1086","","","68","60","","","2","60","training","adjacent","EF","5","6","N.jpg","R.jpg","1","1","1","",""
"","feedback","","html-keyboard-response","386","387283","0.0-1.0-546.0-0.0","0","0","39522","","null","","","null","60","","","","","","","","","","","","","","","",""
"","ITI","","html-keyboard-response","387","388284","0.0-1.0-549.0","0","0","39522","","null","","","null","60","","","","","","","","","","","","","","","NaN",""
"","S1","","html-keyboard-response","388","388538","0.0-1.0-551.0","0","0","39522","","null","","","null","61","","","","","","","","","","","","","","","",""
"","ISI","","html-keyboard-response","389","389541","0.0-1.0-552.0","0","0","39522","","null","","","null","61","NaN","","","","","","","","","","","","","","",""
"","S2","","html-keyboard-response","390","389794","0.0-1.0-553.0","0","0","39522","","null","","","null","61","","NaN","","","","","","","","","","","","","",""
"","response","","html-keyboard-response","391","391249","0.0-1.0-554.0-0.0","0","0","39522","","1454","","","75","61","","","2","61","training","adjacent","FE","6","5","R.jpg","N.jpg","0","0","1","",""
"","feedback","","html-keyboard-response","392","392251","0.0-1.0-555.0-0.0","0","0","39522","","null","","","null","61","","","","","","","","","","","","","","","",""
"","ITI","","html-keyboard-response","393","393253","0.0-1.0-558.0","0","0","39522","","null","","","null","61","","","","","","","","","","","","","","","NaN",""
"","S1","","html-keyboard-response","394","393506","0.0-1.0-560.0","0","0","39522","","null","","","null","62","","","","","","","","","","","","","","","",""
"","ISI","","html-keyboard-response","395","394509","0.0-1.0-561.0","0","0","39522","","null","","","null","62","NaN","","","","","","","","","","","","","","",""
"","S2","","html-keyboard-response","396","394762","0.0-1.0-562.0","0","0","39522","","null","","","null","62","","NaN","","","","","","","","","","","","","",""
"","response","","html-keyboard-response","397","395974","0.0-1.0-563.0-0.0","0","0","39522","","1212","","","75","62","","","2","62","training","adjacent","CB","3","2","O.jpg","M.jpg","0","0","1","",""
"","feedback","","html-keyboard-response","398","396977","0.0-1.0-564.0-0.0","0","0","39522","","null","","","null","62","","","","","","","","","","","","","","","",""
"","ITI","","html-keyboard-response","399","397980","0.0-1.0-567.0","0","0","39522","","null","","","null","62","","","","","","","","","","","","","","","NaN",""
"","S1","","html-keyboard-response","400","398232","0.0-1.0-569.0","0","0","39522","","null","","","null","63","","","","","","","","","","","","","","","",""
"","ISI","","html-keyboard-response","401","399235","0.0-1.0-570.0","0","0","39522","","null","","","null","63","NaN","","","","","","","","","","","","","","",""
"","S2","","html-keyboard-response","402","399488","0.0-1.0-571.0","0","0","39522","","null","","","null","63","","NaN","","","","","","","","","","","","","",""
"","response","","html-keyboard-response","403","400090","0.0-1.0-572.0-0.0","0","0","39522","","601","","","75","63","","","2","63","training","adjacent","BA","2","1","M.jpg","Q.jpg","0","0","1","",""
"","feedback","","html-keyboard-response","404","401092","0.0-1.0-573.0-0.0","0","0","39522","","null","","","null","63","","","","","","","","","","","","","","","",""
"","ITI","","html-keyboard-response","405","402095","0.0-1.0-576.0","0","0","39522","","null","","","null","63","","","","","","","","","","","","","","","NaN",""
"","S1","","html-keyboard-response","406","402347","0.0-1.0-578.0","0","0","39522","","null","","","null","64","","","","","","","","","","","","","","","",""
"","ISI","","html-keyboard-response","407","403350","0.0-1.0-579.0","0","0","39522","","null","","","null","64","NaN","","","","","","","","","","","","","","",""
"","S2","","html-keyboard-response","408","403601","0.0-1.0-580.0","0","0","39522","","null","","","null","64","","NaN","","","","","","","","","","","","","",""
"","response","","html-keyboard-response","409","404827","0.0-1.0-581.0-0.0","0","0","39522","","1224","","","75","64","","","2","64","training","adjacent","FE","6","5","R.jpg","N.jpg","0","0","1","",""
"","feedback","","html-keyboard-response","410","405830","0.0-1.0-582.0-0.0","0","0","39522","","null","","","null","64","","","","","","","","","","","","","","","",""
"","ITI","","html-keyboard-response","411","406833","0.0-1.0-585.0","0","0","39522","","null","","","null","64","","","","","","","","","","","","","","","NaN",""
"","S1","","html-keyboard-response","412","407086","0.0-1.0-587.0","0","0","39522","","null","","","null","65","","","","","","","","","","","","","","","",""
"","ISI","","html-keyboard-response","413","408088","0.0-1.0-588.0","0","0","39522","","null","","","null","65","NaN","","","","","","","","","","","","","","",""
"","S2","","html-keyboard-response","414","408340","0.0-1.0-589.0","0","0","39522","","null","","","null","65","","NaN","","","","","","","","","","","","","",""
"","response","","html-keyboard-response","415","409982","0.0-1.0-590.0-0.0","0","0","39522","","1641","","","68","65","","","2","65","training","adjacent","BC","2","3","M.jpg","O.jpg","1","1","1","",""
"","feedback","","html-keyboard-response","416","410985","0.0-1.0-591.0-0.0","0","0","39522","","null","","","null","65","","","","","","","","","","","","","","","",""
"","ITI","","html-keyboard-response","417","411988","0.0-1.0-594.0","0","0","39522","","null","","","null","65","","","","","","","","","","","","","","","NaN",""
"","S1","","html-keyboard-response","418","412240","0.0-1.0-596.0","0","0","39522","","null","","","null","66","","","","","","","","","","","","","","","",""
"","ISI","","html-keyboard-response","419","413242","0.0-1.0-597.0","0","0","39522","","null","","","null","66","NaN","","","","","","","","","","","","","","",""
"","S2","","html-keyboard-response","420","413495","0.0-1.0-598.0","0","0","39522","","null","","","null","66","","NaN","","","","","","","","","","","","","",""
"","response","","html-keyboard-response","421","414119","0.0-1.0-599.0-0.0","0","0","39522","","623","","","75","66","","","2","66","training","adjacent","ED","5","4","N.jpg","L.jpg","0","0","1","",""
"","feedback","","html-keyboard-response","422","415122","0.0-1.0-600.0-0.0","0","0","39522","","null","","","null","66","","","","","","","","","","","","","","","",""
"","ITI","","html-keyboard-response","423","416125","0.0-1.0-603.0","0","0","39522","","null","","","null","66","","","","","","","","","","","","","","","NaN",""
"","S1","","html-keyboard-response","424","416377","0.0-1.0-605.0","0","0","39522","","null","","","null","67","","","","","","","","","","","","","","","",""
"","ISI","","html-keyboard-response","425","417380","0.0-1.0-606.0","0","0","39522","","null","","","null","67","NaN","","","","","","","","","","","","","","",""
"","S2","","html-keyboard-response","426","417633","0.0-1.0-607.0","0","0","39522","","null","","","null","67","","NaN","","","","","","","","","","","","","",""
"","response","","html-keyboard-response","427","418230","0.0-1.0-608.0-0.0","0","0","39522","","596","","","68","67","","","2","67","training","adjacent","FG","6","7","R.jpg","P.jpg","1","1","1","",""
"","feedback","","html-keyboard-response","428","419232","0.0-1.0-609.0-0.0","0","0","39522","","null","","","null","67","","","","","","","","","","","","","","","",""
"","ITI","","html-keyboard-response","429","420234","0.0-1.0-612.0","0","0","39522","","null","","","null","67","","","","","","","","","","","","","","","NaN",""
"","S1","","html-keyboard-response","430","420487","0.0-1.0-614.0","0","0","39522","","null","","","null","68","","","","","","","","","","","","","","","",""
"","ISI","","html-keyboard-response","431","421490","0.0-1.0-615.0","0","0","39522","","null","","","null","68","NaN","","","","","","","","","","","","","","",""
"","S2","","html-keyboard-response","432","421743","0.0-1.0-616.0","0","0","39522","","null","","","null","68","","NaN","","","","","","","","","","","","","",""
"","response","","html-keyboard-response","433","421751","0.0-1.0-617.0-0.0","0","0","39522","","6","","","68","68","","","2","68","training","adjacent","AB","1","2","Q.jpg","M.jpg","1","1","1","",""
"","feedback","","html-keyboard-response","434","422753","0.0-1.0-618.0-0.0","0","0","39522","","null","","","null","68","","","","","","","","","","","","","","","",""
"","ITI","","html-keyboard-response","435","423756","0.0-1.0-621.0","0","0","39522","","null","","","null","68","","","","","","","","","","","","","","","NaN",""
"","S1","","html-keyboard-response","436","424010","0.0-1.0-623.0","0","0","39522","","null","","","null","69","","","","","","","","","","","","","","","",""
"","ISI","","html-keyboard-response","437","425012","0.0-1.0-624.0","0","0","39522","","null","","","null","69","NaN","","","","","","","","","","","","","","",""
"","S2","","html-keyboard-response","438","425265","0.0-1.0-625.0","0","0","39522","","null","","","null","69","","NaN","","","","","","","","","","","","","",""
"","response","","html-keyboard-response","439","426617","0.0-1.0-626.0-0.0","0","0","39522","","1350","","","75","69","","","2","69","training","adjacent","FE","6","5","R.jpg","N.jpg","0","0","1","",""
"","feedback","","html-keyboard-response","440","427620","0.0-1.0-627.0-0.0","0","0","39522","","null","","","null","69","","","","","","","","","","","","","","","",""
"","ITI","","html-keyboard-response","441","428622","0.0-1.0-630.0","0","0","39522","","null","","","null","69","","","","","","","","","","","","","","","NaN",""
"","S1","","html-keyboard-response","442","428875","0.0-1.0-632.0","0","0","39522","","null","","","null","70","","","","","","","","","","","","","","","",""
"","ISI","","html-keyboard-response","443","429877","0.0-1.0-633.0","0","0","39522","","null","","","null","70","NaN","","","","","","","","","","","","","","",""
"","S2","","html-keyboard-response","444","430130","0.0-1.0-634.0","0","0","39522","","null","","","null","70","","NaN","","","","","","","","","","","","","",""
"","response","","html-keyboard-response","445","431801","0.0-1.0-635.0-0.0","0","0","39522","","1669","","","75","70","","","2","70","training","adjacent","DC","4","3","L.jpg","O.jpg","0","0","1","",""
"","feedback","","html-keyboard-response","446","432804","0.0-1.0-636.0-0.0","0","0","39522","","null","","","null","70","","","","","","","","","","","","","","","",""
"","ITI","","html-keyboard-response","447","433807","0.0-1.0-639.0","0","0","39522","","null","","","null","70","","","","","","","","","","","","","","","NaN",""
"","S1","","html-keyboard-response","448","434074","0.0-1.0-641.0","0","0","39522","","null","","","null","71","","","","","","","","","","","","","","","",""
"","ISI","","html-keyboard-response","449","435077","0.0-1.0-642.0","0","0","39522","","null","","","null","71","NaN","","","","","","","","","","","","","","",""
"","S2","","html-keyboard-response","450","435330","0.0-1.0-643.0","0","0","39522","","null","","","null","71","","NaN","","","","","","","","","","","","","",""
"","response","","html-keyboard-response","451","435922","0.0-1.0-644.0-0.0","0","0","39522","","591","","","75","71","","","2","71","training","adjacent","ED","5","4","N.jpg","L.jpg","0","0","1","",""
"","feedback","","html-keyboard-response","452","436924","0.0-1.0-645.0-0.0","0","0","39522","","null","","","null","71","","","","","","","","","","","","","","","",""
"","ITI","","html-keyboard-response","453","437927","0.0-1.0-648.0","0","0","39522","","null","","","null","71","","","","","","","","","","","","","","","NaN",""
"","S1","","html-keyboard-response","454","438180","0.0-1.0-650.0","0","0","39522","","null","","","null","72","","","","","","","","","","","","","","","",""
"","ISI","","html-keyboard-response","455","439183","0.0-1.0-651.0","0","0","39522","","null","","","null","72","NaN","","","","","","","","","","","","","","",""
"","S2","","html-keyboard-response","456","439435","0.0-1.0-652.0","0","0","39522","","null","","","null","72","","NaN","","","","","","","","","","","","","",""
"","response","","html-keyboard-response","457","440336","0.0-1.0-653.0-0.0","0","0","39522","","899","","","75","72","","","2","72","training","adjacent","CB","3","2","O.jpg","M.jpg","0","0","1","",""
"","feedback","","html-keyboard-response","458","441338","0.0-1.0-654.0-0.0","0","0","39522","","null","","","null","72","","","","","","","","","","","","","","","",""
"","ITI","","html-keyboard-response","459","442340","0.0-1.0-657.0","0","0","39522","","null","","","null","72","","","","","","","","","","","","","","","NaN",""
"","S1","","html-keyboard-response","460","442593","0.0-1.0-659.0","0","0","39522","","null","","","null","73","","","","","","","","","","","","","","","",""
"","ISI","","html-keyboard-response","461","443596","0.0-1.0-660.0","0","0","39522","","null","","","null","73","NaN","","","","","","","","","","","","","","",""
"","S2","","html-keyboard-response","462","443848","0.0-1.0-661.0","0","0","39522","","null","","","null","73","","NaN","","","","","","","","","","","","","",""
"","response","","html-keyboard-response","463","444216","0.0-1.0-662.0-0.0","0","0","39522","","367","","","75","73","","","2","73","training","adjacent","CD","3","4","O.jpg","L.jpg","0","1","0","",""
"","feedback","","html-keyboard-response","464","445219","0.0-1.0-663.0-0.0","0","0","39522","","null","","","null","73","","","","","","","","","","","","","","","",""
"","time_out","","html-keyboard-response","465","447221","0.0-1.0-665.0-0.0","0","0","39522","","null","","","null","73","","","","","","","","","","","","","","","",""
"","ITI","","html-keyboard-response","466","448224","0.0-1.0-666.0","0","0","39522","","null","","","null","73","","","","","","","","","","","","","","","NaN",""
"","S1","","html-keyboard-response","467","448477","0.0-1.0-668.0","0","0","39522","","null","","","null","74","","","","","","","","","","","","","","","",""
"","ISI","","html-keyboard-response","468","449480","0.0-1.0-669.0","0","0","39522","","null","","","null","74","NaN","","","","","","","","","","","","","","",""
"","S2","","html-keyboard-response","469","449733","0.0-1.0-670.0","0","0","39522","","null","","","null","74","","NaN","","","","","","","","","","","","","",""
"","response","","html-keyboard-response","470","450116","0.0-1.0-671.0-0.0","0","0","39522","","382","","","68","74","","","2","74","training","adjacent","CD","3","4","O.jpg","L.jpg","1","1","1","",""
"","feedback","","html-keyboard-response","471","451119","0.0-1.0-672.0-0.0","0","0","39522","","null","","","null","74","","","","","","","","","","","","","","","",""
"","ITI","","html-keyboard-response","472","452122","0.0-1.0-675.0","0","0","39522","","null","","","null","74","","","","","","","","","","","","","","","NaN",""
"","S1","","html-keyboard-response","473","452375","0.0-1.0-677.0","0","0","39522","","null","","","null","75","","","","","","","","","","","","","","","",""
"","ISI","","html-keyboard-response","474","453378","0.0-1.0-678.0","0","0","39522","","null","","","null","75","NaN","","","","","","","","","","","","","","",""
"","S2","","html-keyboard-response","475","453631","0.0-1.0-679.0","0","0","39522","","null","","","null","75","","NaN","","","","","","","","","","","","","",""
"","response","","html-keyboard-response","476","454203","0.0-1.0-680.0-0.0","0","0","39522","","571","","","68","75","","","2","75","training","adjacent","BC","2","3","M.jpg","O.jpg","1","1","1","",""
"","feedback","","html-keyboard-response","477","455205","0.0-1.0-681.0-0.0","0","0","39522","","null","","","null","75","","","","","","","","","","","","","","","",""
"","ITI","","html-keyboard-response","478","456209","0.0-1.0-684.0","0","0","39522","","null","","","null","75","","","","","","","","","","","","","","","NaN",""
"","S1","","html-keyboard-response","479","456461","0.0-1.0-686.0","0","0","39522","","null","","","null","76","","","","","","","","","","","","","","","",""
"","ISI","","html-keyboard-response","480","457464","0.0-1.0-687.0","0","0","39522","","null","","","null","76","NaN","","","","","","","","","","","","","","",""
"","S2","","html-keyboard-response","481","457717","0.0-1.0-688.0","0","0","39522","","null","","","null","76","","NaN","","","","","","","","","","","","","",""
"","response","","html-keyboard-response","482","458980","0.0-1.0-689.0-0.0","0","0","39522","","1262","","","75","76","","","2","76","training","adjacent","DC","4","3","L.jpg","O.jpg","0","0","1","",""
"","feedback","","html-keyboard-response","483","459983","0.0-1.0-690.0-0.0","0","0","39522","","null","","","null","76","","","","","","","","","","","","","","","",""
"","ITI","","html-keyboard-response","484","460985","0.0-1.0-693.0","0","0","39522","","null","","","null","76","","","","","","","","","","","","","","","NaN",""
"","S1","","html-keyboard-response","485","461238","0.0-1.0-695.0","0","0","39522","","null","","","null","77","","","","","","","","","","","","","","","",""
"","ISI","","html-keyboard-response","486","462240","0.0-1.0-696.0","0","0","39522","","null","","","null","77","NaN","","","","","","","","","","","","","","",""
"","S2","","html-keyboard-response","487","462492","0.0-1.0-697.0","0","0","39522","","null","","","null","77","","NaN","","","","","","","","","","","","","",""
"","response","","html-keyboard-response","488","463754","0.0-1.0-698.0-0.0","0","0","39522","","1261","","","68","77","","","2","77","training","adjacent","EF","5","6","N.jpg","R.jpg","1","1","1","",""
"","feedback","","html-keyboard-response","489","464757","0.0-1.0-699.0-0.0","0","0","39522","","null","","","null","77","","","","","","","","","","","","","","","",""
"","ITI","","html-keyboard-response","490","465760","0.0-1.0-702.0","0","0","39522","","null","","","null","77","","","","","","","","","","","","","","","NaN",""
"","S1","","html-keyboard-response","491","466013","0.0-1.0-704.0","0","0","39522","","null","","","null","78","","","","","","","","","","","","","","","",""
"","ISI","","html-keyboard-response","492","467016","0.0-1.0-705.0","0","0","39522","","null","","","null","78","NaN","","","","","","","","","","","","","","",""
"","S2","","html-keyboard-response","493","467268","0.0-1.0-706.0","0","0","39522","","null","","","null","78","","NaN","","","","","","","","","","","","","",""
"","response","","html-keyboard-response","494","467896","0.0-1.0-707.0-0.0","0","0","39522","","625","","","68","78","","","2","78","training","adjacent","FG","6","7","R.jpg","P.jpg","1","1","1","",""
"","feedback","","html-keyboard-response","495","468898","0.0-1.0-708.0-0.0","0","0","39522","","null","","","null","78","","","","","","","","","","","","","","","",""
"","ITI","","html-keyboard-response","496","469901","0.0-1.0-711.0","0","0","39522","","null","","","null","78","","","","","","","","","","","","","","","NaN",""
"","S1","","html-keyboard-response","497","470154","0.0-1.0-713.0","0","0","39522","","null","","","null","79","","","","","","","","","","","","","","","",""
"","ISI","","html-keyboard-response","498","471155","0.0-1.0-714.0","0","0","39522","","null","","","null","79","NaN","","","","","","","","","","","","","","",""
"","S2","","html-keyboard-response","499","471408","0.0-1.0-715.0","0","0","39522","","null","","","null","79","","NaN","","","","","","","","","","","","","",""
"","response","","html-keyboard-response","500","472343","0.0-1.0-716.0-0.0","0","0","39522","","933","","","75","79","","","2","79","training","adjacent","CD","3","4","O.jpg","L.jpg","0","1","0","",""
"","feedback","","html-keyboard-response","501","473346","0.0-1.0-717.0-0.0","0","0","39522","","null","","","null","79","","","","","","","","","","","","","","","",""
"","time_out","","html-keyboard-response","502","475350","0.0-1.0-719.0-0.0","0","0","39522","","null","","","null","79","","","","","","","","","","","","","","","",""
"","ITI","","html-keyboard-response","503","476353","0.0-1.0-720.0","0","0","39522","","null","","","null","79","","","","","","","","","","","","","","","NaN",""
"","S1","","html-keyboard-response","504","476606","0.0-1.0-722.0","0","0","39522","","null","","","null","80","","","","","","","","","","","","","","","",""
"","ISI","","html-keyboard-response","505","477608","0.0-1.0-723.0","0","0","39522","","null","","","null","80","NaN","","","","","","","","","","","","","","",""
"","S2","","html-keyboard-response","506","477861","0.0-1.0-724.0","0","0","39522","","null","","","null","80","","NaN","","","","","","","","","","","","","",""
"","response","","html-keyboard-response","507","478173","0.0-1.0-725.0-0.0","0","0","39522","","311","","","68","80","","","2","80","training","adjacent","EF","5","6","N.jpg","R.jpg","1","1","1","",""
"","feedback","","html-keyboard-response","508","479176","0.0-1.0-726.0-0.0","0","0","39522","","null","","","null","80","","","","","","","","","","","","","","","",""
"","ITI","","html-keyboard-response","509","480179","0.0-1.0-729.0","0","0","39522","","null","","","null","80","","","","","","","","","","","","","","","NaN",""
"","S1","","html-keyboard-response","510","480431","0.0-1.0-731.0","0","0","39522","","null","","","null","81","","","","","","","","","","","","","","","",""
"","ISI","","html-keyboard-response","511","481433","0.0-1.0-732.0","0","0","39522","","null","","","null","81","NaN","","","","","","","","","","","","","","",""
"","S2","","html-keyboard-response","512","481686","0.0-1.0-733.0","0","0","39522","","null","","","null","81","","NaN","","","","","","","","","","","","","",""
"","response","","html-keyboard-response","513","482738","0.0-1.0-734.0-0.0","0","0","39522","","1051","","","75","81","","","2","81","training","adjacent","ED","5","4","N.jpg","L.jpg","0","0","1","",""
"","feedback","","html-keyboard-response","514","483751","0.0-1.0-735.0-0.0","0","0","39522","","null","","","null","81","","","","","","","","","","","","","","","",""
"","ITI","","html-keyboard-response","515","484754","0.0-1.0-738.0","0","0","39522","","null","","","null","81","","","","","","","","","","","","","","","NaN",""
"","S1","","html-keyboard-response","516","485007","0.0-1.0-740.0","0","0","39522","","null","","","null","82","","","","","","","","","","","","","","","",""
"","ISI","","html-keyboard-response","517","486009","0.0-1.0-741.0","0","0","39522","","null","","","null","82","NaN","","","","","","","","","","","","","","",""
"","S2","","html-keyboard-response","518","486262","0.0-1.0-742.0","0","0","39522","","null","","","null","82","","NaN","","","","","","","","","","","","","",""
"","response","","html-keyboard-response","519","486548","0.0-1.0-743.0-0.0","0","0","39522","","285","","","68","82","","","2","82","training","adjacent","AB","1","2","Q.jpg","M.jpg","1","1","1","",""
"","feedback","","html-keyboard-response","520","487552","0.0-1.0-744.0-0.0","0","0","39522","","null","","","null","82","","","","","","","","","","","","","","","",""
"","ITI","","html-keyboard-response","521","488555","0.0-1.0-747.0","0","0","39522","","null","","","null","82","","","","","","","","","","","","","","","NaN",""
"","S1","","html-keyboard-response","522","488807","0.0-1.0-749.0","0","0","39522","","null","","","null","83","","","","","","","","","","","","","","","",""
"","ISI","","html-keyboard-response","523","489810","0.0-1.0-750.0","0","0","39522","","null","","","null","83","NaN","","","","","","","","","","","","","","",""
"","S2","","html-keyboard-response","524","490062","0.0-1.0-751.0","0","0","39522","","null","","","null","83","","NaN","","","","","","","","","","","","","",""
"","response","","html-keyboard-response","525","490752","0.0-1.0-752.0-0.0","0","0","39522","","688","","","75","83","","","2","83","training","adjacent","DE","4","5","L.jpg","N.jpg","0","1","0","",""
"","feedback","","html-keyboard-response","526","491755","0.0-1.0-753.0-0.0","0","0","39522","","null","","","null","83","","","","","","","","","","","","","","","",""
"","time_out","","html-keyboard-response","527","493757","0.0-1.0-755.0-0.0","0","0","39522","","null","","","null","83","","","","","","","","","","","","","","","",""
"","ITI","","html-keyboard-response","528","494760","0.0-1.0-756.0","0","0","39522","","null","","","null","83","","","","","","","","","","","","","","","NaN",""
"","S1","","html-keyboard-response","529","495012","0.0-1.0-758.0","0","0","39522","","null","","","null","84","","","","","","","","","","","","","","","",""
"","ISI","","html-keyboard-response","530","496015","0.0-1.0-759.0","0","0","39522","","null","","","null","84","NaN","","","","","","","","","","","","","","",""
"","S2","","html-keyboard-response","531","496268","0.0-1.0-760.0","0","0","39522","","null","","","null","84","","NaN","","","","","","","","","","","","","",""
"","response","","html-keyboard-response","532","497840","0.0-1.0-761.0-0.0","0","0","39522","","1571","","","75","84","","","2","84","training","adjacent","GF","7","6","P.jpg","R.jpg","0","0","1","",""
"","feedback","","html-keyboard-response","533","498842","0.0-1.0-762.0-0.0","0","0","39522","","null","","","null","84","","","","","","","","","","","","","","","",""
"","ITI","","html-keyboard-response","534","499844","0.0-1.0-765.0","0","0","39522","","null","","","null","84","","","","","","","","","","","","","","","NaN",""
"","S1","","html-keyboard-response","535","500097","0.0-1.0-767.0","0","0","39522","","null","","","null","85","","","","","","","","","","","","","","","",""
"","ISI","","html-keyboard-response","536","501100","0.0-1.0-768.0","0","0","39522","","null","","","null","85","NaN","","","","","","","","","","","","","","",""
"","S2","","html-keyboard-response","537","501352","0.0-1.0-769.0","0","0","39522","","null","","","null","85","","NaN","","","","","","","","","","","","","",""
"","response","","html-keyboard-response","538","501815","0.0-1.0-770.0-0.0","0","0","39522","","462","","","75","85","","","2","85","training","adjacent","GF","7","6","P.jpg","R.jpg","0","0","1","",""
"","feedback","","html-keyboard-response","539","502818","0.0-1.0-771.0-0.0","0","0","39522","","null","","","null","85","","","","","","","","","","","","","","","",""
"","ITI","","html-keyboard-response","540","503820","0.0-1.0-774.0","0","0","39522","","null","","","null","85","","","","","","","","","","","","","","","NaN",""
"","S1","","html-keyboard-response","541","504072","0.0-1.0-776.0","0","0","39522","","null","","","null","86","","","","","","","","","","","","","","","",""
"","ISI","","html-keyboard-response","542","505074","0.0-1.0-777.0","0","0","39522","","null","","","null","86","NaN","","","","","","","","","","","","","","",""
"","S2","","html-keyboard-response","543","505328","0.0-1.0-778.0","0","0","39522","","null","","","null","86","","NaN","","","","","","","","","","","","","",""
"","response","","html-keyboard-response","544","505338","0.0-1.0-779.0-0.0","0","0","39522","","9","","","75","86","","","2","86","training","adjacent","GF","7","6","P.jpg","R.jpg","0","0","1","",""
"","feedback","","html-keyboard-response","545","506340","0.0-1.0-780.0-0.0","0","0","39522","","null","","","null","86","","","","","","","","","","","","","","","",""
"","ITI","","html-keyboard-response","546","507343","0.0-1.0-783.0","0","0","39522","","null","","","null","86","","","","","","","","","","","","","","","NaN",""
"","S1","","html-keyboard-response","547","507595","0.0-1.0-785.0","0","0","39522","","null","","","null","87","","","","","","","","","","","","","","","",""
"","ISI","","html-keyboard-response","548","508598","0.0-1.0-786.0","0","0","39522","","null","","","null","87","NaN","","","","","","","","","","","","","","",""
"","S2","","html-keyboard-response","549","508851","0.0-1.0-787.0","0","0","39522","","null","","","null","87","","NaN","","","","","","","","","","","","","",""
"","response","","html-keyboard-response","550","509208","0.0-1.0-788.0-0.0","0","0","39522","","355","","","68","87","","","2","87","training","adjacent","DE","4","5","L.jpg","N.jpg","1","1","1","",""
"","feedback","","html-keyboard-response","551","510210","0.0-1.0-789.0-0.0","0","0","39522","","null","","","null","87","","","","","","","","","","","","","","","",""
"","ITI","","html-keyboard-response","552","511212","0.0-1.0-792.0","0","0","39522","","null","","","null","87","","","","","","","","","","","","","","","NaN",""
"","S1","","html-keyboard-response","553","511465","0.0-1.0-794.0","0","0","39522","","null","","","null","88","","","","","","","","","","","","","","","",""
"","ISI","","html-keyboard-response","554","512467","0.0-1.0-795.0","0","0","39522","","null","","","null","88","NaN","","","","","","","","","","","","","","",""
"","S2","","html-keyboard-response","555","512720","0.0-1.0-796.0","0","0","39522","","null","","","null","88","","NaN","","","","","","","","","","","","","",""
"","response","","html-keyboard-response","556","513249","0.0-1.0-797.0-0.0","0","0","39522","","528","","","75","88","","","2","88","training","adjacent","BA","2","1","M.jpg","Q.jpg","0","0","1","",""
"","feedback","","html-keyboard-response","557","514251","0.0-1.0-798.0-0.0","0","0","39522","","null","","","null","88","","","","","","","","","","","","","","","",""
"","ITI","","html-keyboard-response","558","515253","0.0-1.0-801.0","0","0","39522","","null","","","null","88","","","","","","","","","","","","","","","NaN",""
"","S1","","html-keyboard-response","559","515506","0.0-1.0-803.0","0","0","39522","","null","","","null","89","","","","","","","","","","","","","","","",""
"","ISI","","html-keyboard-response","560","516509","0.0-1.0-804.0","0","0","39522","","null","","","null","89","NaN","","","","","","","","","","","","","","",""
"","S2","","html-keyboard-response","561","516761","0.0-1.0-805.0","0","0","39522","","null","","","null","89","","NaN","","","","","","","","","","","","","",""
"","response","","html-keyboard-response","562","517356","0.0-1.0-806.0-0.0","0","0","39522","","594","","","75","89","","","2","89","training","adjacent","CB","3","2","O.jpg","M.jpg","0","0","1","",""
"","feedback","","html-keyboard-response","563","518359","0.0-1.0-807.0-0.0","0","0","39522","","null","","","null","89","","","","","","","","","","","","","","","",""
"","ITI","","html-keyboard-response","564","519362","0.0-1.0-810.0","0","0","39522","","null","","","null","89","","","","","","","","","","","","","","","NaN",""
"","S1","","html-keyboard-response","565","519615","0.0-1.0-812.0","0","0","39522","","null","","","null","90","","","","","","","","","","","","","","","",""
"","ISI","","html-keyboard-response","566","520617","0.0-1.0-813.0","0","0","39522","","null","","","null","90","NaN","","","","","","","","","","","","","","",""
"","S2","","html-keyboard-response","567","520870","0.0-1.0-814.0","0","0","39522","","null","","","null","90","","NaN","","","","","","","","","","","","","",""
"","response","","html-keyboard-response","568","521170","0.0-1.0-815.0-0.0","0","0","39522","","298","","","68","90","","","2","90","training","adjacent","EF","5","6","N.jpg","R.jpg","1","1","1","",""
"","feedback","","html-keyboard-response","569","522174","0.0-1.0-816.0-0.0","0","0","39522","","null","","","null","90","","","","","","","","","","","","","","","",""
"","ITI","","html-keyboard-response","570","523176","0.0-1.0-819.0","0","0","39522","","null","","","null","90","","","","","","","","","","","","","","","NaN",""
"","S1","","html-keyboard-response","571","523430","0.0-1.0-821.0","0","0","39522","","null","","","null","91","","","","","","","","","","","","","","","",""
"","ISI","","html-keyboard-response","572","524431","0.0-1.0-822.0","0","0","39522","","null","","","null","91","NaN","","","","","","","","","","","","","","",""
"","S2","","html-keyboard-response","573","524683","0.0-1.0-823.0","0","0","39522","","null","","","null","91","","NaN","","","","","","","","","","","","","",""
"","response","","html-keyboard-response","574","525591","0.0-1.0-824.0-0.0","0","0","39522","","906","","","68","91","","","2","91","training","adjacent","CD","3","4","O.jpg","L.jpg","1","1","1","",""
"","feedback","","html-keyboard-response","575","526593","0.0-1.0-825.0-0.0","0","0","39522","","null","","","null","91","","","","","","","","","","","","","","","",""
"","ITI","","html-keyboard-response","576","527596","0.0-1.0-828.0","0","0","39522","","null","","","null","91","","","","","","","","","","","","","","","NaN",""
"","S1","","html-keyboard-response","577","527848","0.0-1.0-830.0","0","0","39522","","null","","","null","92","","","","","","","","","","","","","","","",""
"","ISI","","html-keyboard-response","578","528851","0.0-1.0-831.0","0","0","39522","","null","","","null","92","NaN","","","","","","","","","","","","","","",""
"","S2","","html-keyboard-response","579","529104","0.0-1.0-832.0","0","0","39522","","null","","","null","92","","NaN","","","","","","","","","","","","","",""
"","response","","html-keyboard-response","580","529900","0.0-1.0-833.0-0.0","0","0","39522","","795","","","75","92","","","2","92","training","adjacent","FE","6","5","R.jpg","N.jpg","0","0","1","",""
