"success","ttype","start_time","trial_type","trial_index","time_elapsed","internal_node_id","warning","missed_checkup","PID","view_history","rt","responses","repeat_instructions","key_press","index","keypress_isi","keypress_S2","block","trial_num","phase","group_type","pair_type","S1_stim","S2_stim","S1_img","S2_img","S1_chosen","S1_higher","accuracy","keypress_iti","total_bonus_tally"
"true","full_screen","d08052022hr1515","fullscreen","0","3637","0.0-0.0","0","0","67690","","","","","","","","","","","","","","","","","","","","","",""
"","instructions","","instructions","1","11202","0.0-1.0-0.0-0.0","0","0","67690","[{""page_index"":0,""viewing_time"":1929},{""page_index"":1,""viewing_time"":1849},{""page_index"":2,""viewing_time"":3162},{""page_index"":3,""viewing_time"":623}]","7564","","","","","","","","","","","","","","","","","","","",""
"","comprehension_check","","survey-multi-choice","2","24812","0.0-1.0-0.0-1.0","0","0","67690","","13607","{""Q0"":""True"",""Q1"":""D"",""Q2"":""Only when the screen 'MAKE A CHOICE' is shown"",""Q3"":""Green mark"",""Q4"":""either D or K""}","1","","","","","","","","","","","","","","","","","",""
"","missed_instruction_checkup","","html-keyboard-response","3","25888","0.0-1.0-0.0-2.0-0.0","0","1","67690","","1074","","","32","","","","","","","","","","","","","","","","",""
"","instructions","","instructions","4","32829","0.0-1.0-0.1-0.1","0","0","67690","[{""page_index"":0,""viewing_time"":1519},{""page_index"":1,""viewing_time"":4350},{""page_index"":2,""viewing_time"":611},{""page_index"":3,""viewing_time"":459}]","6939","","","","","","","","","","","","","","","","","","","",""
"","comprehension_check","","survey-multi-choice","5","40719","0.0-1.0-0.1-1.1","0","0","67690","","7887","{""Q0"":""True"",""Q1"":""D"",""Q2"":""Once the second image appears and while the screen 'MAKE A CHOICE' is shown"",""Q3"":""Green mark"",""Q4"":""either D or K""}","0","","","","","","","","","","","","","","","","","",""
"","start_exp","","html-keyboard-response","6","41420","0.0-1.0-1.0","0","0","67690","","699","","","32","","","","","","","","","","","","","","","","",""
"","S1","","html-keyboard-response","7","41677","0.0-1.0-2.0","0","0","67690","","null","","","null","0","","","","","","","","","","","","","","","",""
"","ISI","","html-keyboard-response","8","43681","0.0-1.0-3.0","0","0","67690","","null","","","null","0","NaN","","","","","","","","","","","","","","",""
"","S2","","html-keyboard-response","9","43935","0.0-1.0-4.0","0","0","67690","","null","","","null","0","","NaN","","","","","","","","","","","","","",""
"","response","","html-keyboard-response","10","44076","0.0-1.0-5.0-0.0","0","0","67690","","139","","","75","0","","","1","0","training","adjacent","BA","2","1","R.jpg","Q.jpg","0","0","1","",""
"","feedback","","html-keyboard-response","11","45081","0.0-1.0-6.0-0.0","0","0","67690","","null","","","null","0","","","","","","","","","","","","","","","",""
"","ITI","","html-keyboard-response","12","46086","0.0-1.0-9.0","0","0","67690","","null","","","null","0","","","","","","","","","","","","","","","NaN",""
"","S1","","html-keyboard-response","13","46339","0.0-1.0-11.0","0","0","67690","","null","","","null","1","","","","","","","","","","","","","","","",""
"","ISI","","html-keyboard-response","14","48343","0.0-1.0-12.0","0","0","67690","","175","","","68","1","d","","","","","","","","","","","","","","",""
"","S2","","html-keyboard-response","15","48597","0.0-1.0-13.0","0","0","67690","","null","","","null","1","","NaN","","","","","","","","","","","","","",""
"","response","","html-keyboard-response","16","48799","0.0-1.0-14.0-0.0","0","0","67690","","200","","","68","1","","","1","1","training","adjacent","BA","2","1","R.jpg","Q.jpg","1","0","0","",""
"","feedback","","html-keyboard-response","17","49805","0.0-1.0-15.0-0.0","0","0","67690","","null","","","null","1","","","","","","","","","","","","","","","",""
"","time_out","","html-keyboard-response","18","51809","0.0-1.0-17.0-0.0","0","0","67690","","null","","","null","1","","","","","","","","","","","","","","","",""
"","ITI","","html-keyboard-response","19","52812","0.0-1.0-18.0","0","0","67690","","null","","","null","1","","","","","","","","","","","","","","","NaN",""
"","S1","","html-keyboard-response","20","53065","0.0-1.0-20.0","0","0","67690","","null","","","null","2","","","","","","","","","","","","","","","",""
"","ISI","","html-keyboard-response","21","55071","0.0-1.0-21.0","0","0","67690","","null","","","null","2","NaN","","","","","","","","","","","","","","",""
"","S2","","html-keyboard-response","22","55327","0.0-1.0-22.0","0","0","67690","","null","","","null","2","","NaN","","","","","","","","","","","","","",""
"","response","","html-keyboard-response","23","55932","0.0-1.0-23.0-0.0","0","0","67690","","604","","","75","2","","","1","2","training","adjacent","CD","3","4","M.jpg","O.jpg","0","1","0","",""
"","feedback","","html-keyboard-response","24","56935","0.0-1.0-24.0-0.0","0","0","67690","","null","","","null","2","","","","","","","","","","","","","","","",""
"","time_out","","html-keyboard-response","25","58940","0.0-1.0-26.0-0.0","0","0","67690","","null","","","null","2","","","","","","","","","","","","","","","",""
"","ITI","","html-keyboard-response","26","59945","0.0-1.0-27.0","0","0","67690","","null","","","null","2","","","","","","","","","","","","","","","NaN",""
"","S1","","html-keyboard-response","27","60201","0.0-1.0-29.0","0","0","67690","","null","","","null","3","","","","","","","","","","","","","","","",""
"","ISI","","html-keyboard-response","28","62206","0.0-1.0-30.0","0","0","67690","","null","","","null","3","NaN","","","","","","","","","","","","","","",""
"","S2","","html-keyboard-response","29","62459","0.0-1.0-31.0","0","0","67690","","null","","","null","3","","NaN","","","","","","","","","","","","","",""
"","response","","html-keyboard-response","30","62991","0.0-1.0-32.0-0.0","0","0","67690","","531","","","68","3","","","1","3","training","adjacent","DC","4","3","O.jpg","M.jpg","1","0","0","",""
"","feedback","","html-keyboard-response","31","63997","0.0-1.0-33.0-0.0","0","0","67690","","null","","","null","3","","","","","","","","","","","","","","","",""
"","time_out","","html-keyboard-response","32","66015","0.0-1.0-35.0-0.0","0","0","67690","","null","","","null","3","","","","","","","","","","","","","","","",""
"","ITI","","html-keyboard-response","33","67024","0.0-1.0-36.0","0","0","67690","","null","","","null","3","","","","","","","","","","","","","","","NaN",""
"","S1","","html-keyboard-response","34","67279","0.0-1.0-38.0","0","0","67690","","null","","","null","4","","","","","","","","","","","","","","","",""
"","ISI","","html-keyboard-response","35","69283","0.0-1.0-39.0","0","0","67690","","null","","","null","4","NaN","","","","","","","","","","","","","","",""
"","S2","","html-keyboard-response","36","69542","0.0-1.0-40.0","0","0","67690","","null","","","null","4","","NaN","","","","","","","","","","","","","",""
"","response","","html-keyboard-response","37","69781","0.0-1.0-41.0-0.0","0","0","67690","","235","","","75","4","","","1","4","training","adjacent","FG","6","7","N.jpg","L.jpg","0","1","0","",""
"","feedback","","html-keyboard-response","38","70796","0.0-1.0-42.0-0.0","0","0","67690","","null","","","null","4","","","","","","","","","","","","","","","",""
"","time_out","","html-keyboard-response","39","72801","0.0-1.0-44.0-0.0","0","0","67690","","null","","","null","4","","","","","","","","","","","","","","","",""
"","ITI","","html-keyboard-response","40","73810","0.0-1.0-45.0","0","0","67690","","null","","","null","4","","","","","","","","","","","","","","","NaN",""
"","S1","","html-keyboard-response","41","74064","0.0-1.0-47.0","0","0","67690","","null","","","null","5","","","","","","","","","","","","","","","",""
"","ISI","","html-keyboard-response","42","76072","0.0-1.0-48.0","0","0","67690","","null","","","null","5","NaN","","","","","","","","","","","","","","",""
"","S2","","html-keyboard-response","43","76327","0.0-1.0-49.0","0","0","67690","","null","","","null","5","","NaN","","","","","","","","","","","","","",""
"","response","","html-keyboard-response","44","76376","0.0-1.0-50.0-0.0","0","0","67690","","46","","","68","5","","","1","5","training","adjacent","CD","3","4","M.jpg","O.jpg","1","1","1","",""
"","feedback","","html-keyboard-response","45","77381","0.0-1.0-51.0-0.0","0","0","67690","","null","","","null","5","","","","","","","","","","","","","","","",""
"","ITI","","html-keyboard-response","46","78386","0.0-1.0-54.0","0","0","67690","","null","","","null","5","","","","","","","","","","","","","","","NaN",""
"","S1","","html-keyboard-response","47","78646","0.0-1.0-56.0","0","0","67690","","null","","","null","6","","","","","","","","","","","","","","","",""
"","ISI","","html-keyboard-response","48","80651","0.0-1.0-57.0","0","0","67690","","null","","","null","6","NaN","","","","","","","","","","","","","","",""
"","S2","","html-keyboard-response","49","80907","0.0-1.0-58.0","0","0","67690","","null","","","null","6","","NaN","","","","","","","","","","","","","",""
"","response","","html-keyboard-response","50","81037","0.0-1.0-59.0-0.0","0","0","67690","","126","","","68","6","","","1","6","training","adjacent","CD","3","4","M.jpg","O.jpg","1","1","1","",""
"","feedback","","html-keyboard-response","51","82044","0.0-1.0-60.0-0.0","0","0","67690","","null","","","null","6","","","","","","","","","","","","","","","",""
"","ITI","","html-keyboard-response","52","83049","0.0-1.0-63.0","0","0","67690","","null","","","null","6","","","","","","","","","","","","","","","NaN",""
"","S1","","html-keyboard-response","53","83304","0.0-1.0-65.0","0","0","67690","","null","","","null","7","","","","","","","","","","","","","","","",""
"","ISI","","html-keyboard-response","54","85312","0.0-1.0-66.0","0","0","67690","","null","","","null","7","NaN","","","","","","","","","","","","","","",""
"","S2","","html-keyboard-response","55","85556","0.0-1.0-67.0","0","0","67690","","240","","","68","7","","d","1","7","training","adjacent","CB","3","2","M.jpg","R.jpg","1","0","0","",""
"","feedback","","html-keyboard-response","56","86563","0.0-1.0-69.0-0.0","0","0","67690","","null","","","null","7","","","","","","","","","","","","","","","",""
"","time_out","","html-keyboard-response","57","88573","0.0-1.0-71.0-0.0","0","0","67690","","null","","","null","7","","","","","","","","","","","","","","","",""
"","ITI","","html-keyboard-response","58","89582","0.0-1.0-72.0","0","0","67690","","null","","","null","7","","","","","","","","","","","","","","","NaN",""
"","S1","","html-keyboard-response","59","89840","0.0-1.0-74.0","0","0","67690","","null","","","null","8","","","","","","","","","","","","","","","",""
"","ISI","","html-keyboard-response","60","91849","0.0-1.0-75.0","0","0","67690","","null","","","null","8","NaN","","","","","","","","","","","","","","",""
"","S2","","html-keyboard-response","61","92108","0.0-1.0-76.0","0","0","67690","","null","","","null","8","","NaN","","","","","","","","","","","","","",""
"","response","","html-keyboard-response","62","92174","0.0-1.0-77.0-0.0","0","0","67690","","62","","","68","8","","","1","8","training","adjacent","GF","7","6","L.jpg","N.jpg","1","0","0","",""
"","feedback","","html-keyboard-response","63","93182","0.0-1.0-78.0-0.0","0","0","67690","","null","","","null","8","","","","","","","","","","","","","","","",""
"","time_out","","html-keyboard-response","64","95187","0.0-1.0-80.0-0.0","0","0","67690","","null","","","null","8","","","","","","","","","","","","","","","",""
"","ITI","","html-keyboard-response","65","96191","0.0-1.0-81.0","0","0","67690","","null","","","null","8","","","","","","","","","","","","","","","NaN",""
"","S1","","html-keyboard-response","66","96451","0.0-1.0-83.0","0","0","67690","","null","","","null","9","","","","","","","","","","","","","","","",""
"","ISI","","html-keyboard-response","67","98459","0.0-1.0-84.0","0","0","67690","","null","","","null","9","NaN","","","","","","","","","","","","","","",""
"","S2","","html-keyboard-response","68","98723","0.0-1.0-85.0","0","0","67690","","null","","","null","9","","NaN","","","","","","","","","","","","","",""
"","response","","html-keyboard-response","69","98732","0.0-1.0-86.0-0.0","0","0","67690","","5","","","75","9","","","1","9","training","adjacent","AB","1","2","Q.jpg","R.jpg","0","1","0","",""
"","feedback","","html-keyboard-response","70","99739","0.0-1.0-87.0-0.0","0","0","67690","","null","","","null","9","","","","","","","","","","","","","","","",""
"","time_out","","html-keyboard-response","71","101746","0.0-1.0-89.0-0.0","0","0","67690","","null","","","null","9","","","","","","","","","","","","","","","",""
"","ITI","","html-keyboard-response","72","102751","0.0-1.0-90.0","0","0","67690","","null","","","null","9","","","","","","","","","","","","","","","NaN",""
"","S1","","html-keyboard-response","73","103009","0.0-1.0-92.0","0","0","67690","","null","","","null","10","","","","","","","","","","","","","","","",""
"","ISI","","html-keyboard-response","74","105013","0.0-1.0-93.0","0","0","67690","","null","","","null","10","NaN","","","","","","","","","","","","","","",""
"","S2","","html-keyboard-response","75","105268","0.0-1.0-94.0","0","0","67690","","null","","","null","10","","NaN","","","","","","","","","","","","","",""
"","response","","html-keyboard-response","76","105389","0.0-1.0-95.0-0.0","0","0","67690","","117","","","75","10","","","1","10","training","adjacent","GF","7","6","L.jpg","N.jpg","0","0","1","",""
"","feedback","","html-keyboard-response","77","106396","0.0-1.0-96.0-0.0","0","0","67690","","null","","","null","10","","","","","","","","","","","","","","","",""
"","ITI","","html-keyboard-response","78","107405","0.0-1.0-99.0","0","0","67690","","null","","","null","10","","","","","","","","","","","","","","","NaN",""
"","S1","","html-keyboard-response","79","107668","0.0-1.0-101.0","0","0","67690","","null","","","null","11","","","","","","","","","","","","","","","",""
"","ISI","","html-keyboard-response","80","109676","0.0-1.0-102.0","0","0","67690","","null","","","null","11","NaN","","","","","","","","","","","","","","",""
"","S2","","html-keyboard-response","81","109935","0.0-1.0-103.0","0","0","67690","","null","","","null","11","","NaN","","","","","","","","","","","","","",""
"","response","","html-keyboard-response","82","110478","0.0-1.0-104.0-0.0","0","0","67690","","539","","","68","11","","","1","11","training","adjacent","AB","1","2","Q.jpg","R.jpg","1","1","1","",""
"","feedback","","html-keyboard-response","83","111483","0.0-1.0-105.0-0.0","0","0","67690","","null","","","null","11","","","","","","","","","","","","","","","",""
"","ITI","","html-keyboard-response","84","112493","0.0-1.0-108.0","0","0","67690","","null","","","null","11","","","","","","","","","","","","","","","NaN",""
"","S1","","html-keyboard-response","85","112751","0.0-1.0-110.0","0","0","67690","","null","","","null","12","","","","","","","","","","","","","","","",""
"","ISI","","html-keyboard-response","86","114757","0.0-1.0-111.0","0","0","67690","","null","","","null","12","NaN","","","","","","","","","","","","","","",""
"","S2","","html-keyboard-response","87","115013","0.0-1.0-112.0","0","0","67690","","null","","","null","12","","NaN","","","","","","","","","","","","","",""
"","response","","html-keyboard-response","88","115552","0.0-1.0-113.0-0.0","0","0","67690","","536","","","68","12","","","1","12","training","adjacent","DE","4","5","O.jpg","P.jpg","1","1","1","",""
"","feedback","","html-keyboard-response","89","116563","0.0-1.0-114.0-0.0","0","0","67690","","null","","","null","12","","","","","","","","","","","","","","","",""
"","ITI","","html-keyboard-response","90","117574","0.0-1.0-117.0","0","0","67690","","null","","","null","12","","","","","","","","","","","","","","","NaN",""
"","S1","","html-keyboard-response","91","117830","0.0-1.0-119.0","0","0","67690","","null","","","null","13","","","","","","","","","","","","","","","",""
"","ISI","","html-keyboard-response","92","119835","0.0-1.0-120.0","0","0","67690","","null","","","null","13","NaN","","","","","","","","","","","","","","",""
"","S2","","html-keyboard-response","93","120090","0.0-1.0-121.0","0","0","67690","","null","","","null","13","","NaN","","","","","","","","","","","","","",""
"","response","","html-keyboard-response","94","120168","0.0-1.0-122.0-0.0","0","0","67690","","74","","","75","13","","","1","13","training","adjacent","ED","5","4","P.jpg","O.jpg","0","0","1","",""
"","feedback","","html-keyboard-response","95","121175","0.0-1.0-123.0-0.0","0","0","67690","","null","","","null","13","","","","","","","","","","","","","","","",""
"","ITI","","html-keyboard-response","96","122181","0.0-1.0-126.0","0","0","67690","","null","","","null","13","","","","","","","","","","","","","","","NaN",""
"","S1","","html-keyboard-response","97","122437","0.0-1.0-128.0","0","0","67690","","null","","","null","14","","","","","","","","","","","","","","","",""
"","ISI","","html-keyboard-response","98","124443","0.0-1.0-129.0","0","0","67690","","null","","","null","14","NaN","","","","","","","","","","","","","","",""
"","S2","","html-keyboard-response","99","124707","0.0-1.0-130.0","0","0","67690","","null","","","null","14","","NaN","","","","","","","","","","","","","",""
"","response","","html-keyboard-response","100","124713","0.0-1.0-131.0-0.0","0","0","67690","","1","","","75","14","","","1","14","training","adjacent","ED","5","4","P.jpg","O.jpg","0","0","1","",""
"","feedback","","html-keyboard-response","101","125721","0.0-1.0-132.0-0.0","0","0","67690","","null","","","null","14","","","","","","","","","","","","","","","",""
"","ITI","","html-keyboard-response","102","126727","0.0-1.0-135.0","0","0","67690","","null","","","null","14","","","","","","","","","","","","","","","NaN",""
"","S1","","html-keyboard-response","103","126983","0.0-1.0-137.0","0","0","67690","","null","","","null","15","","","","","","","","","","","","","","","",""
"","ISI","","html-keyboard-response","104","128988","0.0-1.0-138.0","0","0","67690","","null","","","null","15","NaN","","","","","","","","","","","","","","",""
"","S2","","html-keyboard-response","105","129245","0.0-1.0-139.0","0","0","67690","","null","","","null","15","","NaN","","","","","","","","","","","","","",""
"","response","","html-keyboard-response","106","129519","0.0-1.0-140.0-0.0","0","0","67690","","269","","","75","15","","","1","15","training","adjacent","CD","3","4","M.jpg","O.jpg","0","1","0","",""
"","feedback","","html-keyboard-response","107","130526","0.0-1.0-141.0-0.0","0","0","67690","","null","","","null","15","","","","","","","","","","","","","","","",""
"","time_out","","html-keyboard-response","108","132535","0.0-1.0-143.0-0.0","0","0","67690","","null","","","null","15","","","","","","","","","","","","","","","",""
"","ITI","","html-keyboard-response","109","133544","0.0-1.0-144.0","0","0","67690","","null","","","null","15","","","","","","","","","","","","","","","NaN",""
"","S1","","html-keyboard-response","110","133798","0.0-1.0-146.0","0","0","67690","","null","","","null","16","","","","","","","","","","","","","","","",""
"","ISI","","html-keyboard-response","111","135802","0.0-1.0-147.0","0","0","67690","","null","","","null","16","NaN","","","","","","","","","","","","","","",""
"","S2","","html-keyboard-response","112","136059","0.0-1.0-148.0","0","0","67690","","null","","","null","16","","NaN","","","","","","","","","","","","","",""
"","response","","html-keyboard-response","113","136148","0.0-1.0-149.0-0.0","0","0","67690","","85","","","68","16","","","1","16","training","adjacent","FE","6","5","N.jpg","P.jpg","1","0","0","",""
"","feedback","","html-keyboard-response","114","137165","0.0-1.0-150.0-0.0","0","0","67690","","null","","","null","16","","","","","","","","","","","","","","","",""
"","time_out","","html-keyboard-response","115","139170","0.0-1.0-152.0-0.0","0","0","67690","","null","","","null","16","","","","","","","","","","","","","","","",""
"","ITI","","html-keyboard-response","116","140174","0.0-1.0-153.0","0","0","67690","","null","","","null","16","","","","","","","","","","","","","","","NaN",""
"","S1","","html-keyboard-response","117","140433","0.0-1.0-155.0","0","0","67690","","null","","","null","17","","","","","","","","","","","","","","","",""
"","ISI","","html-keyboard-response","118","142442","0.0-1.0-156.0","0","0","67690","","264","","","75","17","k","","","","","","","","","","","","","","",""
"","S2","","html-keyboard-response","119","142699","0.0-1.0-157.0","0","0","67690","","null","","","null","17","","NaN","","","","","","","","","","","","","",""
"","response","","html-keyboard-response","120","142832","0.0-1.0-158.0-0.0","0","0","67690","","130","","","75","17","","","1","17","training","adjacent","FG","6","7","N.jpg","L.jpg","0","1","0","",""
"","feedback","","html-keyboard-response","121","143849","0.0-1.0-159.0-0.0","0","0","67690","","null","","","null","17","","","","","","","","","","","","","","","",""
"","time_out","","html-keyboard-response","122","145858","0.0-1.0-161.0-0.0","0","0","67690","","null","","","null","17","","","","","","","","","","","","","","","",""
"","ITI","","html-keyboard-response","123","146863","0.0-1.0-162.0","0","0","67690","","null","","","null","17","","","","","","","","","","","","","","","NaN",""
"","S1","","html-keyboard-response","124","147120","0.0-1.0-164.0","0","0","67690","","null","","","null","18","","","","","","","","","","","","","","","",""
"","ISI","","html-keyboard-response","125","149125","0.0-1.0-165.0","0","0","67690","","329","","","68","18","d","","","","","","","","","","","","","","",""
"","S2","","html-keyboard-response","126","149381","0.0-1.0-166.0","0","0","67690","","null","","","null","18","","NaN","","","","","","","","","","","","","",""
"","response","","html-keyboard-response","127","149475","0.0-1.0-167.0-0.0","0","0","67690","","90","","","75","18","","","1","18","training","adjacent","EF","5","6","P.jpg","N.jpg","0","1","0","",""
"","feedback","","html-keyboard-response","128","150482","0.0-1.0-168.0-0.0","0","0","67690","","null","","","null","18","","","","","","","","","","","","","","","",""
"","time_out","","html-keyboard-response","129","152490","0.0-1.0-170.0-0.0","0","0","67690","","null","","","null","18","","","","","","","","","","","","","","","",""
"","ITI","","html-keyboard-response","130","153508","0.0-1.0-171.0","0","0","67690","","431","","","68","18","","","","","","","","","","","","","","","d",""
"","S1","","html-keyboard-response","131","153765","0.0-1.0-173.0","0","0","67690","","null","","","null","19","","","","","","","","","","","","","","","",""
"","ISI","","html-keyboard-response","132","155770","0.0-1.0-174.0","0","0","67690","","228","","","68","19","d","","","","","","","","","","","","","","",""
"","S2","","html-keyboard-response","133","156022","0.0-1.0-175.0","0","0","67690","","null","","","null","19","","NaN","","","","","","","","","","","","","",""
"","response","","html-keyboard-response","134","156512","0.0-1.0-176.0-0.0","0","0","67690","","488","","","68","19","","","1","19","training","adjacent","FG","6","7","N.jpg","L.jpg","1","1","1","",""
"","feedback","","html-keyboard-response","135","157519","0.0-1.0-177.0-0.0","0","0","67690","","null","","","null","19","","","","","","","","","","","","","","","",""
"","ITI","","html-keyboard-response","136","158524","0.0-1.0-180.0","0","0","67690","","null","","","null","19","","","","","","","","","","","","","","","NaN",""
"","S1","","html-keyboard-response","137","158787","0.0-1.0-182.0","0","0","67690","","null","","","null","20","","","","","","","","","","","","","","","",""
"","ISI","","html-keyboard-response","138","160790","0.0-1.0-183.0","0","0","67690","","259","","","68","20","d","","","","","","","","","","","","","","",""
"","S2","","html-keyboard-response","139","161049","0.0-1.0-184.0","0","0","67690","","null","","","null","20","","NaN","","","","","","","","","","","","","",""
"","response","","html-keyboard-response","140","161196","0.0-1.0-185.0-0.0","0","0","67690","","145","","","68","20","","","1","20","training","adjacent","ED","5","4","P.jpg","O.jpg","1","0","0","",""
"","feedback","","html-keyboard-response","141","162201","0.0-1.0-186.0-0.0","0","0","67690","","null","","","null","20","","","","","","","","","","","","","","","",""
"","time_out","","html-keyboard-response","142","164203","0.0-1.0-188.0-0.0","0","0","67690","","null","","","null","20","","","","","","","","","","","","","","","",""
"","ITI","","html-keyboard-response","143","165205","0.0-1.0-189.0","0","0","67690","","null","","","null","20","","","","","","","","","","","","","","","NaN",""
"","S1","","html-keyboard-response","144","165467","0.0-1.0-191.0","0","0","67690","","null","","","null","21","","","","","","","","","","","","","","","",""
"","ISI","","html-keyboard-response","145","167473","0.0-1.0-192.0","0","0","67690","","null","","","null","21","NaN","","","","","","","","","","","","","","",""
"","S2","","html-keyboard-response","146","167732","0.0-1.0-193.0","0","0","67690","","null","","","null","21","","NaN","","","","","","","","","","","","","",""
"","response","","html-keyboard-response","147","167833","0.0-1.0-194.0-0.0","0","0","67690","","100","","","75","21","","","1","21","training","adjacent","CB","3","2","M.jpg","R.jpg","0","0","1","",""
"","feedback","","html-keyboard-response","148","168835","0.0-1.0-195.0-0.0","0","0","67690","","null","","","null","21","","","","","","","","","","","","","","","",""
"","ITI","","html-keyboard-response","149","169840","0.0-1.0-198.0","0","0","67690","","null","","","null","21","","","","","","","","","","","","","","","NaN",""
"","S1","","html-keyboard-response","150","170096","0.0-1.0-200.0","0","0","67690","","null","","","null","22","","","","","","","","","","","","","","","",""
"","ISI","","html-keyboard-response","151","172098","0.0-1.0-201.0","0","0","67690","","null","","","null","22","NaN","","","","","","","","","","","","","","",""
"","S2","","html-keyboard-response","152","172355","0.0-1.0-202.0","0","0","67690","","null","","","null","22","","NaN","","","","","","","","","","","","","",""
"","response","","html-keyboard-response","153","174107","0.0-1.0-203.0-0.0","0","0","67690","","null","","","null","22","","","1","22","training","adjacent","DC","4","3","O.jpg","M.jpg","NaN","0","0","",""
"","too_slow_prompt","","html-keyboard-response","154","175114","0.0-1.0-205.0-0.0","1","0","67690","","null","","","null","","","","","","","","","","","","","","","","",""
"","time_out","","html-keyboard-response","155","177115","0.0-1.0-206.0-0.0","0","0","67690","","null","","","null","22","","","","","","","","","","","","","","","",""
"","ITI","","html-keyboard-response","156","178122","0.0-1.0-207.0","0","0","67690","","713","","","68","22","","","","","","","","","","","","","","","d",""
"","S1","","html-keyboard-response","157","178377","0.0-1.0-209.0","0","0","67690","","null","","","null","23","","","","","","","","","","","","","","","",""
"","ISI","","html-keyboard-response","158","180379","0.0-1.0-210.0","0","0","67690","","639","","","68","23","d","","","","","","","","","","","","","","",""
"","S2","","html-keyboard-response","159","180434","0.0-1.0-211.0","0","0","67690","","52","","","75","23","","k","1","23","training","adjacent","BA","2","1","R.jpg","Q.jpg","0","0","1","",""
"","feedback","","html-keyboard-response","160","181440","0.0-1.0-213.0-0.0","0","0","67690","","null","","","null","23","","","","","","","","","","","","","","","",""
"","ITI","","html-keyboard-response","161","182443","0.0-1.0-216.0","0","0","67690","","null","","","null","23","","","","","","","","","","","","","","","NaN",""
"","S1","","html-keyboard-response","162","182697","0.0-1.0-218.0","0","0","67690","","null","","","null","24","","","","","","","","","","","","","","","",""
"","ISI","","html-keyboard-response","163","184700","0.0-1.0-219.0","0","0","67690","","200","","","75","24","k","","","","","","","","","","","","","","",""
"","S2","","html-keyboard-response","164","184956","0.0-1.0-220.0","0","0","67690","","null","","","null","24","","NaN","","","","","","","","","","","","","",""
"","response","","html-keyboard-response","165","185011","0.0-1.0-221.0-0.0","0","0","67690","","53","","","68","24","","","1","24","training","adjacent","AB","1","2","Q.jpg","R.jpg","1","1","1","",""
"","feedback","","html-keyboard-response","166","186015","0.0-1.0-222.0-0.0","0","0","67690","","null","","","null","24","","","","","","","","","","","","","","","",""
"","ITI","","html-keyboard-response","167","187020","0.0-1.0-225.0","0","0","67690","","null","","","null","24","","","","","","","","","","","","","","","NaN",""
"","S1","","html-keyboard-response","168","187274","0.0-1.0-227.0","0","0","67690","","null","","","null","25","","","","","","","","","","","","","","","",""
"","ISI","","html-keyboard-response","169","189279","0.0-1.0-228.0","0","0","67690","","247","","","68","25","d","","","","","","","","","","","","","","",""
"","S2","","html-keyboard-response","170","189533","0.0-1.0-229.0","0","0","67690","","null","","","null","25","","NaN","","","","","","","","","","","","","",""
"","response","","html-keyboard-response","171","189921","0.0-1.0-230.0-0.0","0","0","67690","","387","","","75","25","","","1","25","training","adjacent","DE","4","5","O.jpg","P.jpg","0","1","0","",""
"","feedback","","html-keyboard-response","172","190926","0.0-1.0-231.0-0.0","0","0","67690","","null","","","null","25","","","","","","","","","","","","","","","",""
"","time_out","","html-keyboard-response","173","192930","0.0-1.0-233.0-0.0","0","0","67690","","null","","","null","25","","","","","","","","","","","","","","","",""
"","ITI","","html-keyboard-response","174","193938","0.0-1.0-234.0","0","0","67690","","431","","","68","25","","","","","","","","","","","","","","","d",""
"","S1","","html-keyboard-response","175","194193","0.0-1.0-236.0","0","0","67690","","null","","","null","26","","","","","","","","","","","","","","","",""
"","ISI","","html-keyboard-response","176","196203","0.0-1.0-237.0","0","0","67690","","1664","","","68","26","d","","","","","","","","","","","","","","",""
"","S2","","html-keyboard-response","177","196457","0.0-1.0-238.0","0","0","67690","","null","","","null","26","","NaN","","","","","","","","","","","","","",""
"","response","","html-keyboard-response","178","196555","0.0-1.0-239.0-0.0","0","0","67690","","96","","","68","26","","","1","26","training","adjacent","ED","5","4","P.jpg","O.jpg","1","0","0","",""
"","feedback","","html-keyboard-response","179","197558","0.0-1.0-240.0-0.0","0","0","67690","","null","","","null","26","","","","","","","","","","","","","","","",""
"","time_out","","html-keyboard-response","180","199562","0.0-1.0-242.0-0.0","0","0","67690","","null","","","null","26","","","","","","","","","","","","","","","",""
"","ITI","","html-keyboard-response","181","200570","0.0-1.0-243.0","0","0","67690","","621","","","75","26","","","","","","","","","","","","","","","k",""
"","S1","","html-keyboard-response","182","200827","0.0-1.0-245.0","0","0","67690","","null","","","null","27","","","","","","","","","","","","","","","",""
"","ISI","","html-keyboard-response","183","202832","0.0-1.0-246.0","0","0","67690","","330","","","75","27","k","","","","","","","","","","","","","","",""
"","S2","","html-keyboard-response","184","203085","0.0-1.0-247.0","0","0","67690","","null","","","null","27","","NaN","","","","","","","","","","","","","",""
"","response","","html-keyboard-response","185","203369","0.0-1.0-248.0-0.0","0","0","67690","","283","","","68","27","","","1","27","training","adjacent","FE","6","5","N.jpg","P.jpg","1","0","0","",""
"","feedback","","html-keyboard-response","186","204374","0.0-1.0-249.0-0.0","0","0","67690","","null","","","null","27","","","","","","","","","","","","","","","",""
"","time_out","","html-keyboard-response","187","206390","0.0-1.0-251.0-0.0","0","0","67690","","null","","","null","27","","","","","","","","","","","","","","","",""
"","ITI","","html-keyboard-response","188","207395","0.0-1.0-252.0","0","0","67690","","303","","","75","27","","","","","","","","","","","","","","","k",""
"","S1","","html-keyboard-response","189","207652","0.0-1.0-254.0","0","0","67690","","null","","","null","28","","","","","","","","","","","","","","","",""
"","ISI","","html-keyboard-response","190","209658","0.0-1.0-255.0","0","0","67690","","76","","","75","28","k","","","","","","","","","","","","","","",""
"","S2","","html-keyboard-response","191","209912","0.0-1.0-256.0","0","0","67690","","null","","","null","28","","NaN","","","","","","","","","","","","","",""
"","response","","html-keyboard-response","192","211006","0.0-1.0-257.0-0.0","0","0","67690","","1092","","","68","28","","","1","28","training","adjacent","BC","2","3","R.jpg","M.jpg","1","1","1","",""
"","feedback","","html-keyboard-response","193","212015","0.0-1.0-258.0-0.0","0","0","67690","","null","","","null","28","","","","","","","","","","","","","","","",""
"","ITI","","html-keyboard-response","194","213020","0.0-1.0-261.0","0","0","67690","","null","","","null","28","","","","","","","","","","","","","","","NaN",""
"","S1","","html-keyboard-response","195","213274","0.0-1.0-263.0","0","0","67690","","null","","","null","29","","","","","","","","","","","","","","","",""
"","ISI","","html-keyboard-response","196","215277","0.0-1.0-264.0","0","0","67690","","154","","","68","29","d","","","","","","","","","","","","","","",""
"","S2","","html-keyboard-response","197","215533","0.0-1.0-265.0","0","0","67690","","null","","","null","29","","NaN","","","","","","","","","","","","","",""
"","response","","html-keyboard-response","198","215657","0.0-1.0-266.0-0.0","0","0","67690","","122","","","75","29","","","1","29","training","adjacent","DE","4","5","O.jpg","P.jpg","0","1","0","",""
"","feedback","","html-keyboard-response","199","216670","0.0-1.0-267.0-0.0","0","0","67690","","null","","","null","29","","","","","","","","","","","","","","","",""
"","time_out","","html-keyboard-response","200","218672","0.0-1.0-269.0-0.0","0","0","67690","","null","","","null","29","","","","","","","","","","","","","","","",""
"","ITI","","html-keyboard-response","201","219685","0.0-1.0-270.0","0","0","67690","","null","","","null","29","","","","","","","","","","","","","","","NaN",""
"","S1","","html-keyboard-response","202","219946","0.0-1.0-272.0","0","0","67690","","null","","","null","30","","","","","","","","","","","","","","","",""
"","ISI","","html-keyboard-response","203","221949","0.0-1.0-273.0","0","0","67690","","659","","","68","30","d","","","","","","","","","","","","","","",""
"","S2","","html-keyboard-response","204","222203","0.0-1.0-274.0","0","0","67690","","null","","","null","30","","NaN","","","","","","","","","","","","","",""
"","response","","html-keyboard-response","205","222248","0.0-1.0-275.0-0.0","0","0","67690","","44","","","68","30","","","1","30","training","adjacent","BC","2","3","R.jpg","M.jpg","1","1","1","",""
"","feedback","","html-keyboard-response","206","223253","0.0-1.0-276.0-0.0","0","0","67690","","null","","","null","30","","","","","","","","","","","","","","","",""
"","ITI","","html-keyboard-response","207","224258","0.0-1.0-279.0","0","0","67690","","null","","","null","30","","","","","","","","","","","","","","","NaN",""
"","S1","","html-keyboard-response","208","224511","0.0-1.0-281.0","0","0","67690","","null","","","null","31","","","","","","","","","","","","","","","",""
"","ISI","","html-keyboard-response","209","226517","0.0-1.0-282.0","0","0","67690","","null","","","null","31","NaN","","","","","","","","","","","","","","",""
"","S2","","html-keyboard-response","210","226781","0.0-1.0-283.0","0","0","67690","","null","","","null","31","","NaN","","","","","","","","","","","","","",""
"","response","","html-keyboard-response","211","227631","0.0-1.0-284.0-0.0","0","0","67690","","849","","","68","31","","","1","31","training","adjacent","DC","4","3","O.jpg","M.jpg","1","0","0","",""
"","feedback","","html-keyboard-response","212","228638","0.0-1.0-285.0-0.0","0","0","67690","","null","","","null","31","","","","","","","","","","","","","","","",""
"","time_out","","html-keyboard-response","213","230641","0.0-1.0-287.0-0.0","0","0","67690","","null","","","null","31","","","","","","","","","","","","","","","",""
"","ITI","","html-keyboard-response","214","231645","0.0-1.0-288.0","0","0","67690","","null","","","null","31","","","","","","","","","","","","","","","NaN",""
"","S1","","html-keyboard-response","215","231901","0.0-1.0-290.0","0","0","67690","","null","","","null","32","","","","","","","","","","","","","","","",""
"","ISI","","html-keyboard-response","216","233907","0.0-1.0-291.0","0","0","67690","","null","","","null","32","NaN","","","","","","","","","","","","","","",""
"","S2","","html-keyboard-response","217","234160","0.0-1.0-292.0","0","0","67690","","null","","","null","32","","NaN","","","","","","","","","","","","","",""
"","response","","html-keyboard-response","218","234214","0.0-1.0-293.0-0.0","0","0","67690","","53","","","75","32","","","1","32","training","adjacent","CB","3","2","M.jpg","R.jpg","0","0","1","",""
"","feedback","","html-keyboard-response","219","235226","0.0-1.0-294.0-0.0","0","0","67690","","null","","","null","32","","","","","","","","","","","","","","","",""
"","ITI","","html-keyboard-response","220","236228","0.0-1.0-297.0","0","0","67690","","null","","","null","32","","","","","","","","","","","","","","","NaN",""
"","S1","","html-keyboard-response","221","236483","0.0-1.0-299.0","0","0","67690","","null","","","null","33","","","","","","","","","","","","","","","",""
"","ISI","","html-keyboard-response","222","238499","0.0-1.0-300.0","0","0","67690","","null","","","null","33","NaN","","","","","","","","","","","","","","",""
"","S2","","html-keyboard-response","223","238755","0.0-1.0-301.0","0","0","67690","","null","","","null","33","","NaN","","","","","","","","","","","","","",""
"","response","","html-keyboard-response","224","238877","0.0-1.0-302.0-0.0","0","0","67690","","120","","","75","33","","","1","33","training","adjacent","CB","3","2","M.jpg","R.jpg","0","0","1","",""
"","feedback","","html-keyboard-response","225","239881","0.0-1.0-303.0-0.0","0","0","67690","","null","","","null","33","","","","","","","","","","","","","","","",""
"","ITI","","html-keyboard-response","226","240889","0.0-1.0-306.0","0","0","67690","","null","","","null","33","","","","","","","","","","","","","","","NaN",""
"","S1","","html-keyboard-response","227","241157","0.0-1.0-308.0","0","0","67690","","null","","","null","34","","","","","","","","","","","","","","","",""
"","ISI","","html-keyboard-response","228","243162","0.0-1.0-309.0","0","0","67690","","null","","","null","34","NaN","","","","","","","","","","","","","","",""
"","S2","","html-keyboard-response","229","243417","0.0-1.0-310.0","0","0","67690","","null","","","null","34","","NaN","","","","","","","","","","","","","",""
"","response","","html-keyboard-response","230","244050","0.0-1.0-311.0-0.0","0","0","67690","","631","","","75","34","","","1","34","training","adjacent","BA","2","1","R.jpg","Q.jpg","0","0","1","",""
"","feedback","","html-keyboard-response","231","245055","0.0-1.0-312.0-0.0","0","0","67690","","null","","","null","34","","","","","","","","","","","","","","","",""
"","ITI","","html-keyboard-response","232","246059","0.0-1.0-315.0","0","0","67690","","null","","","null","34","","","","","","","","","","","","","","","NaN",""
"","S1","","html-keyboard-response","233","246328","0.0-1.0-317.0","0","0","67690","","null","","","null","35","","","","","","","","","","","","","","","",""
"","ISI","","html-keyboard-response","234","248333","0.0-1.0-318.0","0","0","67690","","859","","","75","35","k","","","","","","","","","","","","","","",""
"","S2","","html-keyboard-response","235","248588","0.0-1.0-319.0","0","0","67690","","null","","","null","35","","NaN","","","","","","","","","","","","","",""
"","response","","html-keyboard-response","236","249194","0.0-1.0-320.0-0.0","0","0","67690","","601","","","68","35","","","1","35","training","adjacent","BC","2","3","R.jpg","M.jpg","1","1","1","",""
"","feedback","","html-keyboard-response","237","250202","0.0-1.0-321.0-0.0","0","0","67690","","null","","","null","35","","","","","","","","","","","","","","","",""
"","ITI","","html-keyboard-response","238","251229","0.0-1.0-324.0","0","0","67690","","null","","","null","35","","","","","","","","","","","","","","","NaN",""
"","S1","","html-keyboard-response","239","251486","0.0-1.0-326.0","0","0","67690","","null","","","null","36","","","","","","","","","","","","","","","",""
"","ISI","","html-keyboard-response","240","253490","0.0-1.0-327.0","0","0","67690","","1926","","","75","36","k","","","","","","","","","","","","","","",""
"","S2","","html-keyboard-response","241","253745","0.0-1.0-328.0","0","0","67690","","null","","","null","36","","NaN","","","","","","","","","","","","","",""
"","response","","html-keyboard-response","242","253868","0.0-1.0-329.0-0.0","0","0","67690","","119","","","75","36","","","1","36","training","adjacent","GF","7","6","L.jpg","N.jpg","0","0","1","",""
"","feedback","","html-keyboard-response","243","254887","0.0-1.0-330.0-0.0","0","0","67690","","null","","","null","36","","","","","","","","","","","","","","","",""
"","ITI","","html-keyboard-response","244","255894","0.0-1.0-333.0","0","0","67690","","null","","","null","36","","","","","","","","","","","","","","","NaN",""
"","S1","","html-keyboard-response","245","256151","0.0-1.0-335.0","0","0","67690","","null","","","null","37","","","","","","","","","","","","","","","",""
"","ISI","","html-keyboard-response","246","258160","0.0-1.0-336.0","0","0","67690","","1879","","","68","37","d","","","","","","","","","","","","","","",""
"","S2","","html-keyboard-response","247","258419","0.0-1.0-337.0","0","0","67690","","null","","","null","37","","NaN","","","","","","","","","","","","","",""
"","response","","html-keyboard-response","248","258473","0.0-1.0-338.0-0.0","0","0","67690","","51","","","68","37","","","1","37","training","adjacent","GF","7","6","L.jpg","N.jpg","1","0","0","",""
"","feedback","","html-keyboard-response","249","259482","0.0-1.0-339.0-0.0","0","0","67690","","null","","","null","37","","","","","","","","","","","","","","","",""
"","time_out","","html-keyboard-response","250","261488","0.0-1.0-341.0-0.0","0","0","67690","","null","","","null","37","","","","","","","","","","","","","","","",""
"","ITI","","html-keyboard-response","251","262499","0.0-1.0-342.0","0","0","67690","","572","","","75","37","","","","","","","","","","","","","","","k",""
"","S1","","html-keyboard-response","252","262754","0.0-1.0-344.0","0","0","67690","","null","","","null","38","","","","","","","","","","","","","","","",""
"","ISI","","html-keyboard-response","253","264758","0.0-1.0-345.0","0","0","67690","","null","","","null","38","NaN","","","","","","","","","","","","","","",""
"","S2","","html-keyboard-response","254","265016","0.0-1.0-346.0","0","0","67690","","null","","","null","38","","NaN","","","","","","","","","","","","","",""
"","response","","html-keyboard-response","255","265090","0.0-1.0-347.0-0.0","0","0","67690","","69","","","75","38","","","1","38","training","adjacent","EF","5","6","P.jpg","N.jpg","0","1","0","",""
"","feedback","","html-keyboard-response","256","266095","0.0-1.0-348.0-0.0","0","0","67690","","null","","","null","38","","","","","","","","","","","","","","","",""
"","time_out","","html-keyboard-response","257","268102","0.0-1.0-350.0-0.0","0","0","67690","","null","","","null","38","","","","","","","","","","","","","","","",""
"","ITI","","html-keyboard-response","258","269108","0.0-1.0-351.0","0","0","67690","","1001","","","68","38","","","","","","","","","","","","","","","d",""
"","S1","","html-keyboard-response","259","269365","0.0-1.0-353.0","0","0","67690","","null","","","null","39","","","","","","","","","","","","","","","",""
"","ISI","","html-keyboard-response","260","271372","0.0-1.0-354.0","0","0","67690","","294","","","68","39","d","","","","","","","","","","","","","","",""
"","S2","","html-keyboard-response","261","271435","0.0-1.0-355.0","0","0","67690","","59","","","75","39","","k","1","39","training","adjacent","DC","4","3","O.jpg","M.jpg","0","0","1","",""
"","feedback","","html-keyboard-response","262","272455","0.0-1.0-357.0-0.0","0","0","67690","","null","","","null","39","","","","","","","","","","","","","","","",""
"","ITI","","html-keyboard-response","263","273462","0.0-1.0-360.0","0","0","67690","","null","","","null","39","","","","","","","","","","","","","","","NaN",""
"","S1","","html-keyboard-response","264","273721","0.0-1.0-362.0","0","0","67690","","null","","","null","40","","","","","","","","","","","","","","","",""
"","ISI","","html-keyboard-response","265","275726","0.0-1.0-363.0","0","0","67690","","258","","","75","40","k","","","","","","","","","","","","","","",""
"","S2","","html-keyboard-response","266","275989","0.0-1.0-364.0","0","0","67690","","null","","","null","40","","NaN","","","","","","","","","","","","","",""
"","response","","html-keyboard-response","267","276040","0.0-1.0-365.0-0.0","0","0","67690","","47","","","68","40","","","1","40","training","adjacent","EF","5","6","P.jpg","N.jpg","1","1","1","",""
"","feedback","","html-keyboard-response","268","277047","0.0-1.0-366.0-0.0","0","0","67690","","null","","","null","40","","","","","","","","","","","","","","","",""
"","ITI","","html-keyboard-response","269","278053","0.0-1.0-369.0","0","0","67690","","null","","","null","40","","","","","","","","","","","","","","","NaN",""
"","S1","","html-keyboard-response","270","278312","0.0-1.0-371.0","0","0","67690","","null","","","null","41","","","","","","","","","","","","","","","",""
"","ISI","","html-keyboard-response","271","280322","0.0-1.0-372.0","0","0","67690","","1463","","","75","41","k","","","","","","","","","","","","","","",""
"","S2","","html-keyboard-response","272","280499","0.0-1.0-373.0","0","0","67690","","172","","","75","41","","k","1","41","training","adjacent","FE","6","5","N.jpg","P.jpg","0","0","1","",""
"","feedback","","html-keyboard-response","273","281506","0.0-1.0-375.0-0.0","0","0","67690","","null","","","null","41","","","","","","","","","","","","","","","",""
"","ITI","","html-keyboard-response","274","282512","0.0-1.0-378.0","0","0","67690","","null","","","null","41","","","","","","","","","","","","","","","NaN",""
"","S1","","html-keyboard-response","275","282775","0.0-1.0-380.0","0","0","67690","","null","","","null","42","","","","","","","","","","","","","","","",""
"","ISI","","html-keyboard-response","276","284779","0.0-1.0-381.0","0","0","67690","","1268","","","68","42","d","","","","","","","","","","","","","","",""
"","S2","","html-keyboard-response","277","285050","0.0-1.0-382.0","0","0","67690","","264","","","75","42","","k","1","42","training","adjacent","DE","4","5","O.jpg","P.jpg","0","1","0","",""
"","feedback","","html-keyboard-response","278","286061","0.0-1.0-384.0-0.0","0","0","67690","","null","","","null","42","","","","","","","","","","","","","","","",""
"","time_out","","html-keyboard-response","279","288066","0.0-1.0-386.0-0.0","0","0","67690","","null","","","null","42","","","","","","","","","","","","","","","",""
"","ITI","","html-keyboard-response","280","289071","0.0-1.0-387.0","0","0","67690","","null","","","null","42","","","","","","","","","","","","","","","NaN",""
"","S1","","html-keyboard-response","281","289330","0.0-1.0-389.0","0","0","67690","","null","","","null","43","","","","","","","","","","","","","","","",""
"","ISI","","html-keyboard-response","282","291335","0.0-1.0-390.0","0","0","67690","","139","","","68","43","d","","","","","","","","","","","","","","",""
"","S2","","html-keyboard-response","283","291605","0.0-1.0-391.0","0","0","67690","","null","","","null","43","","NaN","","","","","","","","","","","","","",""
"","response","","html-keyboard-response","284","291820","0.0-1.0-392.0-0.0","0","0","67690","","210","","","75","43","","","1","43","training","adjacent","FE","6","5","N.jpg","P.jpg","0","0","1","",""
"","feedback","","html-keyboard-response","285","292826","0.0-1.0-393.0-0.0","0","0","67690","","null","","","null","43","","","","","","","","","","","","","","","",""
"","ITI","","html-keyboard-response","286","293834","0.0-1.0-396.0","0","0","67690","","null","","","null","43","","","","","","","","","","","","","","","NaN",""
"","S1","","html-keyboard-response","287","294089","0.0-1.0-398.0","0","0","67690","","null","","","null","44","","","","","","","","","","","","","","","",""
"","ISI","","html-keyboard-response","288","296097","0.0-1.0-399.0","0","0","67690","","null","","","null","44","NaN","","","","","","","","","","","","","","",""
"","S2","","html-keyboard-response","289","296354","0.0-1.0-400.0","0","0","67690","","null","","","null","44","","NaN","","","","","","","","","","","","","",""
"","response","","html-keyboard-response","290","298110","0.0-1.0-401.0-0.0","0","0","67690","","null","","","null","44","","","1","44","training","adjacent","FG","6","7","N.jpg","L.jpg","NaN","1","0","",""
"","too_slow_prompt","","html-keyboard-response","291","299125","0.0-1.0-403.0-0.0","1","0","67690","","null","","","null","","","","","","","","","","","","","","","","",""
"","time_out","","html-keyboard-response","292","301132","0.0-1.0-404.0-0.0","0","0","67690","","null","","","null","44","","","","","","","","","","","","","","","",""
"","ITI","","html-keyboard-response","293","302136","0.0-1.0-405.0","0","0","67690","","81","","","75","44","","","","","","","","","","","","","","","k",""
"","S1","","html-keyboard-response","294","302403","0.0-1.0-407.0","0","0","67690","","null","","","null","45","","","","","","","","","","","","","","","",""
"","ISI","","html-keyboard-response","295","304408","0.0-1.0-408.0","0","0","67690","","37","","","75","45","k","","","","","","","","","","","","","","",""
"","S2","","html-keyboard-response","296","304678","0.0-1.0-409.0","0","0","67690","","null","","","null","45","","NaN","","","","","","","","","","","","","",""
"","response","","html-keyboard-response","297","304928","0.0-1.0-410.0-0.0","0","0","67690","","246","","","75","45","","","1","45","training","adjacent","EF","5","6","P.jpg","N.jpg","0","1","0","",""
"","feedback","","html-keyboard-response","298","305936","0.0-1.0-411.0-0.0","0","0","67690","","null","","","null","45","","","","","","","","","","","","","","","",""
"","time_out","","html-keyboard-response","299","307944","0.0-1.0-413.0-0.0","0","0","67690","","null","","","null","45","","","","","","","","","","","","","","","",""
"","ITI","","html-keyboard-response","300","308958","0.0-1.0-414.0","0","0","67690","","563","","","68","45","","","","","","","","","","","","","","","d",""
"","S1","","html-keyboard-response","301","309223","0.0-1.0-416.0","0","0","67690","","null","","","null","46","","","","","","","","","","","","","","","",""
"","ISI","","html-keyboard-response","302","311226","0.0-1.0-417.0","0","0","67690","","68","","","68","46","d","","","","","","","","","","","","","","",""
"","S2","","html-keyboard-response","303","311254","0.0-1.0-418.0","0","0","67690","","24","","","75","46","","k","1","46","training","adjacent","BC","2","3","R.jpg","M.jpg","0","1","0","",""
"","feedback","","html-keyboard-response","304","312259","0.0-1.0-420.0-0.0","0","0","67690","","null","","","null","46","","","","","","","","","","","","","","","",""
"","time_out","","html-keyboard-response","305","314266","0.0-1.0-422.0-0.0","0","0","67690","","null","","","null","46","","","","","","","","","","","","","","","",""
"","ITI","","html-keyboard-response","306","315274","0.0-1.0-423.0","0","0","67690","","481","","","75","46","","","","","","","","","","","","","","","k",""
"","S1","","html-keyboard-response","307","315539","0.0-1.0-425.0","0","0","67690","","null","","","null","47","","","","","","","","","","","","","","","",""
"","ISI","","html-keyboard-response","308","317546","0.0-1.0-426.0","0","0","67690","","1755","","","68","47","d","","","","","","","","","","","","","","",""
"","S2","","html-keyboard-response","309","317646","0.0-1.0-427.0","0","0","67690","","96","","","68","47","","d","1","47","training","adjacent","AB","1","2","Q.jpg","R.jpg","1","1","1","",""
"","feedback","","html-keyboard-response","310","318652","0.0-1.0-429.0-0.0","0","0","67690","","null","","","null","47","","","","","","","","","","","","","","","",""
"","ITI","","html-keyboard-response","311","319661","0.0-1.0-432.0","0","0","67690","","38","","","75","47","","","","","","","","","","","","","","","k",""
"","block_over","","html-keyboard-response","312","333683","0.0-1.0-433.0-0.0","0","0","67690","","14017","","","32","47","","","","","","","","","","","","","","","",""
"","S1","","html-keyboard-response","313","333945","0.0-1.0-434.0","0","0","67690","","null","","","null","48","","","","","","","","","","","","","","","",""
"","ISI","","html-keyboard-response","314","335952","0.0-1.0-435.0","0","0","67690","","1655","","","68","48","d","","","","","","","","","","","","","","",""
"","S2","","html-keyboard-response","315","336207","0.0-1.0-436.0","0","0","67690","","null","","","null","48","","NaN","","","","","","","","","","","","","",""
"","response","","html-keyboard-response","316","336561","0.0-1.0-437.0-0.0","0","0","67690","","350","","","68","48","","","2","48","training","adjacent","CD","3","4","M.jpg","O.jpg","1","1","1","",""
"","feedback","","html-keyboard-response","317","337568","0.0-1.0-438.0-0.0","0","0","67690","","null","","","null","48","","","","","","","","","","","","","","","",""
"","ITI","","html-keyboard-response","318","338575","0.0-1.0-441.0","0","0","67690","","null","","","null","48","","","","","","","","","","","","","","","NaN",""
"","S1","","html-keyboard-response","319","338846","0.0-1.0-443.0","0","0","67690","","null","","","null","49","","","","","","","","","","","","","","","",""
"","ISI","","html-keyboard-response","320","340852","0.0-1.0-444.0","0","0","67690","","null","","","null","49","NaN","","","","","","","","","","","","","","",""
"","S2","","html-keyboard-response","321","341057","0.0-1.0-445.0","0","0","67690","","200","","","68","49","","d","2","49","training","adjacent","FE","6","5","N.jpg","P.jpg","1","0","0","",""
"","feedback","","html-keyboard-response","322","342064","0.0-1.0-447.0-0.0","0","0","67690","","null","","","null","49","","","","","","","","","","","","","","","",""
"","time_out","","html-keyboard-response","323","344070","0.0-1.0-449.0-0.0","0","0","67690","","null","","","null","49","","","","","","","","","","","","","","","",""
"","ITI","","html-keyboard-response","324","345076","0.0-1.0-450.0","0","0","67690","","770","","","68","49","","","","","","","","","","","","","","","d",""
"","S1","","html-keyboard-response","325","345333","0.0-1.0-452.0","0","0","67690","","null","","","null","50","","","","","","","","","","","","","","","",""
"","ISI","","html-keyboard-response","326","347341","0.0-1.0-453.0","0","0","67690","","1037","","","75","50","k","","","","","","","","","","","","","","",""
"","S2","","html-keyboard-response","327","347597","0.0-1.0-454.0","0","0","67690","","null","","","null","50","","NaN","","","","","","","","","","","","","",""
"","response","","html-keyboard-response","328","347629","0.0-1.0-455.0-0.0","0","0","67690","","27","","","75","50","","","2","50","training","adjacent","BC","2","3","R.jpg","M.jpg","0","1","0","",""
"","feedback","","html-keyboard-response","329","348637","0.0-1.0-456.0-0.0","0","0","67690","","null","","","null","50","","","","","","","","","","","","","","","",""
"","time_out","","html-keyboard-response","330","350643","0.0-1.0-458.0-0.0","0","0","67690","","null","","","null","50","","","","","","","","","","","","","","","",""
"","ITI","","html-keyboard-response","331","351658","0.0-1.0-459.0","0","0","67690","","697","","","68","50","","","","","","","","","","","","","","","d",""
"","S1","","html-keyboard-response","332","351913","0.0-1.0-461.0","0","0","67690","","null","","","null","51","","","","","","","","","","","","","","","",""
"","ISI","","html-keyboard-response","333","353917","0.0-1.0-462.0","0","0","67690","","219","","","68","51","d","","","","","","","","","","","","","","",""
"","S2","","html-keyboard-response","334","354185","0.0-1.0-463.0","0","0","67690","","null","","","null","51","","NaN","","","","","","","","","","","","","",""
"","response","","html-keyboard-response","335","354251","0.0-1.0-464.0-0.0","0","0","67690","","61","","","75","51","","","2","51","training","adjacent","ED","5","4","P.jpg","O.jpg","0","0","1","",""
"","feedback","","html-keyboard-response","336","355258","0.0-1.0-465.0-0.0","0","0","67690","","null","","","null","51","","","","","","","","","","","","","","","",""
"","ITI","","html-keyboard-response","337","356264","0.0-1.0-468.0","0","0","67690","","null","","","null","51","","","","","","","","","","","","","","","NaN",""
"","S1","","html-keyboard-response","338","356524","0.0-1.0-470.0","0","0","67690","","null","","","null","52","","","","","","","","","","","","","","","",""
"","ISI","","html-keyboard-response","339","358542","0.0-1.0-471.0","0","0","67690","","107","","","68","52","d","","","","","","","","","","","","","","",""
"","S2","","html-keyboard-response","340","358802","0.0-1.0-472.0","0","0","67690","","null","","","null","52","","NaN","","","","","","","","","","","","","",""
"","response","","html-keyboard-response","341","358808","0.0-1.0-473.0-0.0","0","0","67690","","1","","","75","52","","","2","52","training","adjacent","CB","3","2","M.jpg","R.jpg","0","0","1","",""
"","feedback","","html-keyboard-response","342","359814","0.0-1.0-474.0-0.0","0","0","67690","","null","","","null","52","","","","","","","","","","","","","","","",""
"","ITI","","html-keyboard-response","343","360821","0.0-1.0-477.0","0","0","67690","","703","","","68","52","","","","","","","","","","","","","","","d",""
"","S1","","html-keyboard-response","344","361075","0.0-1.0-479.0","0","0","67690","","null","","","null","53","","","","","","","","","","","","","","","",""
"","ISI","","html-keyboard-response","345","363086","0.0-1.0-480.0","0","0","67690","","18","","","68","53","d","","","","","","","","","","","","","","",""
"","S2","","html-keyboard-response","346","363112","0.0-1.0-481.0","0","0","67690","","24","","","75","53","","k","2","53","training","adjacent","CD","3","4","M.jpg","O.jpg","0","1","0","",""
"","feedback","","html-keyboard-response","347","364126","0.0-1.0-483.0-0.0","0","0","67690","","null","","","null","53","","","","","","","","","","","","","","","",""
"","time_out","","html-keyboard-response","348","366128","0.0-1.0-485.0-0.0","0","0","67690","","null","","","null","53","","","","","","","","","","","","","","","",""
"","ITI","","html-keyboard-response","349","367134","0.0-1.0-486.0","0","0","67690","","null","","","null","53","","","","","","","","","","","","","","","NaN",""
"","S1","","html-keyboard-response","350","367388","0.0-1.0-488.0","0","0","67690","","null","","","null","54","","","","","","","","","","","","","","","",""
"","ISI","","html-keyboard-response","351","369398","0.0-1.0-489.0","0","0","67690","","1310","","","68","54","d","","","","","","","","","","","","","","",""
"","S2","","html-keyboard-response","352","369652","0.0-1.0-490.0","0","0","67690","","null","","","null","54","","NaN","","","","","","","","","","","","","",""
"","response","","html-keyboard-response","353","369969","0.0-1.0-491.0-0.0","0","0","67690","","315","","","75","54","","","2","54","training","adjacent","ED","5","4","P.jpg","O.jpg","0","0","1","",""
"","feedback","","html-keyboard-response","354","370974","0.0-1.0-492.0-0.0","0","0","67690","","null","","","null","54","","","","","","","","","","","","","","","",""
"","ITI","","html-keyboard-response","355","371981","0.0-1.0-495.0","0","0","67690","","null","","","null","54","","","","","","","","","","","","","","","NaN",""
"","S1","","html-keyboard-response","356","372234","0.0-1.0-497.0","0","0","67690","","null","","","null","55","","","","","","","","","","","","","","","",""
"","ISI","","html-keyboard-response","357","374236","0.0-1.0-498.0","0","0","67690","","65","","","68","55","d","","","","","","","","","","","","","","",""
"","S2","","html-keyboard-response","358","374270","0.0-1.0-499.0","0","0","67690","","33","","","68","55","","d","2","55","training","adjacent","GF","7","6","L.jpg","N.jpg","1","0","0","",""
"","feedback","","html-keyboard-response","359","375275","0.0-1.0-501.0-0.0","0","0","67690","","null","","","null","55","","","","","","","","","","","","","","","",""
"","time_out","","html-keyboard-response","360","377279","0.0-1.0-503.0-0.0","0","0","67690","","null","","","null","55","","","","","","","","","","","","","","","",""
"","ITI","","html-keyboard-response","361","378293","0.0-1.0-504.0","0","0","67690","","null","","","null","55","","","","","","","","","","","","","","","NaN",""
"","S1","","html-keyboard-response","362","378547","0.0-1.0-506.0","0","0","67690","","null","","","null","56","","","","","","","","","","","","","","","",""
"","ISI","","html-keyboard-response","363","380550","0.0-1.0-507.0","0","0","67690","","143","","","75","56","k","","","","","","","","","","","","","","",""
"","S2","","html-keyboard-response","364","380670","0.0-1.0-508.0","0","0","67690","","118","","","68","56","","d","2","56","training","adjacent","FG","6","7","N.jpg","L.jpg","1","1","1","",""
"","feedback","","html-keyboard-response","365","381676","0.0-1.0-510.0-0.0","0","0","67690","","null","","","null","56","","","","","","","","","","","","","","","",""
"","ITI","","html-keyboard-response","366","382678","0.0-1.0-513.0","0","0","67690","","null","","","null","56","","","","","","","","","","","","","","","NaN",""
"","S1","","html-keyboard-response","367","382933","0.0-1.0-515.0","0","0","67690","","null","","","null","57","","","","","","","","","","","","","","","",""
"","ISI","","html-keyboard-response","368","384938","0.0-1.0-516.0","0","0","67690","","null","","","null","57","NaN","","","","","","","","","","","","","","",""
"","S2","","html-keyboard-response","369","385194","0.0-1.0-517.0","0","0","67690","","null","","","null","57","","NaN","","","","","","","","","","","","","",""
"","response","","html-keyboard-response","370","385481","0.0-1.0-518.0-0.0","0","0","67690","","286","","","68","57","","","2","57","training","adjacent","FE","6","5","N.jpg","P.jpg","1","0","0","",""
"","feedback","","html-keyboard-response","371","386483","0.0-1.0-519.0-0.0","0","0","67690","","null","","","null","57","","","","","","","","","","","","","","","",""
"","time_out","","html-keyboard-response","372","388488","0.0-1.0-521.0-0.0","0","0","67690","","null","","","null","57","","","","","","","","","","","","","","","",""
"","ITI","","html-keyboard-response","373","389490","0.0-1.0-522.0","0","0","67690","","null","","","null","57","","","","","","","","","","","","","","","NaN",""
"","S1","","html-keyboard-response","374","389744","0.0-1.0-524.0","0","0","67690","","null","","","null","58","","","","","","","","","","","","","","","",""
"","ISI","","html-keyboard-response","375","391749","0.0-1.0-525.0","0","0","67690","","187","","","75","58","k","","","","","","","","","","","","","","",""
"","S2","","html-keyboard-response","376","392014","0.0-1.0-526.0","0","0","67690","","null","","","null","58","","NaN","","","","","","","","","","","","","",""
"","response","","html-keyboard-response","377","392138","0.0-1.0-527.0-0.0","0","0","67690","","123","","","68","58","","","2","58","training","adjacent","BA","2","1","R.jpg","Q.jpg","1","0","0","",""
"","feedback","","html-keyboard-response","378","393141","0.0-1.0-528.0-0.0","0","0","67690","","null","","","null","58","","","","","","","","","","","","","","","",""
"","time_out","","html-keyboard-response","379","395146","0.0-1.0-530.0-0.0","0","0","67690","","null","","","null","58","","","","","","","","","","","","","","","",""
"","ITI","","html-keyboard-response","380","396158","0.0-1.0-531.0","0","0","67690","","null","","","null","58","","","","","","","","","","","","","","","NaN",""
"","S1","","html-keyboard-response","381","396413","0.0-1.0-533.0","0","0","67690","","null","","","null","59","","","","","","","","","","","","","","","",""
"","ISI","","html-keyboard-response","382","398417","0.0-1.0-534.0","0","0","67690","","102","","","68","59","d","","","","","","","","","","","","","","",""
"","S2","","html-keyboard-response","383","398672","0.0-1.0-535.0","0","0","67690","","null","","","null","59","","NaN","","","","","","","","","","","","","",""
"","response","","html-keyboard-response","384","398680","0.0-1.0-536.0-0.0","0","0","67690","","8","","","75","59","","","2","59","training","adjacent","GF","7","6","L.jpg","N.jpg","0","0","1","",""
"","feedback","","html-keyboard-response","385","399684","0.0-1.0-537.0-0.0","0","0","67690","","null","","","null","59","","","","","","","","","","","","","","","",""
"","ITI","","html-keyboard-response","386","400694","0.0-1.0-540.0","0","0","67690","","null","","","null","59","","","","","","","","","","","","","","","NaN",""
"","S1","","html-keyboard-response","387","400954","0.0-1.0-542.0","0","0","67690","","null","","","null","60","","","","","","","","","","","","","","","",""
"","ISI","","html-keyboard-response","388","402970","0.0-1.0-543.0","0","0","67690","","null","","","null","60","NaN","","","","","","","","","","","","","","",""
"","S2","","html-keyboard-response","389","403224","0.0-1.0-544.0","0","0","67690","","null","","","null","60","","NaN","","","","","","","","","","","","","",""
"","response","","html-keyboard-response","390","403372","0.0-1.0-545.0-0.0","0","0","67690","","147","","","68","60","","","2","60","training","adjacent","BC","2","3","R.jpg","M.jpg","1","1","1","",""
"","feedback","","html-keyboard-response","391","404381","0.0-1.0-546.0-0.0","0","0","67690","","null","","","null","60","","","","","","","","","","","","","","","",""
"","ITI","","html-keyboard-response","392","405384","0.0-1.0-549.0","0","0","67690","","null","","","null","60","","","","","","","","","","","","","","","NaN",""
"","S1","","html-keyboard-response","393","405637","0.0-1.0-551.0","0","0","67690","","null","","","null","61","","","","","","","","","","","","","","","",""
"","ISI","","html-keyboard-response","394","407640","0.0-1.0-552.0","0","0","67690","","null","","","null","61","NaN","","","","","","","","","","","","","","",""
"","S2","","html-keyboard-response","395","407889","0.0-1.0-553.0","0","0","67690","","248","","","75","61","","k","2","61","training","adjacent","DC","4","3","O.jpg","M.jpg","0","0","1","",""
"","feedback","","html-keyboard-response","396","408894","0.0-1.0-555.0-0.0","0","0","67690","","null","","","null","61","","","","","","","","","","","","","","","",""
"","ITI","","html-keyboard-response","397","409899","0.0-1.0-558.0","0","0","67690","","null","","","null","61","","","","","","","","","","","","","","","NaN",""
"","S1","","html-keyboard-response","398","410152","0.0-1.0-560.0","0","0","67690","","null","","","null","62","","","","","","","","","","","","","","","",""
"","ISI","","html-keyboard-response","399","412155","0.0-1.0-561.0","0","0","67690","","null","","","null","62","NaN","","","","","","","","","","","","","","",""
"","S2","","html-keyboard-response","400","412422","0.0-1.0-562.0","0","0","67690","","null","","","null","62","","NaN","","","","","","","","","","","","","",""
"","response","","html-keyboard-response","401","413194","0.0-1.0-563.0-0.0","0","0","67690","","771","","","68","62","","","2","62","training","adjacent","EF","5","6","P.jpg","N.jpg","1","1","1","",""
"","feedback","","html-keyboard-response","402","414208","0.0-1.0-564.0-0.0","0","0","67690","","null","","","null","62","","","","","","","","","","","","","","","",""
"","ITI","","html-keyboard-response","403","415223","0.0-1.0-567.0","0","0","67690","","null","","","null","62","","","","","","","","","","","","","","","NaN",""
"","S1","","html-keyboard-response","404","415475","0.0-1.0-569.0","0","0","67690","","null","","","null","63","","","","","","","","","","","","","","","",""
"","ISI","","html-keyboard-response","405","417480","0.0-1.0-570.0","0","0","67690","","null","","","null","63","NaN","","","","","","","","","","","","","","",""
"","S2","","html-keyboard-response","406","417735","0.0-1.0-571.0","0","0","67690","","null","","","null","63","","NaN","","","","","","","","","","","","","",""
"","response","","html-keyboard-response","407","417818","0.0-1.0-572.0-0.0","0","0","67690","","82","","","75","63","","","2","63","training","adjacent","CD","3","4","M.jpg","O.jpg","0","1","0","",""
"","feedback","","html-keyboard-response","408","418821","0.0-1.0-573.0-0.0","0","0","67690","","null","","","null","63","","","","","","","","","","","","","","","",""
"","time_out","","html-keyboard-response","409","420827","0.0-1.0-575.0-0.0","0","0","67690","","null","","","null","63","","","","","","","","","","","","","","","",""
"","ITI","","html-keyboard-response","410","421832","0.0-1.0-576.0","0","0","67690","","null","","","null","63","","","","","","","","","","","","","","","NaN",""
"","S1","","html-keyboard-response","411","422086","0.0-1.0-578.0","0","0","67690","","null","","","null","64","","","","","","","","","","","","","","","",""
"","ISI","","html-keyboard-response","412","424092","0.0-1.0-579.0","0","0","67690","","68","","","68","64","d","","","","","","","","","","","","","","",""
"","S2","","html-keyboard-response","413","424333","0.0-1.0-580.0","0","0","67690","","239","","","68","64","","d","2","64","training","adjacent","ED","5","4","P.jpg","O.jpg","1","0","0","",""
"","feedback","","html-keyboard-response","414","425338","0.0-1.0-582.0-0.0","0","0","67690","","null","","","null","64","","","","","","","","","","","","","","","",""
"","time_out","","html-keyboard-response","415","427343","0.0-1.0-584.0-0.0","0","0","67690","","null","","","null","64","","","","","","","","","","","","","","","",""
"","ITI","","html-keyboard-response","416","428345","0.0-1.0-585.0","0","0","67690","","null","","","null","64","","","","","","","","","","","","","","","NaN",""
"","S1","","html-keyboard-response","417","428600","0.0-1.0-587.0","0","0","67690","","null","","","null","65","","","","","","","","","","","","","","","",""
"","ISI","","html-keyboard-response","418","430607","0.0-1.0-588.0","0","0","67690","","null","","","null","65","NaN","","","","","","","","","","","","","","",""
"","S2","","html-keyboard-response","419","430860","0.0-1.0-589.0","0","0","67690","","null","","","null","65","","NaN","","","","","","","","","","","","","",""
"","response","","html-keyboard-response","420","431322","0.0-1.0-590.0-0.0","0","0","67690","","460","","","75","65","","","2","65","training","adjacent","EF","5","6","P.jpg","N.jpg","0","1","0","",""
"","feedback","","html-keyboard-response","421","432325","0.0-1.0-591.0-0.0","0","0","67690","","null","","","null","65","","","","","","","","","","","","","","","",""
"","time_out","","html-keyboard-response","422","434329","0.0-1.0-593.0-0.0","0","0","67690","","null","","","null","65","","","","","","","","","","","","","","","",""
"","ITI","","html-keyboard-response","423","435331","0.0-1.0-594.0","0","0","67690","","null","","","null","65","","","","","","","","","","","","","","","NaN",""
"","S1","","html-keyboard-response","424","435584","0.0-1.0-596.0","0","0","67690","","null","","","null","66","","","","","","","","","","","","","","","",""
"","ISI","","html-keyboard-response","425","437588","0.0-1.0-597.0","0","0","67690","","null","","","null","66","NaN","","","","","","","","","","","","","","",""
"","S2","","html-keyboard-response","426","437840","0.0-1.0-598.0","0","0","67690","","null","","","null","66","","NaN","","","","","","","","","","","","","",""
"","response","","html-keyboard-response","427","438243","0.0-1.0-599.0-0.0","0","0","67690","","401","","","75","66","","","2","66","training","adjacent","BA","2","1","R.jpg","Q.jpg","0","0","1","",""
"","feedback","","html-keyboard-response","428","439249","0.0-1.0-600.0-0.0","0","0","67690","","null","","","null","66","","","","","","","","","","","","","","","",""
"","ITI","","html-keyboard-response","429","440254","0.0-1.0-603.0","0","0","67690","","null","","","null","66","","","","","","","","","","","","","","","NaN",""
"","S1","","html-keyboard-response","430","440519","0.0-1.0-605.0","0","0","67690","","null","","","null","67","","","","","","","","","","","","","","","",""
"","ISI","","html-keyboard-response","431","442526","0.0-1.0-606.0","0","0","67690","","null","","","null","67","NaN","","","","","","","","","","","","","","",""
"","S2","","html-keyboard-response","432","442753","0.0-1.0-607.0","0","0","67690","","225","","","68","67","","d","2","67","training","adjacent","GF","7","6","L.jpg","N.jpg","1","0","0","",""
"","feedback","","html-keyboard-response","433","443769","0.0-1.0-609.0-0.0","0","0","67690","","null","","","null","67","","","","","","","","","","","","","","","",""
"","time_out","","html-keyboard-response","434","445772","0.0-1.0-611.0-0.0","0","0","67690","","null","","","null","67","","","","","","","","","","","","","","","",""
"","ITI","","html-keyboard-response","435","446776","0.0-1.0-612.0","0","0","67690","","null","","","null","67","","","","","","","","","","","","","","","NaN",""
"","S1","","html-keyboard-response","436","447029","0.0-1.0-614.0","0","0","67690","","null","","","null","68","","","","","","","","","","","","","","","",""
"","ISI","","html-keyboard-response","437","449031","0.0-1.0-615.0","0","0","67690","","21","","","68","68","d","","","","","","","","","","","","","","",""
"","S2","","html-keyboard-response","438","449290","0.0-1.0-616.0","0","0","67690","","null","","","null","68","","NaN","","","","","","","","","","","","","",""
"","response","","html-keyboard-response","439","449522","0.0-1.0-617.0-0.0","0","0","67690","","230","","","68","68","","","2","68","training","adjacent","FE","6","5","N.jpg","P.jpg","1","0","0","",""
"","feedback","","html-keyboard-response","440","450526","0.0-1.0-618.0-0.0","0","0","67690","","null","","","null","68","","","","","","","","","","","","","","","",""
"","time_out","","html-keyboard-response","441","452528","0.0-1.0-620.0-0.0","0","0","67690","","null","","","null","68","","","","","","","","","","","","","","","",""
"","ITI","","html-keyboard-response","442","453537","0.0-1.0-621.0","0","0","67690","","null","","","null","68","","","","","","","","","","","","","","","NaN",""
"","S1","","html-keyboard-response","443","453792","0.0-1.0-623.0","0","0","67690","","null","","","null","69","","","","","","","","","","","","","","","",""
"","ISI","","html-keyboard-response","444","455797","0.0-1.0-624.0","0","0","67690","","12","","","75","69","k","","","","","","","","","","","","","","",""
"","S2","","html-keyboard-response","445","456057","0.0-1.0-625.0","0","0","67690","","null","","","null","69","","NaN","","","","","","","","","","","","","",""
"","response","","html-keyboard-response","446","456993","0.0-1.0-626.0-0.0","0","0","67690","","934","","","68","69","","","2","69","training","adjacent","GF","7","6","L.jpg","N.jpg","1","0","0","",""
"","feedback","","html-keyboard-response","447","458002","0.0-1.0-627.0-0.0","0","0","67690","","null","","","null","69","","","","","","","","","","","","","","","",""
"","time_out","","html-keyboard-response","448","460010","0.0-1.0-629.0-0.0","0","0","67690","","null","","","null","69","","","","","","","","","","","","","","","",""
"","ITI","","html-keyboard-response","449","461015","0.0-1.0-630.0","0","0","67690","","155","","","68","69","","","","","","","","","","","","","","","d",""
"","S1","","html-keyboard-response","450","461269","0.0-1.0-632.0","0","0","67690","","null","","","null","70","","","","","","","","","","","","","","","",""
"","ISI","","html-keyboard-response","451","463276","0.0-1.0-633.0","0","0","67690","","5","","","75","70","k","","","","","","","","","","","","","","",""
"","S2","","html-keyboard-response","452","463532","0.0-1.0-634.0","0","0","67690","","null","","","null","70","","NaN","","","","","","","","","","","","","",""
"","response","","html-keyboard-response","453","463716","0.0-1.0-635.0-0.0","0","0","67690","","180","","","68","70","","","2","70","training","adjacent","AB","1","2","Q.jpg","R.jpg","1","1","1","",""
"","feedback","","html-keyboard-response","454","464723","0.0-1.0-636.0-0.0","0","0","67690","","null","","","null","70","","","","","","","","","","","","","","","",""
"","ITI","","html-keyboard-response","455","465732","0.0-1.0-639.0","0","0","67690","","null","","","null","70","","","","","","","","","","","","","","","NaN",""
"","S1","","html-keyboard-response","456","465996","0.0-1.0-641.0","0","0","67690","","null","","","null","71","","","","","","","","","","","","","","","",""
"","ISI","","html-keyboard-response","457","468003","0.0-1.0-642.0","0","0","67690","","139","","","75","71","k","","","","","","","","","","","","","","",""
"","S2","","html-keyboard-response","458","468260","0.0-1.0-643.0","0","0","67690","","null","","","null","71","","NaN","","","","","","","","","","","","","",""
"","response","","html-keyboard-response","459","468352","0.0-1.0-644.0-0.0","0","0","67690","","85","","","68","71","","","2","71","training","adjacent","FG","6","7","N.jpg","L.jpg","1","1","1","",""
"","feedback","","html-keyboard-response","460","469357","0.0-1.0-645.0-0.0","0","0","67690","","null","","","null","71","","","","","","","","","","","","","","","",""
"","ITI","","html-keyboard-response","461","470362","0.0-1.0-648.0","0","0","67690","","null","","","null","71","","","","","","","","","","","","","","","NaN",""
"","S1","","html-keyboard-response","462","470618","0.0-1.0-650.0","0","0","67690","","null","","","null","72","","","","","","","","","","","","","","","",""
"","ISI","","html-keyboard-response","463","472624","0.0-1.0-651.0","0","0","67690","","119","","","68","72","d","","","","","","","","","","","","","","",""
"","S2","","html-keyboard-response","464","472722","0.0-1.0-652.0","0","0","67690","","93","","","75","72","","k","2","72","training","adjacent","ED","5","4","P.jpg","O.jpg","0","0","1","",""
"","feedback","","html-keyboard-response","465","473728","0.0-1.0-654.0-0.0","0","0","67690","","null","","","null","72","","","","","","","","","","","","","","","",""
"","ITI","","html-keyboard-response","466","474746","0.0-1.0-657.0","0","0","67690","","null","","","null","72","","","","","","","","","","","","","","","NaN",""
"","S1","","html-keyboard-response","467","475003","0.0-1.0-659.0","0","0","67690","","null","","","null","73","","","","","","","","","","","","","","","",""
"","ISI","","html-keyboard-response","468","477010","0.0-1.0-660.0","0","0","67690","","552","","","68","73","d","","","","","","","","","","","","","","",""
"","S2","","html-keyboard-response","469","477082","0.0-1.0-661.0","0","0","67690","","67","","","68","73","","d","2","73","training","adjacent","DC","4","3","O.jpg","M.jpg","1","0","0","",""
"","feedback","","html-keyboard-response","470","478093","0.0-1.0-663.0-0.0","0","0","67690","","null","","","null","73","","","","","","","","","","","","","","","",""
"","time_out","","html-keyboard-response","471","480102","0.0-1.0-665.0-0.0","0","0","67690","","null","","","null","73","","","","","","","","","","","","","","","",""
"","ITI","","html-keyboard-response","472","481109","0.0-1.0-666.0","0","0","67690","","null","","","null","73","","","","","","","","","","","","","","","NaN",""
"","S1","","html-keyboard-response","473","481370","0.0-1.0-668.0","0","0","67690","","null","","","null","74","","","","","","","","","","","","","","","",""
"","ISI","","html-keyboard-response","474","483377","0.0-1.0-669.0","0","0","67690","","430","","","68","74","d","","","","","","","","","","","","","","",""
"","S2","","html-keyboard-response","475","483642","0.0-1.0-670.0","0","0","67690","","null","","","null","74","","NaN","","","","","","","","","","","","","",""
"","response","","html-keyboard-response","476","483811","0.0-1.0-671.0-0.0","0","0","67690","","165","","","75","74","","","2","74","training","adjacent","AB","1","2","Q.jpg","R.jpg","0","1","0","",""
"","feedback","","html-keyboard-response","477","484818","0.0-1.0-672.0-0.0","0","0","67690","","null","","","null","74","","","","","","","","","","","","","","","",""
"","time_out","","html-keyboard-response","478","486825","0.0-1.0-674.0-0.0","0","0","67690","","null","","","null","74","","","","","","","","","","","","","","","",""
"","ITI","","html-keyboard-response","479","487835","0.0-1.0-675.0","0","0","67690","","null","","","null","74","","","","","","","","","","","","","","","NaN",""
"","S1","","html-keyboard-response","480","488092","0.0-1.0-677.0","0","0","67690","","null","","","null","75","","","","","","","","","","","","","","","",""
"","ISI","","html-keyboard-response","481","490107","0.0-1.0-678.0","0","0","67690","","639","","","68","75","d","","","","","","","","","","","","","","",""
"","S2","","html-keyboard-response","482","490362","0.0-1.0-679.0","0","0","67690","","null","","","null","75","","NaN","","","","","","","","","","","","","",""
"","response","","html-keyboard-response","483","490485","0.0-1.0-680.0-0.0","0","0","67690","","119","","","68","75","","","2","75","training","adjacent","FE","6","5","N.jpg","P.jpg","1","0","0","",""
"","feedback","","html-keyboard-response","484","491493","0.0-1.0-681.0-0.0","0","0","67690","","null","","","null","75","","","","","","","","","","","","","","","",""
"","time_out","","html-keyboard-response","485","493508","0.0-1.0-683.0-0.0","0","0","67690","","null","","","null","75","","","","","","","","","","","","","","","",""
"","ITI","","html-keyboard-response","486","494516","0.0-1.0-684.0","0","0","67690","","null","","","null","75","","","","","","","","","","","","","","","NaN",""
"","S1","","html-keyboard-response","487","494774","0.0-1.0-686.0","0","0","67690","","null","","","null","76","","","","","","","","","","","","","","","",""
"","ISI","","html-keyboard-response","488","496782","0.0-1.0-687.0","0","0","67690","","54","","","74","76","j","","","","","","","","","","","","","","",""
"","S2","","html-keyboard-response","489","496909","0.0-1.0-688.0","0","0","67690","","122","","","68","76","","d","2","76","training","adjacent","AB","1","2","Q.jpg","R.jpg","1","1","1","",""
"","feedback","","html-keyboard-response","490","497916","0.0-1.0-690.0-0.0","0","0","67690","","null","","","null","76","","","","","","","","","","","","","","","",""
"","ITI","","html-keyboard-response","491","498930","0.0-1.0-693.0","0","0","67690","","null","","","null","76","","","","","","","","","","","","","","","NaN",""
"","S1","","html-keyboard-response","492","499185","0.0-1.0-695.0","0","0","67690","","null","","","null","77","","","","","","","","","","","","","","","",""
"","ISI","","html-keyboard-response","493","501195","0.0-1.0-696.0","0","0","67690","","null","","","null","77","NaN","","","","","","","","","","","","","","",""
"","S2","","html-keyboard-response","494","501452","0.0-1.0-697.0","0","0","67690","","null","","","null","77","","NaN","","","","","","","","","","","","","",""
"","response","","html-keyboard-response","495","501494","0.0-1.0-698.0-0.0","0","0","67690","","37","","","75","77","","","2","77","training","adjacent","FG","6","7","N.jpg","L.jpg","0","1","0","",""
"","feedback","","html-keyboard-response","496","502506","0.0-1.0-699.0-0.0","0","0","67690","","null","","","null","77","","","","","","","","","","","","","","","",""
"","time_out","","html-keyboard-response","497","504511","0.0-1.0-701.0-0.0","0","0","67690","","null","","","null","77","","","","","","","","","","","","","","","",""
"","ITI","","html-keyboard-response","498","505517","0.0-1.0-702.0","0","0","67690","","598","","","68","77","","","","","","","","","","","","","","","d",""
"","S1","","html-keyboard-response","499","505775","0.0-1.0-704.0","0","0","67690","","null","","","null","78","","","","","","","","","","","","","","","",""
"","ISI","","html-keyboard-response","500","507782","0.0-1.0-705.0","0","0","67690","","134","","","68","78","d","","","","","","","","","","","","","","",""
"","S2","","html-keyboard-response","501","508041","0.0-1.0-706.0","0","0","67690","","null","","","null","78","","NaN","","","","","","","","","","","","","",""
"","response","","html-keyboard-response","502","508223","0.0-1.0-707.0-0.0","0","0","67690","","177","","","68","78","","","2","78","training","adjacent","CD","3","4","M.jpg","O.jpg","1","1","1","",""
"","feedback","","html-keyboard-response","503","509229","0.0-1.0-708.0-0.0","0","0","67690","","null","","","null","78","","","","","","","","","","","","","","","",""
"","ITI","","html-keyboard-response","504","510236","0.0-1.0-711.0","0","0","67690","","null","","","null","78","","","","","","","","","","","","","","","NaN",""
"","S1","","html-keyboard-response","505","510491","0.0-1.0-713.0","0","0","67690","","null","","","null","79","","","","","","","","","","","","","","","",""
"","ISI","","html-keyboard-response","506","512503","0.0-1.0-714.0","0","0","67690","","null","","","null","79","NaN","","","","","","","","","","","","","","",""
"","S2","","html-keyboard-response","507","512772","0.0-1.0-715.0","0","0","67690","","null","","","null","79","","NaN","","","","","","","","","","","","","",""
"","response","","html-keyboard-response","508","512935","0.0-1.0-716.0-0.0","0","0","67690","","157","","","68","79","","","2","79","training","adjacent","CB","3","2","M.jpg","R.jpg","1","0","0","",""
"","feedback","","html-keyboard-response","509","513996","0.0-1.0-717.0-0.0","0","0","67690","","null","","","null","79","","","","","","","","","","","","","","","",""
"","time_out","","html-keyboard-response","510","516005","0.0-1.0-719.0-0.0","0","0","67690","","null","","","null","79","","","","","","","","","","","","","","","",""
"","ITI","","html-keyboard-response","511","517010","0.0-1.0-720.0","0","0","67690","","null","","","null","79","","","","","","","","","","","","","","","NaN",""
"","S1","","html-keyboard-response","512","517266","0.0-1.0-722.0","0","0","67690","","null","","","null","80","","","","","","","","","","","","","","","",""
"","ISI","","html-keyboard-response","513","519272","0.0-1.0-723.0","0","0","67690","","151","","","75","80","k","","","","","","","","","","","","","","",""
"","S2","","html-keyboard-response","514","519530","0.0-1.0-724.0","0","0","67690","","null","","","null","80","","NaN","","","","","","","","","","","","","",""
"","response","","html-keyboard-response","515","519539","0.0-1.0-725.0-0.0","0","0","67690","","6","","","75","80","","","2","80","training","adjacent","CB","3","2","M.jpg","R.jpg","0","0","1","",""
"","feedback","","html-keyboard-response","516","520547","0.0-1.0-726.0-0.0","0","0","67690","","null","","","null","80","","","","","","","","","","","","","","","",""
"","ITI","","html-keyboard-response","517","521553","0.0-1.0-729.0","0","0","67690","","886","","","75","80","","","","","","","","","","","","","","","k",""
"","S1","","html-keyboard-response","518","521811","0.0-1.0-731.0","0","0","67690","","null","","","null","81","","","","","","","","","","","","","","","",""
"","ISI","","html-keyboard-response","519","523825","0.0-1.0-732.0","0","0","67690","","null","","","null","81","NaN","","","","","","","","","","","","","","",""
"","S2","","html-keyboard-response","520","524083","0.0-1.0-733.0","0","0","67690","","null","","","null","81","","NaN","","","","","","","","","","","","","",""
"","response","","html-keyboard-response","521","524116","0.0-1.0-734.0-0.0","0","0","67690","","29","","","68","81","","","2","81","training","adjacent","BC","2","3","R.jpg","M.jpg","1","1","1","",""
"","feedback","","html-keyboard-response","522","525124","0.0-1.0-735.0-0.0","0","0","67690","","null","","","null","81","","","","","","","","","","","","","","","",""
"","ITI","","html-keyboard-response","523","526132","0.0-1.0-738.0","0","0","67690","","null","","","null","81","","","","","","","","","","","","","","","NaN",""
"","S1","","html-keyboard-response","524","526388","0.0-1.0-740.0","0","0","67690","","null","","","null","82","","","","","","","","","","","","","","","",""
"","ISI","","html-keyboard-response","525","528396","0.0-1.0-741.0","0","0","67690","","null","","","null","82","NaN","","","","","","","","","","","","","","",""
"","S2","","html-keyboard-response","526","528665","0.0-1.0-742.0","0","0","67690","","264","","","68","82","","d","2","82","training","adjacent","FG","6","7","N.jpg","L.jpg","1","1","1","",""
"","feedback","","html-keyboard-response","527","529672","0.0-1.0-744.0-0.0","0","0","67690","","null","","","null","82","","","","","","","","","","","","","","","",""
"","ITI","","html-keyboard-response","528","530677","0.0-1.0-747.0","0","0","67690","","null","","","null","82","","","","","","","","","","","","","","","NaN",""
"","S1","","html-keyboard-response","529","530937","0.0-1.0-749.0","0","0","67690","","null","","","null","83","","","","","","","","","","","","","","","",""
"","ISI","","html-keyboard-response","530","532951","0.0-1.0-750.0","0","0","67690","","null","","","null","83","NaN","","","","","","","","","","","","","","",""
"","S2","","html-keyboard-response","531","533217","0.0-1.0-751.0","0","0","67690","","null","","","null","83","","NaN","","","","","","","","","","","","","",""
"","response","","html-keyboard-response","532","533348","0.0-1.0-752.0-0.0","0","0","67690","","127","","","68","83","","","2","83","training","adjacent","BC","2","3","R.jpg","M.jpg","1","1","1","",""
"","feedback","","html-keyboard-response","533","534354","0.0-1.0-753.0-0.0","0","0","67690","","null","","","null","83","","","","","","","","","","","","","","","",""
"","ITI","","html-keyboard-response","534","535360","0.0-1.0-756.0","0","0","67690","","null","","","null","83","","","","","","","","","","","","","","","NaN",""
"","S1","","html-keyboard-response","535","535618","0.0-1.0-758.0","0","0","67690","","null","","","null","84","","","","","","","","","","","","","","","",""
"","ISI","","html-keyboard-response","536","537623","0.0-1.0-759.0","0","0","67690","","null","","","null","84","NaN","","","","","","","","","","","","","","",""
"","S2","","html-keyboard-response","537","537885","0.0-1.0-760.0","0","0","67690","","null","","","null","84","","NaN","","","","","","","","","","","","","",""
"","response","","html-keyboard-response","538","538383","0.0-1.0-761.0-0.0","0","0","67690","","493","","","75","84","","","2","84","training","adjacent","CB","3","2","M.jpg","R.jpg","0","0","1","",""
"","feedback","","html-keyboard-response","539","539391","0.0-1.0-762.0-0.0","0","0","67690","","null","","","null","84","","","","","","","","","","","","","","","",""
"","ITI","","html-keyboard-response","540","540398","0.0-1.0-765.0","0","0","67690","","null","","","null","84","","","","","","","","","","","","","","","NaN",""
"","S1","","html-keyboard-response","541","540668","0.0-1.0-767.0","0","0","67690","","null","","","null","85","","","","","","","","","","","","","","","",""
"","ISI","","html-keyboard-response","542","542678","0.0-1.0-768.0","0","0","67690","","null","","","null","85","NaN","","","","","","","","","","","","","","",""
"","S2","","html-keyboard-response","543","542846","0.0-1.0-769.0","0","0","67690","","164","","","68","85","","d","2","85","training","adjacent","BA","2","1","R.jpg","Q.jpg","1","0","0","",""
"","feedback","","html-keyboard-response","544","543853","0.0-1.0-771.0-0.0","0","0","67690","","null","","","null","85","","","","","","","","","","","","","","","",""
"","time_out","","html-keyboard-response","545","545861","0.0-1.0-773.0-0.0","0","0","67690","","null","","","null","85","","","","","","","","","","","","","","","",""
"","ITI","","html-keyboard-response","546","546868","0.0-1.0-774.0","0","0","67690","","null","","","null","85","","","","","","","","","","","","","","","NaN",""
"","S1","","html-keyboard-response","547","547123","0.0-1.0-776.0","0","0","67690","","null","","","null","86","","","","","","","","","","","","","","","",""
"","ISI","","html-keyboard-response","548","549131","0.0-1.0-777.0","0","0","67690","","130","","","68","86","d","","","","","","","","","","","","","","",""
"","S2","","html-keyboard-response","549","549391","0.0-1.0-778.0","0","0","67690","","null","","","null","86","","NaN","","","","","","","","","","","","","",""
"","response","","html-keyboard-response","550","549542","0.0-1.0-779.0-0.0","0","0","67690","","147","","","68","86","","","2","86","training","adjacent","DC","4","3","O.jpg","M.jpg","1","0","0","",""
"","feedback","","html-keyboard-response","551","550548","0.0-1.0-780.0-0.0","0","0","67690","","null","","","null","86","","","","","","","","","","","","","","","",""
"","time_out","","html-keyboard-response","552","552554","0.0-1.0-782.0-0.0","0","0","67690","","null","","","null","86","","","","","","","","","","","","","","","",""
"","ITI","","html-keyboard-response","553","553564","0.0-1.0-783.0","0","0","67690","","null","","","null","86","","","","","","","","","","","","","","","NaN",""
"","S1","","html-keyboard-response","554","553828","0.0-1.0-785.0","0","0","67690","","null","","","null","87","","","","","","","","","","","","","","","",""
"","ISI","","html-keyboard-response","555","555834","0.0-1.0-786.0","0","0","67690","","60","","","68","87","d","","","","","","","","","","","","","","",""
"","S2","","html-keyboard-response","556","556092","0.0-1.0-787.0","0","0","67690","","null","","","null","87","","NaN","","","","","","","","","","","","","",""
"","response","","html-keyboard-response","557","556488","0.0-1.0-788.0-0.0","0","0","67690","","393","","","75","87","","","2","87","training","adjacent","AB","1","2","Q.jpg","R.jpg","0","1","0","",""
"","feedback","","html-keyboard-response","558","557500","0.0-1.0-789.0-0.0","0","0","67690","","null","","","null","87","","","","","","","","","","","","","","","",""
"","time_out","","html-keyboard-response","559","559507","0.0-1.0-791.0-0.0","0","0","67690","","null","","","null","87","","","","","","","","","","","","","","","",""
"","ITI","","html-keyboard-response","560","560524","0.0-1.0-792.0","0","0","67690","","376","","","75","87","","","","","","","","","","","","","","","k",""
"","S1","","html-keyboard-response","561","560796","0.0-1.0-794.0","0","0","67690","","null","","","null","88","","","","","","","","","","","","","","","",""
"","ISI","","html-keyboard-response","562","562800","0.0-1.0-795.0","0","0","67690","","362","","","75","88","k","","","","","","","","","","","","","","",""
"","S2","","html-keyboard-response","563","563057","0.0-1.0-796.0","0","0","67690","","null","","","null","88","","NaN","","","","","","","","","","","","","",""
"","response","","html-keyboard-response","564","563261","0.0-1.0-797.0-0.0","0","0","67690","","199","","","75","88","","","2","88","training","adjacent","BA","2","1","R.jpg","Q.jpg","0","0","1","",""
"","feedback","","html-keyboard-response","565","564268","0.0-1.0-798.0-0.0","0","0","67690","","null","","","null","88","","","","","","","","","","","","","","","",""
"","ITI","","html-keyboard-response","566","565274","0.0-1.0-801.0","0","0","67690","","346","","","75","88","","","","","","","","","","","","","","","k",""
"","S1","","html-keyboard-response","567","565542","0.0-1.0-803.0","0","0","67690","","null","","","null","89","","","","","","","","","","","","","","","",""
"","ISI","","html-keyboard-response","568","567546","0.0-1.0-804.0","0","0","67690","","441","","","68","89","d","","","","","","","","","","","","","","",""
"","S2","","html-keyboard-response","569","567790","0.0-1.0-805.0","0","0","67690","","240","","","75","89","","k","2","89","training","adjacent","DE","4","5","O.jpg","P.jpg","0","1","0","",""
"","feedback","","html-keyboard-response","570","568805","0.0-1.0-807.0-0.0","0","0","67690","","null","","","null","89","","","","","","","","","","","","","","","",""
"","time_out","","html-keyboard-response","571","570810","0.0-1.0-809.0-0.0","0","0","67690","","null","","","null","89","","","","","","","","","","","","","","","",""
"","ITI","","html-keyboard-response","572","571820","0.0-1.0-810.0","0","0","67690","","860","","","75","89","","","","","","","","","","","","","","","k",""
"","S1","","html-keyboard-response","573","572075","0.0-1.0-812.0","0","0","67690","","null","","","null","90","","","","","","","","","","","","","","","",""
"","ISI","","html-keyboard-response","574","574082","0.0-1.0-813.0","0","0","67690","","150","","","68","90","d","","","","","","","","","","","","","","",""
"","S2","","html-keyboard-response","575","574118","0.0-1.0-814.0","0","0","67690","","31","","","68","90","","d","2","90","training","adjacent","EF","5","6","P.jpg","N.jpg","1","1","1","",""
"","feedback","","html-keyboard-response","576","575124","0.0-1.0-816.0-0.0","0","0","67690","","null","","","null","90","","","","","","","","","","","","","","","",""
"","ITI","","html-keyboard-response","577","576130","0.0-1.0-819.0","0","0","67690","","null","","","null","90","","","","","","","","","","","","","","","NaN",""
"","S1","","html-keyboard-response","578","576386","0.0-1.0-821.0","0","0","67690","","null","","","null","91","","","","","","","","","","","","","","","",""
"","ISI","","html-keyboard-response","579","578395","0.0-1.0-822.0","0","0","67690","","60","","","68","91","d","","","","","","","","","","","","","","",""
"","S2","","html-keyboard-response","580","578653","0.0-1.0-823.0","0","0","67690","","null","","","null","91","","NaN","","","","","","","","","","","","","",""
"","response","","html-keyboard-response","581","579032","0.0-1.0-824.0-0.0","0","0","67690","","375","","","68","91","","","2","91","training","adjacent","DC","4","3","O.jpg","M.jpg","1","0","0","",""
"","feedback","","html-keyboard-response","582","580040","0.0-1.0-825.0-0.0","0","0","67690","","null","","","null","91","","","","","","","","","","","","","","","",""
"","time_out","","html-keyboard-response","583","582051","0.0-1.0-827.0-0.0","0","0","67690","","null","","","null","91","","","","","","","","","","","","","","","",""
