"success","ttype","start_time","trial_type","trial_index","time_elapsed","internal_node_id","warning","missed_checkup","PID","view_history","rt","responses","repeat_instructions","key_press","index","keypress_isi","keypress_S2","block","trial_num","phase","group_type","pair_type","S1_stim","S2_stim","S1_img","S2_img","S1_chosen","S1_higher","accuracy","keypress_iti","total_bonus_tally"
"true","full_screen","d08052022hr1246","fullscreen","0","13223","0.0-0.0","0","0","69931","","","","","","","","","","","","","","","","","","","","","",""
"","instructions","","instructions","1","105233","0.0-1.0-0.0-0.0","0","0","69931","[{""page_index"":0,""viewing_time"":10854},{""page_index"":1,""viewing_time"":60988},{""page_index"":2,""viewing_time"":16092},{""page_index"":3,""viewing_time"":4069}]","92003","","","","","","","","","","","","","","","","","","","",""
"","comprehension_check","","survey-multi-choice","2","133404","0.0-1.0-0.0-1.0","0","0","69931","","28159","{""Q0"":""True"",""Q1"":""K"",""Q2"":""Once the second image appears and while the screen 'MAKE A CHOICE' is shown"",""Q3"":""Green mark"",""Q4"":""either D or K""}","0","","","","","","","","","","","","","","","","","",""
"","start_exp","","html-keyboard-response","3","135796","0.0-1.0-1.0","0","0","69931","","2388","","","32","","","","","","","","","","","","","","","","",""
"","S1","","html-keyboard-response","4","136052","0.0-1.0-2.0","0","0","69931","","null","","","null","0","","","","","","","","","","","","","","","",""
"","ISI","","html-keyboard-response","5","138056","0.0-1.0-3.0","0","0","69931","","null","","","null","0","NaN","","","","","","","","","","","","","","",""
"","S2","","html-keyboard-response","6","138310","0.0-1.0-4.0","0","0","69931","","null","","","null","0","","NaN","","","","","","","","","","","","","",""
"","response","","html-keyboard-response","7","139426","0.0-1.0-5.0-0.0","0","0","69931","","1112","","","75","0","","","1","0","training","adjacent","BC","2","3","O.jpg","N.jpg","1","1","1","",""
"","feedback","","html-keyboard-response","8","140431","0.0-1.0-6.0-0.0","0","0","69931","","null","","","null","0","","","","","","","","","","","","","","","",""
"","ITI","","html-keyboard-response","9","141436","0.0-1.0-9.0","0","0","69931","","null","","","null","0","","","","","","","","","","","","","","","NaN",""
"","S1","","html-keyboard-response","10","141690","0.0-1.0-11.0","0","0","69931","","null","","","null","1","","","","","","","","","","","","","","","",""
"","ISI","","html-keyboard-response","11","143695","0.0-1.0-12.0","0","0","69931","","null","","","null","1","NaN","","","","","","","","","","","","","","",""
"","S2","","html-keyboard-response","12","143950","0.0-1.0-13.0","0","0","69931","","null","","","null","1","","NaN","","","","","","","","","","","","","",""
"","response","","html-keyboard-response","13","144492","0.0-1.0-14.0-0.0","0","0","69931","","538","","","75","1","","","1","1","training","adjacent","FG","6","7","R.jpg","Q.jpg","1","1","1","",""
"","feedback","","html-keyboard-response","14","145495","0.0-1.0-15.0-0.0","0","0","69931","","null","","","null","1","","","","","","","","","","","","","","","",""
"","ITI","","html-keyboard-response","15","146498","0.0-1.0-18.0","0","0","69931","","null","","","null","1","","","","","","","","","","","","","","","NaN",""
"","S1","","html-keyboard-response","16","146753","0.0-1.0-20.0","0","0","69931","","null","","","null","2","","","","","","","","","","","","","","","",""
"","ISI","","html-keyboard-response","17","148757","0.0-1.0-21.0","0","0","69931","","null","","","null","2","NaN","","","","","","","","","","","","","","",""
"","S2","","html-keyboard-response","18","149011","0.0-1.0-22.0","0","0","69931","","null","","","null","2","","NaN","","","","","","","","","","","","","",""
"","response","","html-keyboard-response","19","149291","0.0-1.0-23.0-0.0","0","0","69931","","278","","","68","2","","","1","2","training","adjacent","ED","5","4","M.jpg","L.jpg","0","0","1","",""
"","feedback","","html-keyboard-response","20","150296","0.0-1.0-24.0-0.0","0","0","69931","","null","","","null","2","","","","","","","","","","","","","","","",""
"","ITI","","html-keyboard-response","21","151302","0.0-1.0-27.0","0","0","69931","","null","","","null","2","","","","","","","","","","","","","","","NaN",""
"","S1","","html-keyboard-response","22","151556","0.0-1.0-29.0","0","0","69931","","null","","","null","3","","","","","","","","","","","","","","","",""
"","ISI","","html-keyboard-response","23","153559","0.0-1.0-30.0","0","0","69931","","null","","","null","3","NaN","","","","","","","","","","","","","","",""
"","S2","","html-keyboard-response","24","153814","0.0-1.0-31.0","0","0","69931","","null","","","null","3","","NaN","","","","","","","","","","","","","",""
"","response","","html-keyboard-response","25","154211","0.0-1.0-32.0-0.0","0","0","69931","","394","","","68","3","","","1","3","training","adjacent","AB","1","2","P.jpg","O.jpg","0","1","0","",""
"","feedback","","html-keyboard-response","26","155215","0.0-1.0-33.0-0.0","0","0","69931","","null","","","null","3","","","","","","","","","","","","","","","",""
"","time_out","","html-keyboard-response","27","157219","0.0-1.0-35.0-0.0","0","0","69931","","null","","","null","3","","","","","","","","","","","","","","","",""
"","ITI","","html-keyboard-response","28","158223","0.0-1.0-36.0","0","0","69931","","null","","","null","3","","","","","","","","","","","","","","","NaN",""
"","S1","","html-keyboard-response","29","158476","0.0-1.0-38.0","0","0","69931","","null","","","null","4","","","","","","","","","","","","","","","",""
"","ISI","","html-keyboard-response","30","160480","0.0-1.0-39.0","0","0","69931","","null","","","null","4","NaN","","","","","","","","","","","","","","",""
"","S2","","html-keyboard-response","31","160735","0.0-1.0-40.0","0","0","69931","","null","","","null","4","","NaN","","","","","","","","","","","","","",""
"","response","","html-keyboard-response","32","161291","0.0-1.0-41.0-0.0","0","0","69931","","554","","","75","4","","","1","4","training","adjacent","BC","2","3","O.jpg","N.jpg","1","1","1","",""
"","feedback","","html-keyboard-response","33","162295","0.0-1.0-42.0-0.0","0","0","69931","","null","","","null","4","","","","","","","","","","","","","","","",""
"","ITI","","html-keyboard-response","34","163299","0.0-1.0-45.0","0","0","69931","","null","","","null","4","","","","","","","","","","","","","","","NaN",""
"","S1","","html-keyboard-response","35","163552","0.0-1.0-47.0","0","0","69931","","null","","","null","5","","","","","","","","","","","","","","","",""
"","ISI","","html-keyboard-response","36","165555","0.0-1.0-48.0","0","0","69931","","null","","","null","5","NaN","","","","","","","","","","","","","","",""
"","S2","","html-keyboard-response","37","165809","0.0-1.0-49.0","0","0","69931","","null","","","null","5","","NaN","","","","","","","","","","","","","",""
"","response","","html-keyboard-response","38","166355","0.0-1.0-50.0-0.0","0","0","69931","","543","","","68","5","","","1","5","training","adjacent","ED","5","4","M.jpg","L.jpg","0","0","1","",""
"","feedback","","html-keyboard-response","39","167359","0.0-1.0-51.0-0.0","0","0","69931","","null","","","null","5","","","","","","","","","","","","","","","",""
"","ITI","","html-keyboard-response","40","168364","0.0-1.0-54.0","0","0","69931","","null","","","null","5","","","","","","","","","","","","","","","NaN",""
"","S1","","html-keyboard-response","41","168619","0.0-1.0-56.0","0","0","69931","","null","","","null","6","","","","","","","","","","","","","","","",""
"","ISI","","html-keyboard-response","42","170621","0.0-1.0-57.0","0","0","69931","","null","","","null","6","NaN","","","","","","","","","","","","","","",""
"","S2","","html-keyboard-response","43","170876","0.0-1.0-58.0","0","0","69931","","null","","","null","6","","NaN","","","","","","","","","","","","","",""
"","response","","html-keyboard-response","44","171299","0.0-1.0-59.0-0.0","0","0","69931","","420","","","68","6","","","1","6","training","adjacent","FE","6","5","R.jpg","M.jpg","0","0","1","",""
"","feedback","","html-keyboard-response","45","172303","0.0-1.0-60.0-0.0","0","0","69931","","null","","","null","6","","","","","","","","","","","","","","","",""
"","ITI","","html-keyboard-response","46","173307","0.0-1.0-63.0","0","0","69931","","null","","","null","6","","","","","","","","","","","","","","","NaN",""
"","S1","","html-keyboard-response","47","173561","0.0-1.0-65.0","0","0","69931","","null","","","null","7","","","","","","","","","","","","","","","",""
"","ISI","","html-keyboard-response","48","175565","0.0-1.0-66.0","0","0","69931","","null","","","null","7","NaN","","","","","","","","","","","","","","",""
"","S2","","html-keyboard-response","49","175819","0.0-1.0-67.0","0","0","69931","","null","","","null","7","","NaN","","","","","","","","","","","","","",""
"","response","","html-keyboard-response","50","176139","0.0-1.0-68.0-0.0","0","0","69931","","317","","","68","7","","","1","7","training","adjacent","CD","3","4","N.jpg","L.jpg","0","1","0","",""
"","feedback","","html-keyboard-response","51","177144","0.0-1.0-69.0-0.0","0","0","69931","","null","","","null","7","","","","","","","","","","","","","","","",""
"","time_out","","html-keyboard-response","52","179147","0.0-1.0-71.0-0.0","0","0","69931","","null","","","null","7","","","","","","","","","","","","","","","",""
"","ITI","","html-keyboard-response","53","180152","0.0-1.0-72.0","0","0","69931","","null","","","null","7","","","","","","","","","","","","","","","NaN",""
"","S1","","html-keyboard-response","54","180405","0.0-1.0-74.0","0","0","69931","","null","","","null","8","","","","","","","","","","","","","","","",""
"","ISI","","html-keyboard-response","55","182409","0.0-1.0-75.0","0","0","69931","","null","","","null","8","NaN","","","","","","","","","","","","","","",""
"","S2","","html-keyboard-response","56","182661","0.0-1.0-76.0","0","0","69931","","null","","","null","8","","NaN","","","","","","","","","","","","","",""
"","response","","html-keyboard-response","57","183077","0.0-1.0-77.0-0.0","0","0","69931","","412","","","68","8","","","1","8","training","adjacent","GF","7","6","Q.jpg","R.jpg","0","0","1","",""
"","feedback","","html-keyboard-response","58","184081","0.0-1.0-78.0-0.0","0","0","69931","","null","","","null","8","","","","","","","","","","","","","","","",""
"","ITI","","html-keyboard-response","59","185084","0.0-1.0-81.0","0","0","69931","","null","","","null","8","","","","","","","","","","","","","","","NaN",""
"","S1","","html-keyboard-response","60","185338","0.0-1.0-83.0","0","0","69931","","null","","","null","9","","","","","","","","","","","","","","","",""
"","ISI","","html-keyboard-response","61","187341","0.0-1.0-84.0","0","0","69931","","null","","","null","9","NaN","","","","","","","","","","","","","","",""
"","S2","","html-keyboard-response","62","187594","0.0-1.0-85.0","0","0","69931","","null","","","null","9","","NaN","","","","","","","","","","","","","",""
"","response","","html-keyboard-response","63","188148","0.0-1.0-86.0-0.0","0","0","69931","","550","","","68","9","","","1","9","training","adjacent","DE","4","5","L.jpg","M.jpg","0","1","0","",""
"","feedback","","html-keyboard-response","64","189152","0.0-1.0-87.0-0.0","0","0","69931","","null","","","null","9","","","","","","","","","","","","","","","",""
"","time_out","","html-keyboard-response","65","191154","0.0-1.0-89.0-0.0","0","0","69931","","null","","","null","9","","","","","","","","","","","","","","","",""
"","ITI","","html-keyboard-response","66","192158","0.0-1.0-90.0","0","0","69931","","null","","","null","9","","","","","","","","","","","","","","","NaN",""
"","S1","","html-keyboard-response","67","192412","0.0-1.0-92.0","0","0","69931","","null","","","null","10","","","","","","","","","","","","","","","",""
"","ISI","","html-keyboard-response","68","194415","0.0-1.0-93.0","0","0","69931","","null","","","null","10","NaN","","","","","","","","","","","","","","",""
"","S2","","html-keyboard-response","69","194670","0.0-1.0-94.0","0","0","69931","","null","","","null","10","","NaN","","","","","","","","","","","","","",""
"","response","","html-keyboard-response","70","195212","0.0-1.0-95.0-0.0","0","0","69931","","539","","","75","10","","","1","10","training","adjacent","BA","2","1","O.jpg","P.jpg","1","0","0","",""
"","feedback","","html-keyboard-response","71","196216","0.0-1.0-96.0-0.0","0","0","69931","","null","","","null","10","","","","","","","","","","","","","","","",""
"","time_out","","html-keyboard-response","72","198221","0.0-1.0-98.0-0.0","0","0","69931","","null","","","null","10","","","","","","","","","","","","","","","",""
"","ITI","","html-keyboard-response","73","199224","0.0-1.0-99.0","0","0","69931","","null","","","null","10","","","","","","","","","","","","","","","NaN",""
"","S1","","html-keyboard-response","74","199477","0.0-1.0-101.0","0","0","69931","","null","","","null","11","","","","","","","","","","","","","","","",""
"","ISI","","html-keyboard-response","75","201480","0.0-1.0-102.0","0","0","69931","","null","","","null","11","NaN","","","","","","","","","","","","","","",""
"","S2","","html-keyboard-response","76","201734","0.0-1.0-103.0","0","0","69931","","null","","","null","11","","NaN","","","","","","","","","","","","","",""
"","response","","html-keyboard-response","77","203005","0.0-1.0-104.0-0.0","0","0","69931","","1266","","","75","11","","","1","11","training","adjacent","ED","5","4","M.jpg","L.jpg","1","0","0","",""
"","feedback","","html-keyboard-response","78","204008","0.0-1.0-105.0-0.0","0","0","69931","","null","","","null","11","","","","","","","","","","","","","","","",""
"","time_out","","html-keyboard-response","79","206011","0.0-1.0-107.0-0.0","0","0","69931","","null","","","null","11","","","","","","","","","","","","","","","",""
"","ITI","","html-keyboard-response","80","207014","0.0-1.0-108.0","0","0","69931","","null","","","null","11","","","","","","","","","","","","","","","NaN",""
"","S1","","html-keyboard-response","81","207268","0.0-1.0-110.0","0","0","69931","","null","","","null","12","","","","","","","","","","","","","","","",""
"","ISI","","html-keyboard-response","82","209273","0.0-1.0-111.0","0","0","69931","","1004","","","68","12","d","","","","","","","","","","","","","","",""
"","S2","","html-keyboard-response","83","209527","0.0-1.0-112.0","0","0","69931","","null","","","null","12","","NaN","","","","","","","","","","","","","",""
"","response","","html-keyboard-response","84","211280","0.0-1.0-113.0-0.0","0","0","69931","","null","","","null","12","","","1","12","training","adjacent","BA","2","1","O.jpg","P.jpg","NaN","0","0","",""
"","too_slow_prompt","","html-keyboard-response","85","212284","0.0-1.0-115.0-0.0","1","0","69931","","null","","","null","","","","","","","","","","","","","","","","",""
"","time_out","","html-keyboard-response","86","214288","0.0-1.0-116.0-0.0","0","0","69931","","null","","","null","12","","","","","","","","","","","","","","","",""
"","ITI","","html-keyboard-response","87","215291","0.0-1.0-117.0","0","0","69931","","null","","","null","12","","","","","","","","","","","","","","","NaN",""
"","S1","","html-keyboard-response","88","215545","0.0-1.0-119.0","0","0","69931","","null","","","null","13","","","","","","","","","","","","","","","",""
"","ISI","","html-keyboard-response","89","217548","0.0-1.0-120.0","0","0","69931","","null","","","null","13","NaN","","","","","","","","","","","","","","",""
"","S2","","html-keyboard-response","90","217802","0.0-1.0-121.0","0","0","69931","","null","","","null","13","","NaN","","","","","","","","","","","","","",""
"","response","","html-keyboard-response","91","218381","0.0-1.0-122.0-0.0","0","0","69931","","575","","","75","13","","","1","13","training","adjacent","DC","4","3","L.jpg","N.jpg","1","0","0","",""
"","feedback","","html-keyboard-response","92","219385","0.0-1.0-123.0-0.0","0","0","69931","","null","","","null","13","","","","","","","","","","","","","","","",""
"","time_out","","html-keyboard-response","93","221389","0.0-1.0-125.0-0.0","0","0","69931","","null","","","null","13","","","","","","","","","","","","","","","",""
"","ITI","","html-keyboard-response","94","222392","0.0-1.0-126.0","0","0","69931","","null","","","null","13","","","","","","","","","","","","","","","NaN",""
"","S1","","html-keyboard-response","95","222645","0.0-1.0-128.0","0","0","69931","","null","","","null","14","","","","","","","","","","","","","","","",""
"","ISI","","html-keyboard-response","96","224648","0.0-1.0-129.0","0","0","69931","","null","","","null","14","NaN","","","","","","","","","","","","","","",""
"","S2","","html-keyboard-response","97","224902","0.0-1.0-130.0","0","0","69931","","null","","","null","14","","NaN","","","","","","","","","","","","","",""
"","response","","html-keyboard-response","98","225965","0.0-1.0-131.0-0.0","0","0","69931","","1059","","","68","14","","","1","14","training","adjacent","CD","3","4","N.jpg","L.jpg","0","1","0","",""
"","feedback","","html-keyboard-response","99","226970","0.0-1.0-132.0-0.0","0","0","69931","","null","","","null","14","","","","","","","","","","","","","","","",""
"","time_out","","html-keyboard-response","100","228972","0.0-1.0-134.0-0.0","0","0","69931","","null","","","null","14","","","","","","","","","","","","","","","",""
"","ITI","","html-keyboard-response","101","229975","0.0-1.0-135.0","0","0","69931","","null","","","null","14","","","","","","","","","","","","","","","NaN",""
"","S1","","html-keyboard-response","102","230229","0.0-1.0-137.0","0","0","69931","","null","","","null","15","","","","","","","","","","","","","","","",""
"","ISI","","html-keyboard-response","103","232231","0.0-1.0-138.0","0","0","69931","","null","","","null","15","NaN","","","","","","","","","","","","","","",""
"","S2","","html-keyboard-response","104","232484","0.0-1.0-139.0","0","0","69931","","null","","","null","15","","NaN","","","","","","","","","","","","","",""
"","response","","html-keyboard-response","105","233229","0.0-1.0-140.0-0.0","0","0","69931","","742","","","68","15","","","1","15","training","adjacent","GF","7","6","Q.jpg","R.jpg","0","0","1","",""
"","feedback","","html-keyboard-response","106","234232","0.0-1.0-141.0-0.0","0","0","69931","","null","","","null","15","","","","","","","","","","","","","","","",""
"","ITI","","html-keyboard-response","107","235236","0.0-1.0-144.0","0","0","69931","","null","","","null","15","","","","","","","","","","","","","","","NaN",""
"","S1","","html-keyboard-response","108","235491","0.0-1.0-146.0","0","0","69931","","null","","","null","16","","","","","","","","","","","","","","","",""
"","ISI","","html-keyboard-response","109","237494","0.0-1.0-147.0","0","0","69931","","null","","","null","16","NaN","","","","","","","","","","","","","","",""
"","S2","","html-keyboard-response","110","237749","0.0-1.0-148.0","0","0","69931","","null","","","null","16","","NaN","","","","","","","","","","","","","",""
"","response","","html-keyboard-response","111","238326","0.0-1.0-149.0-0.0","0","0","69931","","573","","","75","16","","","1","16","training","adjacent","CB","3","2","N.jpg","O.jpg","1","0","0","",""
"","feedback","","html-keyboard-response","112","239329","0.0-1.0-150.0-0.0","0","0","69931","","null","","","null","16","","","","","","","","","","","","","","","",""
"","time_out","","html-keyboard-response","113","241334","0.0-1.0-152.0-0.0","0","0","69931","","null","","","null","16","","","","","","","","","","","","","","","",""
"","ITI","","html-keyboard-response","114","242337","0.0-1.0-153.0","0","0","69931","","null","","","null","16","","","","","","","","","","","","","","","NaN",""
"","S1","","html-keyboard-response","115","242590","0.0-1.0-155.0","0","0","69931","","null","","","null","17","","","","","","","","","","","","","","","",""
"","ISI","","html-keyboard-response","116","244594","0.0-1.0-156.0","0","0","69931","","null","","","null","17","NaN","","","","","","","","","","","","","","",""
"","S2","","html-keyboard-response","117","244848","0.0-1.0-157.0","0","0","69931","","null","","","null","17","","NaN","","","","","","","","","","","","","",""
"","response","","html-keyboard-response","118","245510","0.0-1.0-158.0-0.0","0","0","69931","","658","","","68","17","","","1","17","training","adjacent","AB","1","2","P.jpg","O.jpg","0","1","0","",""
"","feedback","","html-keyboard-response","119","246513","0.0-1.0-159.0-0.0","0","0","69931","","null","","","null","17","","","","","","","","","","","","","","","",""
"","time_out","","html-keyboard-response","120","248516","0.0-1.0-161.0-0.0","0","0","69931","","null","","","null","17","","","","","","","","","","","","","","","",""
"","ITI","","html-keyboard-response","121","249520","0.0-1.0-162.0","0","0","69931","","null","","","null","17","","","","","","","","","","","","","","","NaN",""
"","S1","","html-keyboard-response","122","249773","0.0-1.0-164.0","0","0","69931","","null","","","null","18","","","","","","","","","","","","","","","",""
"","ISI","","html-keyboard-response","123","251776","0.0-1.0-165.0","0","0","69931","","null","","","null","18","NaN","","","","","","","","","","","","","","",""
"","S2","","html-keyboard-response","124","252030","0.0-1.0-166.0","0","0","69931","","null","","","null","18","","NaN","","","","","","","","","","","","","",""
"","response","","html-keyboard-response","125","252590","0.0-1.0-167.0-0.0","0","0","69931","","557","","","68","18","","","1","18","training","adjacent","AB","1","2","P.jpg","O.jpg","0","1","0","",""
"","feedback","","html-keyboard-response","126","253594","0.0-1.0-168.0-0.0","0","0","69931","","null","","","null","18","","","","","","","","","","","","","","","",""
"","time_out","","html-keyboard-response","127","255598","0.0-1.0-170.0-0.0","0","0","69931","","null","","","null","18","","","","","","","","","","","","","","","",""
"","ITI","","html-keyboard-response","128","256601","0.0-1.0-171.0","0","0","69931","","null","","","null","18","","","","","","","","","","","","","","","NaN",""
"","S1","","html-keyboard-response","129","256856","0.0-1.0-173.0","0","0","69931","","null","","","null","19","","","","","","","","","","","","","","","",""
"","ISI","","html-keyboard-response","130","258858","0.0-1.0-174.0","0","0","69931","","null","","","null","19","NaN","","","","","","","","","","","","","","",""
"","S2","","html-keyboard-response","131","259111","0.0-1.0-175.0","0","0","69931","","null","","","null","19","","NaN","","","","","","","","","","","","","",""
"","response","","html-keyboard-response","132","259606","0.0-1.0-176.0-0.0","0","0","69931","","491","","","68","19","","","1","19","training","adjacent","DC","4","3","L.jpg","N.jpg","0","0","1","",""
"","feedback","","html-keyboard-response","133","260610","0.0-1.0-177.0-0.0","0","0","69931","","null","","","null","19","","","","","","","","","","","","","","","",""
"","ITI","","html-keyboard-response","134","261613","0.0-1.0-180.0","0","0","69931","","null","","","null","19","","","","","","","","","","","","","","","NaN",""
"","S1","","html-keyboard-response","135","261867","0.0-1.0-182.0","0","0","69931","","null","","","null","20","","","","","","","","","","","","","","","",""
"","ISI","","html-keyboard-response","136","263871","0.0-1.0-183.0","0","0","69931","","null","","","null","20","NaN","","","","","","","","","","","","","","",""
"","S2","","html-keyboard-response","137","264126","0.0-1.0-184.0","0","0","69931","","null","","","null","20","","NaN","","","","","","","","","","","","","",""
"","response","","html-keyboard-response","138","265061","0.0-1.0-185.0-0.0","0","0","69931","","932","","","75","20","","","1","20","training","adjacent","CB","3","2","N.jpg","O.jpg","1","0","0","",""
"","feedback","","html-keyboard-response","139","266065","0.0-1.0-186.0-0.0","0","0","69931","","null","","","null","20","","","","","","","","","","","","","","","",""
"","time_out","","html-keyboard-response","140","268067","0.0-1.0-188.0-0.0","0","0","69931","","null","","","null","20","","","","","","","","","","","","","","","",""
"","ITI","","html-keyboard-response","141","269072","0.0-1.0-189.0","0","0","69931","","null","","","null","20","","","","","","","","","","","","","","","NaN",""
"","S1","","html-keyboard-response","142","269326","0.0-1.0-191.0","0","0","69931","","null","","","null","21","","","","","","","","","","","","","","","",""
"","ISI","","html-keyboard-response","143","271329","0.0-1.0-192.0","0","0","69931","","null","","","null","21","NaN","","","","","","","","","","","","","","",""
"","S2","","html-keyboard-response","144","271583","0.0-1.0-193.0","0","0","69931","","null","","","null","21","","NaN","","","","","","","","","","","","","",""
"","response","","html-keyboard-response","145","272045","0.0-1.0-194.0-0.0","0","0","69931","","459","","","68","21","","","1","21","training","adjacent","EF","5","6","M.jpg","R.jpg","0","1","0","",""
"","feedback","","html-keyboard-response","146","273049","0.0-1.0-195.0-0.0","0","0","69931","","null","","","null","21","","","","","","","","","","","","","","","",""
"","time_out","","html-keyboard-response","147","275052","0.0-1.0-197.0-0.0","0","0","69931","","null","","","null","21","","","","","","","","","","","","","","","",""
"","ITI","","html-keyboard-response","148","276055","0.0-1.0-198.0","0","0","69931","","null","","","null","21","","","","","","","","","","","","","","","NaN",""
"","S1","","html-keyboard-response","149","276309","0.0-1.0-200.0","0","0","69931","","null","","","null","22","","","","","","","","","","","","","","","",""
"","ISI","","html-keyboard-response","150","278311","0.0-1.0-201.0","0","0","69931","","null","","","null","22","NaN","","","","","","","","","","","","","","",""
"","S2","","html-keyboard-response","151","278565","0.0-1.0-202.0","0","0","69931","","null","","","null","22","","NaN","","","","","","","","","","","","","",""
"","response","","html-keyboard-response","152","279117","0.0-1.0-203.0-0.0","0","0","69931","","548","","","75","22","","","1","22","training","adjacent","BC","2","3","O.jpg","N.jpg","1","1","1","",""
"","feedback","","html-keyboard-response","153","280121","0.0-1.0-204.0-0.0","0","0","69931","","null","","","null","22","","","","","","","","","","","","","","","",""
"","ITI","","html-keyboard-response","154","281125","0.0-1.0-207.0","0","0","69931","","null","","","null","22","","","","","","","","","","","","","","","NaN",""
"","S1","","html-keyboard-response","155","281378","0.0-1.0-209.0","0","0","69931","","null","","","null","23","","","","","","","","","","","","","","","",""
"","ISI","","html-keyboard-response","156","283380","0.0-1.0-210.0","0","0","69931","","null","","","null","23","NaN","","","","","","","","","","","","","","",""
"","S2","","html-keyboard-response","157","283634","0.0-1.0-211.0","0","0","69931","","null","","","null","23","","NaN","","","","","","","","","","","","","",""
"","response","","html-keyboard-response","158","283685","0.0-1.0-212.0-0.0","0","0","69931","","48","","","68","23","","","1","23","training","adjacent","BA","2","1","O.jpg","P.jpg","0","0","1","",""
"","feedback","","html-keyboard-response","159","284688","0.0-1.0-213.0-0.0","0","0","69931","","null","","","null","23","","","","","","","","","","","","","","","",""
"","ITI","","html-keyboard-response","160","285691","0.0-1.0-216.0","0","0","69931","","null","","","null","23","","","","","","","","","","","","","","","NaN",""
"","S1","","html-keyboard-response","161","285945","0.0-1.0-218.0","0","0","69931","","null","","","null","24","","","","","","","","","","","","","","","",""
"","ISI","","html-keyboard-response","162","287949","0.0-1.0-219.0","0","0","69931","","null","","","null","24","NaN","","","","","","","","","","","","","","",""
"","S2","","html-keyboard-response","163","288203","0.0-1.0-220.0","0","0","69931","","null","","","null","24","","NaN","","","","","","","","","","","","","",""
"","response","","html-keyboard-response","164","288822","0.0-1.0-221.0-0.0","0","0","69931","","615","","","75","24","","","1","24","training","adjacent","CD","3","4","N.jpg","L.jpg","1","1","1","",""
"","feedback","","html-keyboard-response","165","289826","0.0-1.0-222.0-0.0","0","0","69931","","null","","","null","24","","","","","","","","","","","","","","","",""
"","ITI","","html-keyboard-response","166","290830","0.0-1.0-225.0","0","0","69931","","null","","","null","24","","","","","","","","","","","","","","","NaN",""
"","S1","","html-keyboard-response","167","291084","0.0-1.0-227.0","0","0","69931","","null","","","null","25","","","","","","","","","","","","","","","",""
"","ISI","","html-keyboard-response","168","293087","0.0-1.0-228.0","0","0","69931","","null","","","null","25","NaN","","","","","","","","","","","","","","",""
"","S2","","html-keyboard-response","169","293342","0.0-1.0-229.0","0","0","69931","","null","","","null","25","","NaN","","","","","","","","","","","","","",""
"","response","","html-keyboard-response","170","294318","0.0-1.0-230.0-0.0","0","0","69931","","973","","","75","25","","","1","25","training","adjacent","BC","2","3","O.jpg","N.jpg","1","1","1","",""
"","feedback","","html-keyboard-response","171","295322","0.0-1.0-231.0-0.0","0","0","69931","","null","","","null","25","","","","","","","","","","","","","","","",""
"","ITI","","html-keyboard-response","172","296326","0.0-1.0-234.0","0","0","69931","","null","","","null","25","","","","","","","","","","","","","","","NaN",""
"","S1","","html-keyboard-response","173","296579","0.0-1.0-236.0","0","0","69931","","null","","","null","26","","","","","","","","","","","","","","","",""
"","ISI","","html-keyboard-response","174","298583","0.0-1.0-237.0","0","0","69931","","null","","","null","26","NaN","","","","","","","","","","","","","","",""
"","S2","","html-keyboard-response","175","298836","0.0-1.0-238.0","0","0","69931","","null","","","null","26","","NaN","","","","","","","","","","","","","",""
"","response","","html-keyboard-response","176","298868","0.0-1.0-239.0-0.0","0","0","69931","","31","","","68","26","","","1","26","training","adjacent","DC","4","3","L.jpg","N.jpg","0","0","1","",""
"","feedback","","html-keyboard-response","177","299872","0.0-1.0-240.0-0.0","0","0","69931","","null","","","null","26","","","","","","","","","","","","","","","",""
"","ITI","","html-keyboard-response","178","300876","0.0-1.0-243.0","0","0","69931","","null","","","null","26","","","","","","","","","","","","","","","NaN",""
"","S1","","html-keyboard-response","179","301130","0.0-1.0-245.0","0","0","69931","","null","","","null","27","","","","","","","","","","","","","","","",""
"","ISI","","html-keyboard-response","180","303135","0.0-1.0-246.0","0","0","69931","","null","","","null","27","NaN","","","","","","","","","","","","","","",""
"","S2","","html-keyboard-response","181","303389","0.0-1.0-247.0","0","0","69931","","null","","","null","27","","NaN","","","","","","","","","","","","","",""
"","response","","html-keyboard-response","182","303398","0.0-1.0-248.0-0.0","0","0","69931","","4","","","68","27","","","1","27","training","adjacent","DE","4","5","L.jpg","M.jpg","0","1","0","",""
"","feedback","","html-keyboard-response","183","304401","0.0-1.0-249.0-0.0","0","0","69931","","null","","","null","27","","","","","","","","","","","","","","","",""
"","time_out","","html-keyboard-response","184","306405","0.0-1.0-251.0-0.0","0","0","69931","","null","","","null","27","","","","","","","","","","","","","","","",""
"","ITI","","html-keyboard-response","185","307410","0.0-1.0-252.0","0","0","69931","","null","","","null","27","","","","","","","","","","","","","","","NaN",""
"","S1","","html-keyboard-response","186","307663","0.0-1.0-254.0","0","0","69931","","null","","","null","28","","","","","","","","","","","","","","","",""
"","ISI","","html-keyboard-response","187","309667","0.0-1.0-255.0","0","0","69931","","null","","","null","28","NaN","","","","","","","","","","","","","","",""
"","S2","","html-keyboard-response","188","309919","0.0-1.0-256.0","0","0","69931","","null","","","null","28","","NaN","","","","","","","","","","","","","",""
"","response","","html-keyboard-response","189","310262","0.0-1.0-257.0-0.0","0","0","69931","","340","","","75","28","","","1","28","training","adjacent","ED","5","4","M.jpg","L.jpg","1","0","0","",""
"","feedback","","html-keyboard-response","190","311267","0.0-1.0-258.0-0.0","0","0","69931","","null","","","null","28","","","","","","","","","","","","","","","",""
"","time_out","","html-keyboard-response","191","313271","0.0-1.0-260.0-0.0","0","0","69931","","null","","","null","28","","","","","","","","","","","","","","","",""
"","ITI","","html-keyboard-response","192","314275","0.0-1.0-261.0","0","0","69931","","null","","","null","28","","","","","","","","","","","","","","","NaN",""
"","S1","","html-keyboard-response","193","314529","0.0-1.0-263.0","0","0","69931","","null","","","null","29","","","","","","","","","","","","","","","",""
"","ISI","","html-keyboard-response","194","316532","0.0-1.0-264.0","0","0","69931","","null","","","null","29","NaN","","","","","","","","","","","","","","",""
"","S2","","html-keyboard-response","195","316787","0.0-1.0-265.0","0","0","69931","","null","","","null","29","","NaN","","","","","","","","","","","","","",""
"","response","","html-keyboard-response","196","316878","0.0-1.0-266.0-0.0","0","0","69931","","89","","","75","29","","","1","29","training","adjacent","DE","4","5","L.jpg","M.jpg","1","1","1","",""
"","feedback","","html-keyboard-response","197","317883","0.0-1.0-267.0-0.0","0","0","69931","","null","","","null","29","","","","","","","","","","","","","","","",""
"","ITI","","html-keyboard-response","198","318887","0.0-1.0-270.0","0","0","69931","","null","","","null","29","","","","","","","","","","","","","","","NaN",""
"","S1","","html-keyboard-response","199","319141","0.0-1.0-272.0","0","0","69931","","null","","","null","30","","","","","","","","","","","","","","","",""
"","ISI","","html-keyboard-response","200","321145","0.0-1.0-273.0","0","0","69931","","null","","","null","30","NaN","","","","","","","","","","","","","","",""
"","S2","","html-keyboard-response","201","321398","0.0-1.0-274.0","0","0","69931","","null","","","null","30","","NaN","","","","","","","","","","","","","",""
"","response","","html-keyboard-response","202","321614","0.0-1.0-275.0-0.0","0","0","69931","","213","","","75","30","","","1","30","training","adjacent","DC","4","3","L.jpg","N.jpg","1","0","0","",""
"","feedback","","html-keyboard-response","203","322618","0.0-1.0-276.0-0.0","0","0","69931","","null","","","null","30","","","","","","","","","","","","","","","",""
"","time_out","","html-keyboard-response","204","324621","0.0-1.0-278.0-0.0","0","0","69931","","null","","","null","30","","","","","","","","","","","","","","","",""
"","ITI","","html-keyboard-response","205","325624","0.0-1.0-279.0","0","0","69931","","null","","","null","30","","","","","","","","","","","","","","","NaN",""
"","S1","","html-keyboard-response","206","325878","0.0-1.0-281.0","0","0","69931","","null","","","null","31","","","","","","","","","","","","","","","",""
"","ISI","","html-keyboard-response","207","327882","0.0-1.0-282.0","0","0","69931","","null","","","null","31","NaN","","","","","","","","","","","","","","",""
"","S2","","html-keyboard-response","208","328136","0.0-1.0-283.0","0","0","69931","","null","","","null","31","","NaN","","","","","","","","","","","","","",""
"","response","","html-keyboard-response","209","328695","0.0-1.0-284.0-0.0","0","0","69931","","555","","","68","31","","","1","31","training","adjacent","FG","6","7","R.jpg","Q.jpg","0","1","0","",""
"","feedback","","html-keyboard-response","210","329699","0.0-1.0-285.0-0.0","0","0","69931","","null","","","null","31","","","","","","","","","","","","","","","",""
"","time_out","","html-keyboard-response","211","331702","0.0-1.0-287.0-0.0","0","0","69931","","null","","","null","31","","","","","","","","","","","","","","","",""
"","ITI","","html-keyboard-response","212","332706","0.0-1.0-288.0","0","0","69931","","null","","","null","31","","","","","","","","","","","","","","","NaN",""
"","S1","","html-keyboard-response","213","332959","0.0-1.0-290.0","0","0","69931","","null","","","null","32","","","","","","","","","","","","","","","",""
"","ISI","","html-keyboard-response","214","334963","0.0-1.0-291.0","0","0","69931","","null","","","null","32","NaN","","","","","","","","","","","","","","",""
"","S2","","html-keyboard-response","215","335217","0.0-1.0-292.0","0","0","69931","","null","","","null","32","","NaN","","","","","","","","","","","","","",""
"","response","","html-keyboard-response","216","336183","0.0-1.0-293.0-0.0","0","0","69931","","962","","","75","32","","","1","32","training","adjacent","EF","5","6","M.jpg","R.jpg","1","1","1","",""
"","feedback","","html-keyboard-response","217","337186","0.0-1.0-294.0-0.0","0","0","69931","","null","","","null","32","","","","","","","","","","","","","","","",""
"","ITI","","html-keyboard-response","218","338190","0.0-1.0-297.0","0","0","69931","","null","","","null","32","","","","","","","","","","","","","","","NaN",""
"","S1","","html-keyboard-response","219","338444","0.0-1.0-299.0","0","0","69931","","null","","","null","33","","","","","","","","","","","","","","","",""
"","ISI","","html-keyboard-response","220","340447","0.0-1.0-300.0","0","0","69931","","null","","","null","33","NaN","","","","","","","","","","","","","","",""
"","S2","","html-keyboard-response","221","340702","0.0-1.0-301.0","0","0","69931","","null","","","null","33","","NaN","","","","","","","","","","","","","",""
"","response","","html-keyboard-response","222","341239","0.0-1.0-302.0-0.0","0","0","69931","","533","","","68","33","","","1","33","training","adjacent","BA","2","1","O.jpg","P.jpg","0","0","1","",""
"","feedback","","html-keyboard-response","223","342244","0.0-1.0-303.0-0.0","0","0","69931","","null","","","null","33","","","","","","","","","","","","","","","",""
"","ITI","","html-keyboard-response","224","343247","0.0-1.0-306.0","0","0","69931","","null","","","null","33","","","","","","","","","","","","","","","NaN",""
"","S1","","html-keyboard-response","225","343500","0.0-1.0-308.0","0","0","69931","","null","","","null","34","","","","","","","","","","","","","","","",""
"","ISI","","html-keyboard-response","226","345504","0.0-1.0-309.0","0","0","69931","","null","","","null","34","NaN","","","","","","","","","","","","","","",""
"","S2","","html-keyboard-response","227","345758","0.0-1.0-310.0","0","0","69931","","null","","","null","34","","NaN","","","","","","","","","","","","","",""
"","response","","html-keyboard-response","228","345775","0.0-1.0-311.0-0.0","0","0","69931","","13","","","68","34","","","1","34","training","adjacent","GF","7","6","Q.jpg","R.jpg","0","0","1","",""
"","feedback","","html-keyboard-response","229","346779","0.0-1.0-312.0-0.0","0","0","69931","","null","","","null","34","","","","","","","","","","","","","","","",""
"","ITI","","html-keyboard-response","230","347783","0.0-1.0-315.0","0","0","69931","","null","","","null","34","","","","","","","","","","","","","","","NaN",""
"","S1","","html-keyboard-response","231","348038","0.0-1.0-317.0","0","0","69931","","null","","","null","35","","","","","","","","","","","","","","","",""
"","ISI","","html-keyboard-response","232","350041","0.0-1.0-318.0","0","0","69931","","null","","","null","35","NaN","","","","","","","","","","","","","","",""
"","S2","","html-keyboard-response","233","350296","0.0-1.0-319.0","0","0","69931","","null","","","null","35","","NaN","","","","","","","","","","","","","",""
"","response","","html-keyboard-response","234","350879","0.0-1.0-320.0-0.0","0","0","69931","","581","","","68","35","","","1","35","training","adjacent","DE","4","5","L.jpg","M.jpg","0","1","0","",""
"","feedback","","html-keyboard-response","235","351883","0.0-1.0-321.0-0.0","0","0","69931","","null","","","null","35","","","","","","","","","","","","","","","",""
"","time_out","","html-keyboard-response","236","353887","0.0-1.0-323.0-0.0","0","0","69931","","null","","","null","35","","","","","","","","","","","","","","","",""
"","ITI","","html-keyboard-response","237","354890","0.0-1.0-324.0","0","0","69931","","null","","","null","35","","","","","","","","","","","","","","","NaN",""
"","S1","","html-keyboard-response","238","355145","0.0-1.0-326.0","0","0","69931","","null","","","null","36","","","","","","","","","","","","","","","",""
"","ISI","","html-keyboard-response","239","357148","0.0-1.0-327.0","0","0","69931","","null","","","null","36","NaN","","","","","","","","","","","","","","",""
"","S2","","html-keyboard-response","240","357402","0.0-1.0-328.0","0","0","69931","","null","","","null","36","","NaN","","","","","","","","","","","","","",""
"","response","","html-keyboard-response","241","357934","0.0-1.0-329.0-0.0","0","0","69931","","530","","","75","36","","","1","36","training","adjacent","FG","6","7","R.jpg","Q.jpg","1","1","1","",""
"","feedback","","html-keyboard-response","242","358939","0.0-1.0-330.0-0.0","0","0","69931","","null","","","null","36","","","","","","","","","","","","","","","",""
"","ITI","","html-keyboard-response","243","359943","0.0-1.0-333.0","0","0","69931","","null","","","null","36","","","","","","","","","","","","","","","NaN",""
"","S1","","html-keyboard-response","244","360197","0.0-1.0-335.0","0","0","69931","","null","","","null","37","","","","","","","","","","","","","","","",""
"","ISI","","html-keyboard-response","245","362200","0.0-1.0-336.0","0","0","69931","","null","","","null","37","NaN","","","","","","","","","","","","","","",""
"","S2","","html-keyboard-response","246","362453","0.0-1.0-337.0","0","0","69931","","null","","","null","37","","NaN","","","","","","","","","","","","","",""
"","response","","html-keyboard-response","247","362880","0.0-1.0-338.0-0.0","0","0","69931","","422","","","68","37","","","1","37","training","adjacent","FE","6","5","R.jpg","M.jpg","0","0","1","",""
"","feedback","","html-keyboard-response","248","363884","0.0-1.0-339.0-0.0","0","0","69931","","null","","","null","37","","","","","","","","","","","","","","","",""
"","ITI","","html-keyboard-response","249","364887","0.0-1.0-342.0","0","0","69931","","null","","","null","37","","","","","","","","","","","","","","","NaN",""
"","S1","","html-keyboard-response","250","365142","0.0-1.0-344.0","0","0","69931","","null","","","null","38","","","","","","","","","","","","","","","",""
"","ISI","","html-keyboard-response","251","367145","0.0-1.0-345.0","0","0","69931","","null","","","null","38","NaN","","","","","","","","","","","","","","",""
"","S2","","html-keyboard-response","252","367399","0.0-1.0-346.0","0","0","69931","","null","","","null","38","","NaN","","","","","","","","","","","","","",""
"","response","","html-keyboard-response","253","367744","0.0-1.0-347.0-0.0","0","0","69931","","340","","","68","38","","","1","38","training","adjacent","CD","3","4","N.jpg","L.jpg","0","1","0","",""
"","feedback","","html-keyboard-response","254","368749","0.0-1.0-348.0-0.0","0","0","69931","","null","","","null","38","","","","","","","","","","","","","","","",""
"","time_out","","html-keyboard-response","255","370752","0.0-1.0-350.0-0.0","0","0","69931","","null","","","null","38","","","","","","","","","","","","","","","",""
"","ITI","","html-keyboard-response","256","371756","0.0-1.0-351.0","0","0","69931","","null","","","null","38","","","","","","","","","","","","","","","NaN",""
"","S1","","html-keyboard-response","257","372009","0.0-1.0-353.0","0","0","69931","","null","","","null","39","","","","","","","","","","","","","","","",""
"","ISI","","html-keyboard-response","258","374013","0.0-1.0-354.0","0","0","69931","","null","","","null","39","NaN","","","","","","","","","","","","","","",""
"","S2","","html-keyboard-response","259","374266","0.0-1.0-355.0","0","0","69931","","null","","","null","39","","NaN","","","","","","","","","","","","","",""
"","response","","html-keyboard-response","260","374591","0.0-1.0-356.0-0.0","0","0","69931","","321","","","68","39","","","1","39","training","adjacent","FE","6","5","R.jpg","M.jpg","0","0","1","",""
"","feedback","","html-keyboard-response","261","375596","0.0-1.0-357.0-0.0","0","0","69931","","null","","","null","39","","","","","","","","","","","","","","","",""
"","ITI","","html-keyboard-response","262","376600","0.0-1.0-360.0","0","0","69931","","null","","","null","39","","","","","","","","","","","","","","","NaN",""
"","S1","","html-keyboard-response","263","376854","0.0-1.0-362.0","0","0","69931","","null","","","null","40","","","","","","","","","","","","","","","",""
"","ISI","","html-keyboard-response","264","378857","0.0-1.0-363.0","0","0","69931","","null","","","null","40","NaN","","","","","","","","","","","","","","",""
"","S2","","html-keyboard-response","265","379111","0.0-1.0-364.0","0","0","69931","","null","","","null","40","","NaN","","","","","","","","","","","","","",""
"","response","","html-keyboard-response","266","379287","0.0-1.0-365.0-0.0","0","0","69931","","174","","","75","40","","","1","40","training","adjacent","FG","6","7","R.jpg","Q.jpg","1","1","1","",""
"","feedback","","html-keyboard-response","267","380291","0.0-1.0-366.0-0.0","0","0","69931","","null","","","null","40","","","","","","","","","","","","","","","",""
"","ITI","","html-keyboard-response","268","381296","0.0-1.0-369.0","0","0","69931","","null","","","null","40","","","","","","","","","","","","","","","NaN",""
"","S1","","html-keyboard-response","269","381551","0.0-1.0-371.0","0","0","69931","","null","","","null","41","","","","","","","","","","","","","","","",""
"","ISI","","html-keyboard-response","270","383555","0.0-1.0-372.0","0","0","69931","","null","","","null","41","NaN","","","","","","","","","","","","","","",""
"","S2","","html-keyboard-response","271","383808","0.0-1.0-373.0","0","0","69931","","null","","","null","41","","NaN","","","","","","","","","","","","","",""
"","response","","html-keyboard-response","272","383927","0.0-1.0-374.0-0.0","0","0","69931","","116","","","75","41","","","1","41","training","adjacent","CB","3","2","N.jpg","O.jpg","1","0","0","",""
"","feedback","","html-keyboard-response","273","384931","0.0-1.0-375.0-0.0","0","0","69931","","null","","","null","41","","","","","","","","","","","","","","","",""
"","time_out","","html-keyboard-response","274","386935","0.0-1.0-377.0-0.0","0","0","69931","","null","","","null","41","","","","","","","","","","","","","","","",""
"","ITI","","html-keyboard-response","275","387938","0.0-1.0-378.0","0","0","69931","","null","","","null","41","","","","","","","","","","","","","","","NaN",""
"","S1","","html-keyboard-response","276","388191","0.0-1.0-380.0","0","0","69931","","null","","","null","42","","","","","","","","","","","","","","","",""
"","ISI","","html-keyboard-response","277","390196","0.0-1.0-381.0","0","0","69931","","null","","","null","42","NaN","","","","","","","","","","","","","","",""
"","S2","","html-keyboard-response","278","390449","0.0-1.0-382.0","0","0","69931","","null","","","null","42","","NaN","","","","","","","","","","","","","",""
"","response","","html-keyboard-response","279","390799","0.0-1.0-383.0-0.0","0","0","69931","","347","","","68","42","","","1","42","training","adjacent","EF","5","6","M.jpg","R.jpg","0","1","0","",""
"","feedback","","html-keyboard-response","280","391804","0.0-1.0-384.0-0.0","0","0","69931","","null","","","null","42","","","","","","","","","","","","","","","",""
"","time_out","","html-keyboard-response","281","393807","0.0-1.0-386.0-0.0","0","0","69931","","null","","","null","42","","","","","","","","","","","","","","","",""
"","ITI","","html-keyboard-response","282","394810","0.0-1.0-387.0","0","0","69931","","null","","","null","42","","","","","","","","","","","","","","","NaN",""
"","S1","","html-keyboard-response","283","395065","0.0-1.0-389.0","0","0","69931","","null","","","null","43","","","","","","","","","","","","","","","",""
"","ISI","","html-keyboard-response","284","397068","0.0-1.0-390.0","0","0","69931","","null","","","null","43","NaN","","","","","","","","","","","","","","",""
"","S2","","html-keyboard-response","285","397321","0.0-1.0-391.0","0","0","69931","","null","","","null","43","","NaN","","","","","","","","","","","","","",""
"","response","","html-keyboard-response","286","397776","0.0-1.0-392.0-0.0","0","0","69931","","451","","","68","43","","","1","43","training","adjacent","FE","6","5","R.jpg","M.jpg","0","0","1","",""
"","feedback","","html-keyboard-response","287","398781","0.0-1.0-393.0-0.0","0","0","69931","","null","","","null","43","","","","","","","","","","","","","","","",""
"","ITI","","html-keyboard-response","288","399785","0.0-1.0-396.0","0","0","69931","","null","","","null","43","","","","","","","","","","","","","","","NaN",""
"","S1","","html-keyboard-response","289","400038","0.0-1.0-398.0","0","0","69931","","null","","","null","44","","","","","","","","","","","","","","","",""
"","ISI","","html-keyboard-response","290","402042","0.0-1.0-399.0","0","0","69931","","null","","","null","44","NaN","","","","","","","","","","","","","","",""
"","S2","","html-keyboard-response","291","402295","0.0-1.0-400.0","0","0","69931","","null","","","null","44","","NaN","","","","","","","","","","","","","",""
"","response","","html-keyboard-response","292","402735","0.0-1.0-401.0-0.0","0","0","69931","","437","","","68","44","","","1","44","training","adjacent","CB","3","2","N.jpg","O.jpg","0","0","1","",""
"","feedback","","html-keyboard-response","293","403739","0.0-1.0-402.0-0.0","0","0","69931","","null","","","null","44","","","","","","","","","","","","","","","",""
"","ITI","","html-keyboard-response","294","404743","0.0-1.0-405.0","0","0","69931","","null","","","null","44","","","","","","","","","","","","","","","NaN",""
"","S1","","html-keyboard-response","295","404997","0.0-1.0-407.0","0","0","69931","","null","","","null","45","","","","","","","","","","","","","","","",""
"","ISI","","html-keyboard-response","296","407000","0.0-1.0-408.0","0","0","69931","","null","","","null","45","NaN","","","","","","","","","","","","","","",""
"","S2","","html-keyboard-response","297","407253","0.0-1.0-409.0","0","0","69931","","null","","","null","45","","NaN","","","","","","","","","","","","","",""
"","response","","html-keyboard-response","298","407383","0.0-1.0-410.0-0.0","0","0","69931","","127","","","75","45","","","1","45","training","adjacent","EF","5","6","M.jpg","R.jpg","1","1","1","",""
"","feedback","","html-keyboard-response","299","408388","0.0-1.0-411.0-0.0","0","0","69931","","null","","","null","45","","","","","","","","","","","","","","","",""
"","ITI","","html-keyboard-response","300","409392","0.0-1.0-414.0","0","0","69931","","null","","","null","45","","","","","","","","","","","","","","","NaN",""
"","S1","","html-keyboard-response","301","409646","0.0-1.0-416.0","0","0","69931","","null","","","null","46","","","","","","","","","","","","","","","",""
"","ISI","","html-keyboard-response","302","411650","0.0-1.0-417.0","0","0","69931","","null","","","null","46","NaN","","","","","","","","","","","","","","",""
"","S2","","html-keyboard-response","303","411903","0.0-1.0-418.0","0","0","69931","","null","","","null","46","","NaN","","","","","","","","","","","","","",""
"","response","","html-keyboard-response","304","411927","0.0-1.0-419.0-0.0","0","0","69931","","21","","","68","46","","","1","46","training","adjacent","GF","7","6","Q.jpg","R.jpg","0","0","1","",""
"","feedback","","html-keyboard-response","305","412931","0.0-1.0-420.0-0.0","0","0","69931","","null","","","null","46","","","","","","","","","","","","","","","",""
"","ITI","","html-keyboard-response","306","413934","0.0-1.0-423.0","0","0","69931","","null","","","null","46","","","","","","","","","","","","","","","NaN",""
"","S1","","html-keyboard-response","307","414188","0.0-1.0-425.0","0","0","69931","","null","","","null","47","","","","","","","","","","","","","","","",""
"","ISI","","html-keyboard-response","308","416191","0.0-1.0-426.0","0","0","69931","","null","","","null","47","NaN","","","","","","","","","","","","","","",""
"","S2","","html-keyboard-response","309","416445","0.0-1.0-427.0","0","0","69931","","null","","","null","47","","NaN","","","","","","","","","","","","","",""
"","response","","html-keyboard-response","310","416904","0.0-1.0-428.0-0.0","0","0","69931","","455","","","68","47","","","1","47","training","adjacent","AB","1","2","P.jpg","O.jpg","0","1","0","",""
"","feedback","","html-keyboard-response","311","417909","0.0-1.0-429.0-0.0","0","0","69931","","null","","","null","47","","","","","","","","","","","","","","","",""
"","time_out","","html-keyboard-response","312","419913","0.0-1.0-431.0-0.0","0","0","69931","","null","","","null","47","","","","","","","","","","","","","","","",""
"","ITI","","html-keyboard-response","313","420917","0.0-1.0-432.0","0","0","69931","","null","","","null","47","","","","","","","","","","","","","","","NaN",""
"","block_over","","html-keyboard-response","314","425744","0.0-1.0-433.0-0.0","0","0","69931","","4822","","","32","47","","","","","","","","","","","","","","","",""
"","S1","","html-keyboard-response","315","425998","0.0-1.0-434.0","0","0","69931","","null","","","null","48","","","","","","","","","","","","","","","",""
"","ISI","","html-keyboard-response","316","428003","0.0-1.0-435.0","0","0","69931","","null","","","null","48","NaN","","","","","","","","","","","","","","",""
"","S2","","html-keyboard-response","317","428256","0.0-1.0-436.0","0","0","69931","","null","","","null","48","","NaN","","","","","","","","","","","","","",""
"","response","","html-keyboard-response","318","428311","0.0-1.0-437.0-0.0","0","0","69931","","52","","","68","48","","","2","48","training","adjacent","GF","7","6","Q.jpg","R.jpg","0","0","1","",""
"","feedback","","html-keyboard-response","319","429316","0.0-1.0-438.0-0.0","0","0","69931","","null","","","null","48","","","","","","","","","","","","","","","",""
"","ITI","","html-keyboard-response","320","430321","0.0-1.0-441.0","0","0","69931","","null","","","null","48","","","","","","","","","","","","","","","NaN",""
"","S1","","html-keyboard-response","321","430574","0.0-1.0-443.0","0","0","69931","","null","","","null","49","","","","","","","","","","","","","","","",""
"","ISI","","html-keyboard-response","322","432578","0.0-1.0-444.0","0","0","69931","","null","","","null","49","NaN","","","","","","","","","","","","","","",""
"","S2","","html-keyboard-response","323","432832","0.0-1.0-445.0","0","0","69931","","null","","","null","49","","NaN","","","","","","","","","","","","","",""
"","response","","html-keyboard-response","324","433304","0.0-1.0-446.0-0.0","0","0","69931","","468","","","75","49","","","2","49","training","adjacent","FE","6","5","R.jpg","M.jpg","1","0","0","",""
"","feedback","","html-keyboard-response","325","434309","0.0-1.0-447.0-0.0","0","0","69931","","null","","","null","49","","","","","","","","","","","","","","","",""
"","time_out","","html-keyboard-response","326","436313","0.0-1.0-449.0-0.0","0","0","69931","","null","","","null","49","","","","","","","","","","","","","","","",""
"","ITI","","html-keyboard-response","327","437316","0.0-1.0-450.0","0","0","69931","","null","","","null","49","","","","","","","","","","","","","","","NaN",""
"","S1","","html-keyboard-response","328","437570","0.0-1.0-452.0","0","0","69931","","null","","","null","50","","","","","","","","","","","","","","","",""
"","ISI","","html-keyboard-response","329","439573","0.0-1.0-453.0","0","0","69931","","null","","","null","50","NaN","","","","","","","","","","","","","","",""
"","S2","","html-keyboard-response","330","439827","0.0-1.0-454.0","0","0","69931","","null","","","null","50","","NaN","","","","","","","","","","","","","",""
"","response","","html-keyboard-response","331","440281","0.0-1.0-455.0-0.0","0","0","69931","","449","","","68","50","","","2","50","training","adjacent","BC","2","3","O.jpg","N.jpg","0","1","0","",""
"","feedback","","html-keyboard-response","332","441284","0.0-1.0-456.0-0.0","0","0","69931","","null","","","null","50","","","","","","","","","","","","","","","",""
"","time_out","","html-keyboard-response","333","443288","0.0-1.0-458.0-0.0","0","0","69931","","null","","","null","50","","","","","","","","","","","","","","","",""
"","ITI","","html-keyboard-response","334","444291","0.0-1.0-459.0","0","0","69931","","null","","","null","50","","","","","","","","","","","","","","","NaN",""
"","S1","","html-keyboard-response","335","444546","0.0-1.0-461.0","0","0","69931","","null","","","null","51","","","","","","","","","","","","","","","",""
"","ISI","","html-keyboard-response","336","446551","0.0-1.0-462.0","0","0","69931","","null","","","null","51","NaN","","","","","","","","","","","","","","",""
"","S2","","html-keyboard-response","337","446804","0.0-1.0-463.0","0","0","69931","","null","","","null","51","","NaN","","","","","","","","","","","","","",""
"","response","","html-keyboard-response","338","447441","0.0-1.0-464.0-0.0","0","0","69931","","634","","","68","51","","","2","51","training","adjacent","AB","1","2","P.jpg","O.jpg","0","1","0","",""
"","feedback","","html-keyboard-response","339","448445","0.0-1.0-465.0-0.0","0","0","69931","","null","","","null","51","","","","","","","","","","","","","","","",""
"","time_out","","html-keyboard-response","340","450448","0.0-1.0-467.0-0.0","0","0","69931","","null","","","null","51","","","","","","","","","","","","","","","",""
"","ITI","","html-keyboard-response","341","451452","0.0-1.0-468.0","0","0","69931","","null","","","null","51","","","","","","","","","","","","","","","NaN",""
"","S1","","html-keyboard-response","342","451705","0.0-1.0-470.0","0","0","69931","","null","","","null","52","","","","","","","","","","","","","","","",""
"","ISI","","html-keyboard-response","343","453708","0.0-1.0-471.0","0","0","69931","","null","","","null","52","NaN","","","","","","","","","","","","","","",""
"","S2","","html-keyboard-response","344","453962","0.0-1.0-472.0","0","0","69931","","null","","","null","52","","NaN","","","","","","","","","","","","","",""
"","response","","html-keyboard-response","345","454384","0.0-1.0-473.0-0.0","0","0","69931","","419","","","75","52","","","2","52","training","adjacent","EF","5","6","M.jpg","R.jpg","1","1","1","",""
"","feedback","","html-keyboard-response","346","455388","0.0-1.0-474.0-0.0","0","0","69931","","null","","","null","52","","","","","","","","","","","","","","","",""
"","ITI","","html-keyboard-response","347","456392","0.0-1.0-477.0","0","0","69931","","null","","","null","52","","","","","","","","","","","","","","","NaN",""
"","S1","","html-keyboard-response","348","456645","0.0-1.0-479.0","0","0","69931","","null","","","null","53","","","","","","","","","","","","","","","",""
"","ISI","","html-keyboard-response","349","458649","0.0-1.0-480.0","0","0","69931","","null","","","null","53","NaN","","","","","","","","","","","","","","",""
"","S2","","html-keyboard-response","350","458903","0.0-1.0-481.0","0","0","69931","","null","","","null","53","","NaN","","","","","","","","","","","","","",""
"","response","","html-keyboard-response","351","459208","0.0-1.0-482.0-0.0","0","0","69931","","301","","","68","53","","","2","53","training","adjacent","DC","4","3","L.jpg","N.jpg","0","0","1","",""
"","feedback","","html-keyboard-response","352","460213","0.0-1.0-483.0-0.0","0","0","69931","","null","","","null","53","","","","","","","","","","","","","","","",""
"","ITI","","html-keyboard-response","353","461218","0.0-1.0-486.0","0","0","69931","","null","","","null","53","","","","","","","","","","","","","","","NaN",""
"","S1","","html-keyboard-response","354","461471","0.0-1.0-488.0","0","0","69931","","null","","","null","54","","","","","","","","","","","","","","","",""
"","ISI","","html-keyboard-response","355","463475","0.0-1.0-489.0","0","0","69931","","null","","","null","54","NaN","","","","","","","","","","","","","","",""
"","S2","","html-keyboard-response","356","463729","0.0-1.0-490.0","0","0","69931","","null","","","null","54","","NaN","","","","","","","","","","","","","",""
"","response","","html-keyboard-response","357","463792","0.0-1.0-491.0-0.0","0","0","69931","","60","","","68","54","","","2","54","training","adjacent","BA","2","1","O.jpg","P.jpg","0","0","1","",""
"","feedback","","html-keyboard-response","358","464796","0.0-1.0-492.0-0.0","0","0","69931","","null","","","null","54","","","","","","","","","","","","","","","",""
"","ITI","","html-keyboard-response","359","465801","0.0-1.0-495.0","0","0","69931","","null","","","null","54","","","","","","","","","","","","","","","NaN",""
"","S1","","html-keyboard-response","360","466054","0.0-1.0-497.0","0","0","69931","","null","","","null","55","","","","","","","","","","","","","","","",""
"","ISI","","html-keyboard-response","361","468058","0.0-1.0-498.0","0","0","69931","","null","","","null","55","NaN","","","","","","","","","","","","","","",""
"","S2","","html-keyboard-response","362","468312","0.0-1.0-499.0","0","0","69931","","null","","","null","55","","NaN","","","","","","","","","","","","","",""
"","response","","html-keyboard-response","363","468793","0.0-1.0-500.0-0.0","0","0","69931","","478","","","75","55","","","2","55","training","adjacent","CB","3","2","N.jpg","O.jpg","1","0","0","",""
"","feedback","","html-keyboard-response","364","469797","0.0-1.0-501.0-0.0","0","0","69931","","null","","","null","55","","","","","","","","","","","","","","","",""
"","time_out","","html-keyboard-response","365","471801","0.0-1.0-503.0-0.0","0","0","69931","","null","","","null","55","","","","","","","","","","","","","","","",""
"","ITI","","html-keyboard-response","366","472804","0.0-1.0-504.0","0","0","69931","","null","","","null","55","","","","","","","","","","","","","","","NaN",""
"","S1","","html-keyboard-response","367","473059","0.0-1.0-506.0","0","0","69931","","null","","","null","56","","","","","","","","","","","","","","","",""
"","ISI","","html-keyboard-response","368","475062","0.0-1.0-507.0","0","0","69931","","null","","","null","56","NaN","","","","","","","","","","","","","","",""
"","S2","","html-keyboard-response","369","475316","0.0-1.0-508.0","0","0","69931","","null","","","null","56","","NaN","","","","","","","","","","","","","",""
"","response","","html-keyboard-response","370","475594","0.0-1.0-509.0-0.0","0","0","69931","","274","","","75","56","","","2","56","training","adjacent","DE","4","5","L.jpg","M.jpg","1","1","1","",""
"","feedback","","html-keyboard-response","371","476599","0.0-1.0-510.0-0.0","0","0","69931","","null","","","null","56","","","","","","","","","","","","","","","",""
"","ITI","","html-keyboard-response","372","477603","0.0-1.0-513.0","0","0","69931","","null","","","null","56","","","","","","","","","","","","","","","NaN",""
"","S1","","html-keyboard-response","373","477857","0.0-1.0-515.0","0","0","69931","","null","","","null","57","","","","","","","","","","","","","","","",""
"","ISI","","html-keyboard-response","374","479860","0.0-1.0-516.0","0","0","69931","","null","","","null","57","NaN","","","","","","","","","","","","","","",""
"","S2","","html-keyboard-response","375","480114","0.0-1.0-517.0","0","0","69931","","null","","","null","57","","NaN","","","","","","","","","","","","","",""
"","response","","html-keyboard-response","376","480441","0.0-1.0-518.0-0.0","0","0","69931","","323","","","75","57","","","2","57","training","adjacent","ED","5","4","M.jpg","L.jpg","1","0","0","",""
"","feedback","","html-keyboard-response","377","481445","0.0-1.0-519.0-0.0","0","0","69931","","null","","","null","57","","","","","","","","","","","","","","","",""
"","time_out","","html-keyboard-response","378","483450","0.0-1.0-521.0-0.0","0","0","69931","","null","","","null","57","","","","","","","","","","","","","","","",""
"","ITI","","html-keyboard-response","379","484453","0.0-1.0-522.0","0","0","69931","","null","","","null","57","","","","","","","","","","","","","","","NaN",""
"","S1","","html-keyboard-response","380","484707","0.0-1.0-524.0","0","0","69931","","null","","","null","58","","","","","","","","","","","","","","","",""
"","ISI","","html-keyboard-response","381","486711","0.0-1.0-525.0","0","0","69931","","null","","","null","58","NaN","","","","","","","","","","","","","","",""
"","S2","","html-keyboard-response","382","486966","0.0-1.0-526.0","0","0","69931","","null","","","null","58","","NaN","","","","","","","","","","","","","",""
"","response","","html-keyboard-response","383","487171","0.0-1.0-527.0-0.0","0","0","69931","","199","","","75","58","","","2","58","training","adjacent","DC","4","3","L.jpg","N.jpg","1","0","0","",""
"","feedback","","html-keyboard-response","384","488178","0.0-1.0-528.0-0.0","0","0","69931","","null","","","null","58","","","","","","","","","","","","","","","",""
"","time_out","","html-keyboard-response","385","490181","0.0-1.0-530.0-0.0","0","0","69931","","null","","","null","58","","","","","","","","","","","","","","","",""
"","ITI","","html-keyboard-response","386","491186","0.0-1.0-531.0","0","0","69931","","null","","","null","58","","","","","","","","","","","","","","","NaN",""
"","S1","","html-keyboard-response","387","491439","0.0-1.0-533.0","0","0","69931","","null","","","null","59","","","","","","","","","","","","","","","",""
"","ISI","","html-keyboard-response","388","493444","0.0-1.0-534.0","0","0","69931","","null","","","null","59","NaN","","","","","","","","","","","","","","",""
"","S2","","html-keyboard-response","389","493697","0.0-1.0-535.0","0","0","69931","","null","","","null","59","","NaN","","","","","","","","","","","","","",""
"","response","","html-keyboard-response","390","493769","0.0-1.0-536.0-0.0","0","0","69931","","70","","","75","59","","","2","59","training","adjacent","DE","4","5","L.jpg","M.jpg","1","1","1","",""
"","feedback","","html-keyboard-response","391","494774","0.0-1.0-537.0-0.0","0","0","69931","","null","","","null","59","","","","","","","","","","","","","","","",""
"","ITI","","html-keyboard-response","392","495777","0.0-1.0-540.0","0","0","69931","","null","","","null","59","","","","","","","","","","","","","","","NaN",""
"","S1","","html-keyboard-response","393","496032","0.0-1.0-542.0","0","0","69931","","null","","","null","60","","","","","","","","","","","","","","","",""
"","ISI","","html-keyboard-response","394","498036","0.0-1.0-543.0","0","0","69931","","null","","","null","60","NaN","","","","","","","","","","","","","","",""
"","S2","","html-keyboard-response","395","498289","0.0-1.0-544.0","0","0","69931","","null","","","null","60","","NaN","","","","","","","","","","","","","",""
"","response","","html-keyboard-response","396","498721","0.0-1.0-545.0-0.0","0","0","69931","","429","","","75","60","","","2","60","training","adjacent","AB","1","2","P.jpg","O.jpg","1","1","1","",""
"","feedback","","html-keyboard-response","397","499725","0.0-1.0-546.0-0.0","0","0","69931","","null","","","null","60","","","","","","","","","","","","","","","",""
"","ITI","","html-keyboard-response","398","500729","0.0-1.0-549.0","0","0","69931","","null","","","null","60","","","","","","","","","","","","","","","NaN",""
"","S1","","html-keyboard-response","399","500982","0.0-1.0-551.0","0","0","69931","","null","","","null","61","","","","","","","","","","","","","","","",""
"","ISI","","html-keyboard-response","400","502986","0.0-1.0-552.0","0","0","69931","","null","","","null","61","NaN","","","","","","","","","","","","","","",""
"","S2","","html-keyboard-response","401","503240","0.0-1.0-553.0","0","0","69931","","null","","","null","61","","NaN","","","","","","","","","","","","","",""
"","response","","html-keyboard-response","402","503329","0.0-1.0-554.0-0.0","0","0","69931","","86","","","68","61","","","2","61","training","adjacent","GF","7","6","Q.jpg","R.jpg","0","0","1","",""
"","feedback","","html-keyboard-response","403","504334","0.0-1.0-555.0-0.0","0","0","69931","","null","","","null","61","","","","","","","","","","","","","","","",""
"","ITI","","html-keyboard-response","404","505338","0.0-1.0-558.0","0","0","69931","","null","","","null","61","","","","","","","","","","","","","","","NaN",""
"","S1","","html-keyboard-response","405","505592","0.0-1.0-560.0","0","0","69931","","null","","","null","62","","","","","","","","","","","","","","","",""
"","ISI","","html-keyboard-response","406","507595","0.0-1.0-561.0","0","0","69931","","null","","","null","62","NaN","","","","","","","","","","","","","","",""
"","S2","","html-keyboard-response","407","507849","0.0-1.0-562.0","0","0","69931","","null","","","null","62","","NaN","","","","","","","","","","","","","",""
"","response","","html-keyboard-response","408","508056","0.0-1.0-563.0-0.0","0","0","69931","","204","","","75","62","","","2","62","training","adjacent","GF","7","6","Q.jpg","R.jpg","1","0","0","",""
"","feedback","","html-keyboard-response","409","509061","0.0-1.0-564.0-0.0","0","0","69931","","null","","","null","62","","","","","","","","","","","","","","","",""
"","time_out","","html-keyboard-response","410","511066","0.0-1.0-566.0-0.0","0","0","69931","","null","","","null","62","","","","","","","","","","","","","","","",""
"","ITI","","html-keyboard-response","411","512070","0.0-1.0-567.0","0","0","69931","","null","","","null","62","","","","","","","","","","","","","","","NaN",""
"","S1","","html-keyboard-response","412","512324","0.0-1.0-569.0","0","0","69931","","null","","","null","63","","","","","","","","","","","","","","","",""
"","ISI","","html-keyboard-response","413","514327","0.0-1.0-570.0","0","0","69931","","null","","","null","63","NaN","","","","","","","","","","","","","","",""
"","S2","","html-keyboard-response","414","514562","0.0-1.0-571.0","0","0","69931","","230","","","68","63","","d","2","63","training","adjacent","FE","6","5","R.jpg","M.jpg","0","0","1","",""
"","feedback","","html-keyboard-response","415","515567","0.0-1.0-573.0-0.0","0","0","69931","","null","","","null","63","","","","","","","","","","","","","","","",""
"","ITI","","html-keyboard-response","416","516571","0.0-1.0-576.0","0","0","69931","","null","","","null","63","","","","","","","","","","","","","","","NaN",""
"","S1","","html-keyboard-response","417","516824","0.0-1.0-578.0","0","0","69931","","null","","","null","64","","","","","","","","","","","","","","","",""
"","ISI","","html-keyboard-response","418","518828","0.0-1.0-579.0","0","0","69931","","1791","","","75","64","k","","","","","","","","","","","","","","",""
"","S2","","html-keyboard-response","419","519082","0.0-1.0-580.0","0","0","69931","","null","","","null","64","","NaN","","","","","","","","","","","","","",""
"","response","","html-keyboard-response","420","519425","0.0-1.0-581.0-0.0","0","0","69931","","339","","","75","64","","","2","64","training","adjacent","DC","4","3","L.jpg","N.jpg","1","0","0","",""
"","feedback","","html-keyboard-response","421","520430","0.0-1.0-582.0-0.0","0","0","69931","","null","","","null","64","","","","","","","","","","","","","","","",""
"","time_out","","html-keyboard-response","422","522435","0.0-1.0-584.0-0.0","0","0","69931","","null","","","null","64","","","","","","","","","","","","","","","",""
"","ITI","","html-keyboard-response","423","523438","0.0-1.0-585.0","0","0","69931","","null","","","null","64","","","","","","","","","","","","","","","NaN",""
"","S1","","html-keyboard-response","424","523692","0.0-1.0-587.0","0","0","69931","","null","","","null","65","","","","","","","","","","","","","","","",""
"","ISI","","html-keyboard-response","425","525695","0.0-1.0-588.0","0","0","69931","","1667","","","68","65","d","","","","","","","","","","","","","","",""
"","S2","","html-keyboard-response","426","525930","0.0-1.0-589.0","0","0","69931","","230","","","68","65","","d","2","65","training","adjacent","GF","7","6","Q.jpg","R.jpg","0","0","1","",""
"","feedback","","html-keyboard-response","427","526934","0.0-1.0-591.0-0.0","0","0","69931","","null","","","null","65","","","","","","","","","","","","","","","",""
"","ITI","","html-keyboard-response","428","527938","0.0-1.0-594.0","0","0","69931","","null","","","null","65","","","","","","","","","","","","","","","NaN",""
"","S1","","html-keyboard-response","429","528192","0.0-1.0-596.0","0","0","69931","","null","","","null","66","","","","","","","","","","","","","","","",""
"","ISI","","html-keyboard-response","430","530195","0.0-1.0-597.0","0","0","69931","","null","","","null","66","NaN","","","","","","","","","","","","","","",""
"","S2","","html-keyboard-response","431","530449","0.0-1.0-598.0","0","0","69931","","null","","","null","66","","NaN","","","","","","","","","","","","","",""
"","response","","html-keyboard-response","432","530657","0.0-1.0-599.0-0.0","0","0","69931","","205","","","75","66","","","2","66","training","adjacent","CD","3","4","N.jpg","L.jpg","1","1","1","",""
"","feedback","","html-keyboard-response","433","531662","0.0-1.0-600.0-0.0","0","0","69931","","null","","","null","66","","","","","","","","","","","","","","","",""
"","ITI","","html-keyboard-response","434","532666","0.0-1.0-603.0","0","0","69931","","null","","","null","66","","","","","","","","","","","","","","","NaN",""
"","S1","","html-keyboard-response","435","532920","0.0-1.0-605.0","0","0","69931","","null","","","null","67","","","","","","","","","","","","","","","",""
"","ISI","","html-keyboard-response","436","534924","0.0-1.0-606.0","0","0","69931","","null","","","null","67","NaN","","","","","","","","","","","","","","",""
"","S2","","html-keyboard-response","437","535177","0.0-1.0-607.0","0","0","69931","","null","","","null","67","","NaN","","","","","","","","","","","","","",""
"","response","","html-keyboard-response","438","535361","0.0-1.0-608.0-0.0","0","0","69931","","181","","","75","67","","","2","67","training","adjacent","EF","5","6","M.jpg","R.jpg","1","1","1","",""
"","feedback","","html-keyboard-response","439","536366","0.0-1.0-609.0-0.0","0","0","69931","","null","","","null","67","","","","","","","","","","","","","","","",""
"","ITI","","html-keyboard-response","440","537370","0.0-1.0-612.0","0","0","69931","","null","","","null","67","","","","","","","","","","","","","","","NaN",""
"","S1","","html-keyboard-response","441","537624","0.0-1.0-614.0","0","0","69931","","null","","","null","68","","","","","","","","","","","","","","","",""
"","ISI","","html-keyboard-response","442","539628","0.0-1.0-615.0","0","0","69931","","null","","","null","68","NaN","","","","","","","","","","","","","","",""
"","S2","","html-keyboard-response","443","539882","0.0-1.0-616.0","0","0","69931","","null","","","null","68","","NaN","","","","","","","","","","","","","",""
"","response","","html-keyboard-response","444","540145","0.0-1.0-617.0-0.0","0","0","69931","","261","","","68","68","","","2","68","training","adjacent","FG","6","7","R.jpg","Q.jpg","0","1","0","",""
"","feedback","","html-keyboard-response","445","541150","0.0-1.0-618.0-0.0","0","0","69931","","null","","","null","68","","","","","","","","","","","","","","","",""
"","time_out","","html-keyboard-response","446","543155","0.0-1.0-620.0-0.0","0","0","69931","","null","","","null","68","","","","","","","","","","","","","","","",""
"","ITI","","html-keyboard-response","447","544158","0.0-1.0-621.0","0","0","69931","","null","","","null","68","","","","","","","","","","","","","","","NaN",""
"","S1","","html-keyboard-response","448","544411","0.0-1.0-623.0","0","0","69931","","null","","","null","69","","","","","","","","","","","","","","","",""
"","ISI","","html-keyboard-response","449","546415","0.0-1.0-624.0","0","0","69931","","null","","","null","69","NaN","","","","","","","","","","","","","","",""
"","S2","","html-keyboard-response","450","546670","0.0-1.0-625.0","0","0","69931","","null","","","null","69","","NaN","","","","","","","","","","","","","",""
"","response","","html-keyboard-response","451","547019","0.0-1.0-626.0-0.0","0","0","69931","","345","","","68","69","","","2","69","training","adjacent","FE","6","5","R.jpg","M.jpg","0","0","1","",""
"","feedback","","html-keyboard-response","452","548023","0.0-1.0-627.0-0.0","0","0","69931","","null","","","null","69","","","","","","","","","","","","","","","",""
"","ITI","","html-keyboard-response","453","549028","0.0-1.0-630.0","0","0","69931","","null","","","null","69","","","","","","","","","","","","","","","NaN",""
"","S1","","html-keyboard-response","454","549282","0.0-1.0-632.0","0","0","69931","","null","","","null","70","","","","","","","","","","","","","","","",""
"","ISI","","html-keyboard-response","455","551285","0.0-1.0-633.0","0","0","69931","","null","","","null","70","NaN","","","","","","","","","","","","","","",""
"","S2","","html-keyboard-response","456","551539","0.0-1.0-634.0","0","0","69931","","null","","","null","70","","NaN","","","","","","","","","","","","","",""
"","response","","html-keyboard-response","457","551634","0.0-1.0-635.0-0.0","0","0","69931","","92","","","75","70","","","2","70","training","adjacent","ED","5","4","M.jpg","L.jpg","1","0","0","",""
"","feedback","","html-keyboard-response","458","552638","0.0-1.0-636.0-0.0","0","0","69931","","null","","","null","70","","","","","","","","","","","","","","","",""
"","time_out","","html-keyboard-response","459","554643","0.0-1.0-638.0-0.0","0","0","69931","","null","","","null","70","","","","","","","","","","","","","","","",""
"","ITI","","html-keyboard-response","460","555646","0.0-1.0-639.0","0","0","69931","","null","","","null","70","","","","","","","","","","","","","","","NaN",""
"","S1","","html-keyboard-response","461","555901","0.0-1.0-641.0","0","0","69931","","null","","","null","71","","","","","","","","","","","","","","","",""
"","ISI","","html-keyboard-response","462","557905","0.0-1.0-642.0","0","0","69931","","null","","","null","71","NaN","","","","","","","","","","","","","","",""
"","S2","","html-keyboard-response","463","558159","0.0-1.0-643.0","0","0","69931","","null","","","null","71","","NaN","","","","","","","","","","","","","",""
"","response","","html-keyboard-response","464","558330","0.0-1.0-644.0-0.0","0","0","69931","","168","","","68","71","","","2","71","training","adjacent","CD","3","4","N.jpg","L.jpg","0","1","0","",""
"","feedback","","html-keyboard-response","465","559334","0.0-1.0-645.0-0.0","0","0","69931","","null","","","null","71","","","","","","","","","","","","","","","",""
"","time_out","","html-keyboard-response","466","561338","0.0-1.0-647.0-0.0","0","0","69931","","null","","","null","71","","","","","","","","","","","","","","","",""
"","ITI","","html-keyboard-response","467","562341","0.0-1.0-648.0","0","0","69931","","null","","","null","71","","","","","","","","","","","","","","","NaN",""
"","S1","","html-keyboard-response","468","562595","0.0-1.0-650.0","0","0","69931","","null","","","null","72","","","","","","","","","","","","","","","",""
"","ISI","","html-keyboard-response","469","564599","0.0-1.0-651.0","0","0","69931","","null","","","null","72","NaN","","","","","","","","","","","","","","",""
"","S2","","html-keyboard-response","470","564842","0.0-1.0-652.0","0","0","69931","","239","","","68","72","","d","2","72","training","adjacent","FG","6","7","R.jpg","Q.jpg","0","1","0","",""
"","feedback","","html-keyboard-response","471","565847","0.0-1.0-654.0-0.0","0","0","69931","","null","","","null","72","","","","","","","","","","","","","","","",""
"","time_out","","html-keyboard-response","472","567851","0.0-1.0-656.0-0.0","0","0","69931","","null","","","null","72","","","","","","","","","","","","","","","",""
"","ITI","","html-keyboard-response","473","568854","0.0-1.0-657.0","0","0","69931","","null","","","null","72","","","","","","","","","","","","","","","NaN",""
"","S1","","html-keyboard-response","474","569108","0.0-1.0-659.0","0","0","69931","","null","","","null","73","","","","","","","","","","","","","","","",""
"","ISI","","html-keyboard-response","475","571112","0.0-1.0-660.0","0","0","69931","","null","","","null","73","NaN","","","","","","","","","","","","","","",""
"","S2","","html-keyboard-response","476","571366","0.0-1.0-661.0","0","0","69931","","null","","","null","73","","NaN","","","","","","","","","","","","","",""
"","response","","html-keyboard-response","477","571434","0.0-1.0-662.0-0.0","0","0","69931","","65","","","68","73","","","2","73","training","adjacent","ED","5","4","M.jpg","L.jpg","0","0","1","",""
"","feedback","","html-keyboard-response","478","572439","0.0-1.0-663.0-0.0","0","0","69931","","null","","","null","73","","","","","","","","","","","","","","","",""
"","ITI","","html-keyboard-response","479","573443","0.0-1.0-666.0","0","0","69931","","null","","","null","73","","","","","","","","","","","","","","","NaN",""
"","S1","","html-keyboard-response","480","573696","0.0-1.0-668.0","0","0","69931","","null","","","null","74","","","","","","","","","","","","","","","",""
"","ISI","","html-keyboard-response","481","575701","0.0-1.0-669.0","0","0","69931","","null","","","null","74","NaN","","","","","","","","","","","","","","",""
"","S2","","html-keyboard-response","482","575956","0.0-1.0-670.0","0","0","69931","","null","","","null","74","","NaN","","","","","","","","","","","","","",""
"","response","","html-keyboard-response","483","575963","0.0-1.0-671.0-0.0","0","0","69931","","3","","","75","74","","","2","74","training","adjacent","AB","1","2","P.jpg","O.jpg","1","1","1","",""
"","feedback","","html-keyboard-response","484","576967","0.0-1.0-672.0-0.0","0","0","69931","","null","","","null","74","","","","","","","","","","","","","","","",""
"","ITI","","html-keyboard-response","485","577972","0.0-1.0-675.0","0","0","69931","","null","","","null","74","","","","","","","","","","","","","","","NaN",""
"","S1","","html-keyboard-response","486","578227","0.0-1.0-677.0","0","0","69931","","null","","","null","75","","","","","","","","","","","","","","","",""
"","ISI","","html-keyboard-response","487","580230","0.0-1.0-678.0","0","0","69931","","null","","","null","75","NaN","","","","","","","","","","","","","","",""
"","S2","","html-keyboard-response","488","580484","0.0-1.0-679.0","0","0","69931","","null","","","null","75","","NaN","","","","","","","","","","","","","",""
"","response","","html-keyboard-response","489","580554","0.0-1.0-680.0-0.0","0","0","69931","","67","","","75","75","","","2","75","training","adjacent","DE","4","5","L.jpg","M.jpg","1","1","1","",""
"","feedback","","html-keyboard-response","490","581559","0.0-1.0-681.0-0.0","0","0","69931","","null","","","null","75","","","","","","","","","","","","","","","",""
"","ITI","","html-keyboard-response","491","582563","0.0-1.0-684.0","0","0","69931","","null","","","null","75","","","","","","","","","","","","","","","NaN",""
"","S1","","html-keyboard-response","492","582817","0.0-1.0-686.0","0","0","69931","","null","","","null","76","","","","","","","","","","","","","","","",""
"","ISI","","html-keyboard-response","493","584820","0.0-1.0-687.0","0","0","69931","","1711","","","68","76","d","","","","","","","","","","","","","","",""
"","S2","","html-keyboard-response","494","585059","0.0-1.0-688.0","0","0","69931","","235","","","68","76","","d","2","76","training","adjacent","BA","2","1","O.jpg","P.jpg","0","0","1","",""
"","feedback","","html-keyboard-response","495","586063","0.0-1.0-690.0-0.0","0","0","69931","","null","","","null","76","","","","","","","","","","","","","","","",""
"","ITI","","html-keyboard-response","496","587067","0.0-1.0-693.0","0","0","69931","","null","","","null","76","","","","","","","","","","","","","","","NaN",""
"","S1","","html-keyboard-response","497","587322","0.0-1.0-695.0","0","0","69931","","null","","","null","77","","","","","","","","","","","","","","","",""
"","ISI","","html-keyboard-response","498","589325","0.0-1.0-696.0","0","0","69931","","null","","","null","77","NaN","","","","","","","","","","","","","","",""
"","S2","","html-keyboard-response","499","589580","0.0-1.0-697.0","0","0","69931","","null","","","null","77","","NaN","","","","","","","","","","","","","",""
"","response","","html-keyboard-response","500","590019","0.0-1.0-698.0-0.0","0","0","69931","","435","","","75","77","","","2","77","training","adjacent","BC","2","3","O.jpg","N.jpg","1","1","1","",""
"","feedback","","html-keyboard-response","501","591026","0.0-1.0-699.0-0.0","0","0","69931","","null","","","null","77","","","","","","","","","","","","","","","",""
"","ITI","","html-keyboard-response","502","592029","0.0-1.0-702.0","0","0","69931","","null","","","null","77","","","","","","","","","","","","","","","NaN",""
"","S1","","html-keyboard-response","503","592284","0.0-1.0-704.0","0","0","69931","","null","","","null","78","","","","","","","","","","","","","","","",""
"","ISI","","html-keyboard-response","504","594288","0.0-1.0-705.0","0","0","69931","","null","","","null","78","NaN","","","","","","","","","","","","","","",""
"","S2","","html-keyboard-response","505","594542","0.0-1.0-706.0","0","0","69931","","null","","","null","78","","NaN","","","","","","","","","","","","","",""
"","response","","html-keyboard-response","506","594699","0.0-1.0-707.0-0.0","0","0","69931","","153","","","68","78","","","2","78","training","adjacent","CB","3","2","N.jpg","O.jpg","0","0","1","",""
"","feedback","","html-keyboard-response","507","595704","0.0-1.0-708.0-0.0","0","0","69931","","null","","","null","78","","","","","","","","","","","","","","","",""
"","ITI","","html-keyboard-response","508","596708","0.0-1.0-711.0","0","0","69931","","null","","","null","78","","","","","","","","","","","","","","","NaN",""
"","S1","","html-keyboard-response","509","596962","0.0-1.0-713.0","0","0","69931","","null","","","null","79","","","","","","","","","","","","","","","",""
"","ISI","","html-keyboard-response","510","598965","0.0-1.0-714.0","0","0","69931","","null","","","null","79","NaN","","","","","","","","","","","","","","",""
"","S2","","html-keyboard-response","511","599220","0.0-1.0-715.0","0","0","69931","","null","","","null","79","","NaN","","","","","","","","","","","","","",""
"","response","","html-keyboard-response","512","599387","0.0-1.0-716.0-0.0","0","0","69931","","164","","","68","79","","","2","79","training","adjacent","CB","3","2","N.jpg","O.jpg","0","0","1","",""
"","feedback","","html-keyboard-response","513","600391","0.0-1.0-717.0-0.0","0","0","69931","","null","","","null","79","","","","","","","","","","","","","","","",""
"","ITI","","html-keyboard-response","514","601394","0.0-1.0-720.0","0","0","69931","","null","","","null","79","","","","","","","","","","","","","","","NaN",""
"","S1","","html-keyboard-response","515","601649","0.0-1.0-722.0","0","0","69931","","null","","","null","80","","","","","","","","","","","","","","","",""
"","ISI","","html-keyboard-response","516","603653","0.0-1.0-723.0","0","0","69931","","null","","","null","80","NaN","","","","","","","","","","","","","","",""
"","S2","","html-keyboard-response","517","603908","0.0-1.0-724.0","0","0","69931","","null","","","null","80","","NaN","","","","","","","","","","","","","",""
"","response","","html-keyboard-response","518","604130","0.0-1.0-725.0-0.0","0","0","69931","","220","","","68","80","","","2","80","training","adjacent","EF","5","6","M.jpg","R.jpg","0","1","0","",""
"","feedback","","html-keyboard-response","519","605135","0.0-1.0-726.0-0.0","0","0","69931","","null","","","null","80","","","","","","","","","","","","","","","",""
"","time_out","","html-keyboard-response","520","607139","0.0-1.0-728.0-0.0","0","0","69931","","null","","","null","80","","","","","","","","","","","","","","","",""
"","ITI","","html-keyboard-response","521","608142","0.0-1.0-729.0","0","0","69931","","null","","","null","80","","","","","","","","","","","","","","","NaN",""
"","S1","","html-keyboard-response","522","608396","0.0-1.0-731.0","0","0","69931","","null","","","null","81","","","","","","","","","","","","","","","",""
"","ISI","","html-keyboard-response","523","610399","0.0-1.0-732.0","0","0","69931","","null","","","null","81","NaN","","","","","","","","","","","","","","",""
"","S2","","html-keyboard-response","524","610650","0.0-1.0-733.0","0","0","69931","","248","","","75","81","","k","2","81","training","adjacent","BC","2","3","O.jpg","N.jpg","1","1","1","",""
"","feedback","","html-keyboard-response","525","611655","0.0-1.0-735.0-0.0","0","0","69931","","null","","","null","81","","","","","","","","","","","","","","","",""
"","ITI","","html-keyboard-response","526","612660","0.0-1.0-738.0","0","0","69931","","null","","","null","81","","","","","","","","","","","","","","","NaN",""
"","S1","","html-keyboard-response","527","612913","0.0-1.0-740.0","0","0","69931","","null","","","null","82","","","","","","","","","","","","","","","",""
"","ISI","","html-keyboard-response","528","614917","0.0-1.0-741.0","0","0","69931","","null","","","null","82","NaN","","","","","","","","","","","","","","",""
"","S2","","html-keyboard-response","529","615171","0.0-1.0-742.0","0","0","69931","","null","","","null","82","","NaN","","","","","","","","","","","","","",""
"","response","","html-keyboard-response","530","615378","0.0-1.0-743.0-0.0","0","0","69931","","205","","","68","82","","","2","82","training","adjacent","CB","3","2","N.jpg","O.jpg","0","0","1","",""
"","feedback","","html-keyboard-response","531","616383","0.0-1.0-744.0-0.0","0","0","69931","","null","","","null","82","","","","","","","","","","","","","","","",""
"","ITI","","html-keyboard-response","532","617388","0.0-1.0-747.0","0","0","69931","","null","","","null","82","","","","","","","","","","","","","","","NaN",""
"","S1","","html-keyboard-response","533","617641","0.0-1.0-749.0","0","0","69931","","null","","","null","83","","","","","","","","","","","","","","","",""
"","ISI","","html-keyboard-response","534","619645","0.0-1.0-750.0","0","0","69931","","null","","","null","83","NaN","","","","","","","","","","","","","","",""
"","S2","","html-keyboard-response","535","619900","0.0-1.0-751.0","0","0","69931","","null","","","null","83","","NaN","","","","","","","","","","","","","",""
"","response","","html-keyboard-response","536","619955","0.0-1.0-752.0-0.0","0","0","69931","","52","","","75","83","","","2","83","training","adjacent","DC","4","3","L.jpg","N.jpg","1","0","0","",""
"","feedback","","html-keyboard-response","537","620959","0.0-1.0-753.0-0.0","0","0","69931","","null","","","null","83","","","","","","","","","","","","","","","",""
"","time_out","","html-keyboard-response","538","622963","0.0-1.0-755.0-0.0","0","0","69931","","null","","","null","83","","","","","","","","","","","","","","","",""
"","ITI","","html-keyboard-response","539","623968","0.0-1.0-756.0","0","0","69931","","null","","","null","83","","","","","","","","","","","","","","","NaN",""
"","S1","","html-keyboard-response","540","624222","0.0-1.0-758.0","0","0","69931","","null","","","null","84","","","","","","","","","","","","","","","",""
"","ISI","","html-keyboard-response","541","626226","0.0-1.0-759.0","0","0","69931","","null","","","null","84","NaN","","","","","","","","","","","","","","",""
"","S2","","html-keyboard-response","542","626480","0.0-1.0-760.0","0","0","69931","","null","","","null","84","","NaN","","","","","","","","","","","","","",""
"","response","","html-keyboard-response","543","626493","0.0-1.0-761.0-0.0","0","0","69931","","7","","","68","84","","","2","84","training","adjacent","ED","5","4","M.jpg","L.jpg","0","0","1","",""
"","feedback","","html-keyboard-response","544","627496","0.0-1.0-762.0-0.0","0","0","69931","","null","","","null","84","","","","","","","","","","","","","","","",""
"","ITI","","html-keyboard-response","545","628499","0.0-1.0-765.0","0","0","69931","","null","","","null","84","","","","","","","","","","","","","","","NaN",""
"","S1","","html-keyboard-response","546","628754","0.0-1.0-767.0","0","0","69931","","null","","","null","85","","","","","","","","","","","","","","","",""
"","ISI","","html-keyboard-response","547","630758","0.0-1.0-768.0","0","0","69931","","null","","","null","85","NaN","","","","","","","","","","","","","","",""
"","S2","","html-keyboard-response","548","631011","0.0-1.0-769.0","0","0","69931","","null","","","null","85","","NaN","","","","","","","","","","","","","",""
"","response","","html-keyboard-response","549","631162","0.0-1.0-770.0-0.0","0","0","69931","","149","","","68","85","","","2","85","training","adjacent","EF","5","6","M.jpg","R.jpg","0","1","0","",""
"","feedback","","html-keyboard-response","550","632167","0.0-1.0-771.0-0.0","0","0","69931","","null","","","null","85","","","","","","","","","","","","","","","",""
"","time_out","","html-keyboard-response","551","634171","0.0-1.0-773.0-0.0","0","0","69931","","null","","","null","85","","","","","","","","","","","","","","","",""
"","ITI","","html-keyboard-response","552","635175","0.0-1.0-774.0","0","0","69931","","null","","","null","85","","","","","","","","","","","","","","","NaN",""
"","S1","","html-keyboard-response","553","635429","0.0-1.0-776.0","0","0","69931","","null","","","null","86","","","","","","","","","","","","","","","",""
"","ISI","","html-keyboard-response","554","637432","0.0-1.0-777.0","0","0","69931","","null","","","null","86","NaN","","","","","","","","","","","","","","",""
"","S2","","html-keyboard-response","555","637686","0.0-1.0-778.0","0","0","69931","","null","","","null","86","","NaN","","","","","","","","","","","","","",""
"","response","","html-keyboard-response","556","637787","0.0-1.0-779.0-0.0","0","0","69931","","97","","","68","86","","","2","86","training","adjacent","CD","3","4","N.jpg","L.jpg","0","1","0","",""
"","feedback","","html-keyboard-response","557","638792","0.0-1.0-780.0-0.0","0","0","69931","","null","","","null","86","","","","","","","","","","","","","","","",""
"","time_out","","html-keyboard-response","558","640796","0.0-1.0-782.0-0.0","0","0","69931","","null","","","null","86","","","","","","","","","","","","","","","",""
"","ITI","","html-keyboard-response","559","641800","0.0-1.0-783.0","0","0","69931","","null","","","null","86","","","","","","","","","","","","","","","NaN",""
"","S1","","html-keyboard-response","560","642054","0.0-1.0-785.0","0","0","69931","","null","","","null","87","","","","","","","","","","","","","","","",""
"","ISI","","html-keyboard-response","561","644059","0.0-1.0-786.0","0","0","69931","","null","","","null","87","NaN","","","","","","","","","","","","","","",""
"","S2","","html-keyboard-response","562","644312","0.0-1.0-787.0","0","0","69931","","null","","","null","87","","NaN","","","","","","","","","","","","","",""
"","response","","html-keyboard-response","563","644419","0.0-1.0-788.0-0.0","0","0","69931","","103","","","75","87","","","2","87","training","adjacent","DE","4","5","L.jpg","M.jpg","1","1","1","",""
"","feedback","","html-keyboard-response","564","645423","0.0-1.0-789.0-0.0","0","0","69931","","null","","","null","87","","","","","","","","","","","","","","","",""
"","ITI","","html-keyboard-response","565","646428","0.0-1.0-792.0","0","0","69931","","null","","","null","87","","","","","","","","","","","","","","","NaN",""
"","S1","","html-keyboard-response","566","646682","0.0-1.0-794.0","0","0","69931","","null","","","null","88","","","","","","","","","","","","","","","",""
"","ISI","","html-keyboard-response","567","648686","0.0-1.0-795.0","0","0","69931","","null","","","null","88","NaN","","","","","","","","","","","","","","",""
"","S2","","html-keyboard-response","568","648940","0.0-1.0-796.0","0","0","69931","","null","","","null","88","","NaN","","","","","","","","","","","","","",""
"","response","","html-keyboard-response","569","649028","0.0-1.0-797.0-0.0","0","0","69931","","83","","","75","88","","","2","88","training","adjacent","BA","2","1","O.jpg","P.jpg","1","0","0","",""
"","feedback","","html-keyboard-response","570","650031","0.0-1.0-798.0-0.0","0","0","69931","","null","","","null","88","","","","","","","","","","","","","","","",""
"","time_out","","html-keyboard-response","571","652036","0.0-1.0-800.0-0.0","0","0","69931","","null","","","null","88","","","","","","","","","","","","","","","",""
"","ITI","","html-keyboard-response","572","653040","0.0-1.0-801.0","0","0","69931","","null","","","null","88","","","","","","","","","","","","","","","NaN",""
"","S1","","html-keyboard-response","573","653294","0.0-1.0-803.0","0","0","69931","","null","","","null","89","","","","","","","","","","","","","","","",""
"","ISI","","html-keyboard-response","574","655298","0.0-1.0-804.0","0","0","69931","","null","","","null","89","NaN","","","","","","","","","","","","","","",""
"","S2","","html-keyboard-response","575","655552","0.0-1.0-805.0","0","0","69931","","null","","","null","89","","NaN","","","","","","","","","","","","","",""
"","response","","html-keyboard-response","576","655924","0.0-1.0-806.0-0.0","0","0","69931","","369","","","68","89","","","2","89","training","adjacent","CD","3","4","N.jpg","L.jpg","0","1","0","",""
"","feedback","","html-keyboard-response","577","656928","0.0-1.0-807.0-0.0","0","0","69931","","null","","","null","89","","","","","","","","","","","","","","","",""
"","time_out","","html-keyboard-response","578","658933","0.0-1.0-809.0-0.0","0","0","69931","","null","","","null","89","","","","","","","","","","","","","","","",""
"","ITI","","html-keyboard-response","579","659936","0.0-1.0-810.0","0","0","69931","","null","","","null","89","","","","","","","","","","","","","","","NaN",""
"","S1","","html-keyboard-response","580","660190","0.0-1.0-812.0","0","0","69931","","null","","","null","90","","","","","","","","","","","","","","","",""
"","ISI","","html-keyboard-response","581","662194","0.0-1.0-813.0","0","0","69931","","null","","","null","90","NaN","","","","","","","","","","","","","","",""
"","S2","","html-keyboard-response","582","662448","0.0-1.0-814.0","0","0","69931","","null","","","null","90","","NaN","","","","","","","","","","","","","",""
